{"condition": 1, "counterbalance": 0, "assignmentId": "a81753297", "workerId": "w18229945", "hitId": "h47582179", "currenttrial": 143, "bonus": 0, "data": [{"uniqueid": "w18229945:a81753297", "current_trial": 0, "dateTime": 1664554997578, "trialdata": {"success": true, "trial_type": "fullscreen", "trial_index": 0, "time_elapsed": 4269, "internal_node_id": "0.0-0.0"}}, {"uniqueid": "w18229945:a81753297", "current_trial": 1, "dateTime": 1664555269329, "trialdata": {"view_history": [{"page_index": 0, "viewing_time": 271700}], "rt": 271706, "trial_id": "exp_instructions_no_distractor", "trial_type": "instructions", "trial_index": 1, "time_elapsed": 276022, "internal_node_id": "0.0-1.0"}}, {"uniqueid": "w18229945:a81753297", "current_trial": 2, "dateTime": 1664555272996, "trialdata": {"success": true, "trial_type": "fullscreen", "trial_index": 2, "time_elapsed": 279689, "internal_node_id": "0.0-2.0-0.0"}}, {"uniqueid": "w18229945:a81753297", "current_trial": 3, "dateTime": 1664555530869, "trialdata": {"view_history": [{"page_index": 0, "viewing_time": 112953}, {"page_index": 1, "viewing_time": 54090}, {"page_index": 2, "viewing_time": 35386}, {"page_index": 3, "viewing_time": 13696}, {"page_index": 4, "viewing_time": 41737}], "rt": 257863, "trial_id": "mouselab_instructions_1", "trial_type": "instructions", "trial_index": 3, "time_elapsed": 537561, "internal_node_id": "0.0-2.0-1.0"}}, {"uniqueid": "w18229945:a81753297", "current_trial": 4, "dateTime": 1664555551855, "trialdata": {"revealed_states": [], "num_clicks_accrued": [0, 0, 0, 0, 0, 0, 0, 0, 0, 0, 0, 0, 0], "stateRewards": ["", 10, -10, 10, 10, -10, 10, -10, 10, -10, -10, -10, 10], "withholdReward": false, "trial_id": "practice_1", "block": "test", "trialIndex": 0, "score": 11.75, "costs": -0.25, "simulationMode": [null, null, null], "rewards": [10, -10, 10], "path": ["0", "0", "1", "2", "3"], "rt": [5050, 2255, 849], "actions": ["up", "up", "right"], "actionTimes": [8953, 11717, 13077], "queries": {"click": {"state": {"target": ["1"], "time": [7037]}, "edge": {"target": [], "time": []}}, "mouseover": {"state": {"target": ["0", "1", "5"], "time": [5340, 5608, 7240]}, "edge": {"target": [], "time": []}}, "mouseout": {"state": {"target": ["5", "0", "0", "0", "1"], "time": [26, 1458, 3934, 5407, 7182]}, "edge": {"target": [], "time": []}}}, "displayed_time": "13.57", "trialTime": 18592, "trial_type": "mouselab-mdp", "trial_index": 4, "time_elapsed": 558546, "internal_node_id": "0.0-2.0-2.0-0.0"}}, {"uniqueid": "w18229945:a81753297", "current_trial": 5, "dateTime": 1664555564264, "trialdata": {"revealed_states": [], "num_clicks_accrued": [0, 0, 0, 0, 0, 0, 0, 0, 0, 0, 0, 0, 0], "stateRewards": ["", -10, -10, -10, -10, 10, -10, 10, 10, 10, -10, 10, 10], "withholdReward": false, "trial_id": "practice_2", "block": "test", "trialIndex": 1, "score": 11.75, "costs": -0.25, "simulationMode": [null, null, null], "rewards": [10, -10, 10], "path": ["0", "0", "5", "6", "8"], "rt": [2699, 168, 375], "actions": ["right", "right", "down"], "actionTimes": [6611, 7290, 8181], "queries": {"click": {"state": {"target": ["5"], "time": [5300]}, "edge": {"target": [], "time": []}}, "mouseover": {"state": {"target": ["1", "5"], "time": [4698, 5066]}, "edge": {"target": [], "time": []}}, "mouseout": {"state": {"target": ["5", "10", "9", "0", "1", "5"], "time": [2260, 3151, 3346, 4335, 4935, 5447]}, "edge": {"target": [], "time": []}}}, "displayed_time": "8.71", "trialTime": 12080, "trial_type": "mouselab-mdp", "trial_index": 5, "time_elapsed": 570956, "internal_node_id": "0.0-2.0-2.0-1.0"}}, {"uniqueid": "w18229945:a81753297", "current_trial": 6, "dateTime": 1664555676549, "trialdata": {"view_history": [{"page_index": 0, "viewing_time": 62581}, {"page_index": 1, "viewing_time": 25672}, {"page_index": 2, "viewing_time": 24008}], "rt": 112263, "trial_id": "mouselab_instructions_2_scarce", "trial_type": "instructions", "trial_index": 6, "time_elapsed": 683242, "internal_node_id": "0.0-2.0-3.0"}}, {"uniqueid": "w18229945:a81753297", "current_trial": 7, "dateTime": 1664555751197, "trialdata": {"rt": 74615, "response": {"Q0": "$-10 to $10", "Q1": "The cost is always $0.25.", "Q2": "The better I perform the higher my bonus will be.", "Q3": "No, the amount of cash at each node of the web may be different each time.", "Q4": "The values of the nodes walked through from start to finish.", "Q5": "No, the spider might forget to count the money on some rounds."}, "question_order": [0, 1, 2, 3, 4, 5], "correct": {"Q0": "$-48 to $48", "Q1": "The cost is always $0.25.", "Q2": "The better I perform the higher my bonus will be.", "Q3": "No, the amount of cash at each node of the web may be different each time.", "Q4": "The values of the nodes walked through from start to finish.", "Q5": "No, the spider might forget to count the money on some rounds."}, "trial_id": "mouselab_quiz_scarce", "trial_type": "survey-multi-choice", "trial_index": 7, "time_elapsed": 757890, "internal_node_id": "0.0-2.0-4.0"}}, {"uniqueid": "w18229945:a81753297", "current_trial": 8, "dateTime": 1664555766082, "trialdata": {"success": true, "trial_type": "fullscreen", "trial_index": 8, "time_elapsed": 772775, "internal_node_id": "0.0-2.1-0.1"}}, {"uniqueid": "w18229945:a81753297", "current_trial": 9, "dateTime": 1664555955326, "trialdata": {"view_history": [{"page_index": 0, "viewing_time": 50045}, {"page_index": 1, "viewing_time": 23985}, {"page_index": 2, "viewing_time": 27162}, {"page_index": 3, "viewing_time": 9480}, {"page_index": 4, "viewing_time": 78554}], "rt": 189228, "trial_id": "mouselab_instructions_1", "trial_type": "instructions", "trial_index": 9, "time_elapsed": 962019, "internal_node_id": "0.0-2.1-1.1"}}, {"uniqueid": "w18229945:a81753297", "current_trial": 10, "dateTime": 1664555964252, "trialdata": {"revealed_states": [], "num_clicks_accrued": [0, 0, 0, 0, 0, 0, 0, 0, 0, 0, 0, 0, 0], "stateRewards": ["", 10, -10, 10, 10, -10, 10, -10, 10, -10, -10, -10, 10], "withholdReward": false, "trial_id": "practice_1", "block": "test", "trialIndex": 2, "score": 12, "costs": 0, "simulationMode": [null, null, null], "rewards": [10, -10, 10], "path": ["0", "0", "1", "2", "4"], "rt": [2673, 550, 191], "actions": ["up", "up", "left"], "actionTimes": [4293, 5363, 6055], "queries": {"click": {"state": {"target": [], "time": []}, "edge": {"target": [], "time": []}}, "mouseover": {"state": {"target": [], "time": []}, "edge": {"target": [], "time": []}}, "mouseout": {"state": {"target": ["5"], "time": [1009]}, "edge": {"target": [], "time": []}}}, "displayed_time": "6.56", "trialTime": 8580, "trial_type": "mouselab-mdp", "trial_index": 10, "time_elapsed": 970943, "internal_node_id": "0.0-2.1-2.1-0.1"}}, {"uniqueid": "w18229945:a81753297", "current_trial": 11, "dateTime": 1664555972002, "trialdata": {"revealed_states": [], "num_clicks_accrued": [0, 0, 0, 0, 0, 0, 0, 0, 0, 0, 0, 0, 0], "stateRewards": ["", -10, -10, -10, -10, 10, -10, 10, 10, 10, -10, 10, 10], "withholdReward": false, "trial_id": "practice_2", "block": "test", "trialIndex": 3, "score": 12, "costs": 0, "simulationMode": [null, null, null], "rewards": [10, -10, 10], "path": ["0", "0", "5", "6", "7"], "rt": [1088, 395, 848], "actions": ["right", "right", "up"], "actionTimes": [3080, 4009, 5367], "queries": {"click": {"state": {"target": [], "time": []}, "edge": {"target": [], "time": []}}, "mouseover": {"state": {"target": [], "time": []}, "edge": {"target": [], "time": []}}, "mouseout": {"state": {"target": ["0"], "time": [1796]}, "edge": {"target": [], "time": []}}}, "displayed_time": "5.87", "trialTime": 7416, "trial_type": "mouselab-mdp", "trial_index": 11, "time_elapsed": 978694, "internal_node_id": "0.0-2.1-2.1-1.1"}}, {"uniqueid": "w18229945:a81753297", "current_trial": 12, "dateTime": 1664556093689, "trialdata": {"view_history": [{"page_index": 0, "viewing_time": 90699}, {"page_index": 1, "viewing_time": 28440}, {"page_index": 2, "viewing_time": 2528}], "rt": 121669, "trial_id": "mouselab_instructions_2_scarce", "trial_type": "instructions", "trial_index": 12, "time_elapsed": 1100382, "internal_node_id": "0.0-2.1-3.1"}}, {"uniqueid": "w18229945:a81753297", "current_trial": 13, "dateTime": 1664556168641, "trialdata": {"rt": 74926, "response": {"Q0": "$-48 to $48", "Q1": "The cost is always $0.25.", "Q2": "The better I perform the higher my bonus will be.", "Q3": "No, the amount of cash at each node of the web may be different each time.", "Q4": "The values of the nodes walked through from start to finish.", "Q5": "No, the spider might forget to count the money on some rounds."}, "question_order": [0, 1, 2, 3, 4, 5], "correct": {"Q0": "$-48 to $48", "Q1": "The cost is always $0.25.", "Q2": "The better I perform the higher my bonus will be.", "Q3": "No, the amount of cash at each node of the web may be different each time.", "Q4": "The values of the nodes walked through from start to finish.", "Q5": "No, the spider might forget to count the money on some rounds."}, "trial_id": "mouselab_quiz_scarce", "trial_type": "survey-multi-choice", "trial_index": 13, "time_elapsed": 1175334, "internal_node_id": "0.0-2.1-4.1"}}, {"uniqueid": "w18229945:a81753297", "current_trial": 14, "dateTime": 1664556232066, "trialdata": {"rt": 63383, "stimulus": "\n<h1> Get ready to start the game! </h1>\n\nThank you for reading the instructions. Get ready start with the first of 4 block(s) of this game.\n<br><br>\nIn this first block, you will complete 30 rounds of this game before moving on.\n<br><br>\nRemember, the more money the spider gets, the bigger your bonus will be!\n<br><br>\n<div style='text-align: center;'>Press <code>space</code> to begin.</div>\n\n<br><br>\n(If, at any point, the <code>space</code> key does not take you to the next page, click once on the text and try again.)", "response": " ", "trial_id": "mdp_ready_1", "trial_type": "html-keyboard-response", "trial_index": 14, "time_elapsed": 1238759, "internal_node_id": "0.0-4.0-0.0"}}, {"uniqueid": "w18229945:a81753297", "current_trial": 15, "dateTime": 1664556246127, "trialdata": {"revealed_states": [], "num_clicks_accrued": [0, 0, 0, 0, 0, 0, 0, 0, 0, 0, 0, 0, 0], "stateRewards": ["", -2, 4, 24, 48, 2, 4, -48, -48, -2, 8, 48, -24], "withholdReward": false, "trial_id": "mdp_305701202606", "block": "test1", "trialIndex": 4, "score": -13, "costs": 0, "simulationMode": [null, null, null], "rewards": [-2, 8, -24], "path": ["0", "0", "9", "10", "12"], "rt": [1662, 113, 557], "actions": ["left", "left", "down"], "actionTimes": [5575, 6217, 7297], "queries": {"click": {"state": {"target": [], "time": []}, "edge": {"target": [], "time": []}}, "mouseover": {"state": {"target": [], "time": []}, "edge": {"target": [], "time": []}}, "mouseout": {"state": {"target": ["6", "5", "0", "1"], "time": [1784, 1935, 2396, 2569]}, "edge": {"target": [], "time": []}}}, "displayed_time": "11.92", "trialTime": 13767, "trial_type": "mouselab-mdp", "trial_index": 15, "time_elapsed": 1252818, "internal_node_id": "0.0-4.0-1.0-0.0"}}, {"uniqueid": "w18229945:a81753297", "current_trial": 16, "dateTime": 1664556261409, "trialdata": {"revealed_states": [], "num_clicks_accrued": [0, 0, 0, 0, 0, 0, 0, 0, 0, 0, 0, 0, 0], "stateRewards": ["", -2, -4, -48, -48, -2, -8, 48, -48, 4, -8, -48, 24], "withholdReward": true, "trial_id": "mdp_468495641521", "block": "test1", "trialIndex": 5, "score": -53.25, "costs": -0.25, "simulationMode": [null, null, null], "rewards": [-2, -8, -48], "path": ["0", "0", "5", "6", "8"], "rt": [2231, 94, 268], "actions": ["right", "right", "down"], "actionTimes": [5152, 5751, 6526], "queries": {"click": {"state": {"target": ["1"], "time": [3567]}, "edge": {"target": [], "time": []}}, "mouseover": {"state": {"target": ["1"], "time": [3365]}, "edge": {"target": [], "time": []}}, "mouseout": {"state": {"target": ["7", "6", "0", "1"], "time": [2052, 2084, 2973, 3719]}, "edge": {"target": [], "time": []}}}, "displayed_time": "11.93", "trialTime": 14937, "trial_type": "mouselab-mdp", "trial_index": 16, "time_elapsed": 1268100, "internal_node_id": "0.0-4.0-1.0-1.0"}}, {"uniqueid": "w18229945:a81753297", "current_trial": 17, "dateTime": 1664556273755, "trialdata": {"revealed_states": [], "num_clicks_accrued": [0, 0, 0, 0, 0, 0, 0, 0, 0, 0, 0, 0, 0], "stateRewards": ["", -2, -4, -24, 48, -4, 8, 48, 48, 2, 8, -48, -24], "withholdReward": true, "trial_id": "mdp_136376573354", "block": "test1", "trialIndex": 6, "score": 57, "costs": 0, "simulationMode": [null, null, null], "rewards": [-4, 8, 48], "path": ["0", "0", "5", "6", "7"], "rt": [1406, 27, 15], "actions": ["right", "right", "up"], "actionTimes": [3651, 4180, 4701], "queries": {"click": {"state": {"target": [], "time": []}, "edge": {"target": [], "time": []}}, "mouseover": {"state": {"target": [], "time": []}, "edge": {"target": [], "time": []}}, "mouseout": {"state": {"target": [], "time": []}, "edge": {"target": [], "time": []}}}, "displayed_time": "10.25", "trialTime": 12034, "trial_type": "mouselab-mdp", "trial_index": 17, "time_elapsed": 1280448, "internal_node_id": "0.0-4.0-1.0-2.0"}}, {"uniqueid": "w18229945:a81753297", "current_trial": 18, "dateTime": 1664556288559, "trialdata": {"revealed_states": [], "num_clicks_accrued": [0, 0, 0, 0, 0, 0, 0, 0, 0, 0, 0, 0, 0], "stateRewards": ["", -4, -8, -24, 24, 4, 4, -48, -48, -4, -4, 24, -48], "withholdReward": false, "trial_id": "mdp_431592223624", "block": "test1", "trialIndex": 7, "score": -31.25, "costs": -0.25, "simulationMode": [null, null, null], "rewards": [-4, -8, -24], "path": ["0", "0", "1", "2", "3"], "rt": [3171, 82, 486], "actions": ["up", "up", "right"], "actionTimes": [4557, 5163, 6157], "queries": {"click": {"state": {"target": ["9"], "time": [3294]}, "edge": {"target": [], "time": []}}, "mouseover": {"state": {"target": ["9", "10", "1", "9", "0"], "time": [2275, 2305, 2627, 2995, 3462]}, "edge": {"target": [], "time": []}}, "mouseout": {"state": {"target": ["0", "9", "10", "1", "9", "0"], "time": [2269, 2297, 2413, 2958, 3427, 3491]}, "edge": {"target": [], "time": []}}}, "displayed_time": "10.39", "trialTime": 14396, "trial_type": "mouselab-mdp", "trial_index": 18, "time_elapsed": 1295250, "internal_node_id": "0.0-4.0-1.0-3.0"}}, {"uniqueid": "w18229945:a81753297", "current_trial": 19, "dateTime": 1664556304400, "trialdata": {"revealed_states": [], "num_clicks_accrued": [0, 0, 0, 0, 0, 0, 0, 0, 0, 0, 0, 0, 0], "stateRewards": ["", -2, 8, 48, 48, 4, -8, -48, 48, 2, -4, -48, 48], "withholdReward": false, "trial_id": "mdp_132958048709", "block": "test1", "trialIndex": 8, "score": 59, "costs": 0, "simulationMode": [null, null, null], "rewards": [-2, 8, 48], "path": ["0", "0", "1", "2", "4"], "rt": [975, 271, 131], "actions": ["up", "up", "left"], "actionTimes": [3392, 4215, 4849], "queries": {"click": {"state": {"target": [], "time": []}, "edge": {"target": [], "time": []}}, "mouseover": {"state": {"target": [], "time": []}, "edge": {"target": [], "time": []}}, "mouseout": {"state": {"target": ["0"], "time": [2450]}, "edge": {"target": [], "time": []}}}, "displayed_time": "11.42", "trialTime": 15558, "trial_type": "mouselab-mdp", "trial_index": 19, "time_elapsed": 1311092, "internal_node_id": "0.0-4.0-1.0-4.0"}}, {"uniqueid": "w18229945:a81753297", "current_trial": 20, "dateTime": 1664556318139, "trialdata": {"revealed_states": [], "num_clicks_accrued": [0, 0, 0, 0, 0, 0, 0, 0, 0, 0, 0, 0, 0], "stateRewards": ["", -2, -8, -48, 24, 2, -4, -48, 48, 2, 4, 24, -24], "withholdReward": false, "trial_id": "mdp_849341543762", "block": "test1", "trialIndex": 9, "score": 51, "costs": 0, "simulationMode": [null, null, null], "rewards": [2, -4, 48], "path": ["0", "0", "5", "6", "8"], "rt": [1043, 252, 51], "actions": ["right", "right", "down"], "actionTimes": [3514, 4279, 4845], "queries": {"click": {"state": {"target": [], "time": []}, "edge": {"target": [], "time": []}}, "mouseover": {"state": {"target": [], "time": []}, "edge": {"target": [], "time": []}}, "mouseout": {"state": {"target": ["12", "9", "0"], "time": [1090, 1169, 1502]}, "edge": {"target": [], "time": []}}}, "displayed_time": "10.48", "trialTime": 13370, "trial_type": "mouselab-mdp", "trial_index": 20, "time_elapsed": 1324831, "internal_node_id": "0.0-4.0-1.0-5.0"}}, {"uniqueid": "w18229945:a81753297", "current_trial": 21, "dateTime": 1664556329863, "trialdata": {"revealed_states": [], "num_clicks_accrued": [0, 0, 0, 0, 0, 0, 0, 0, 0, 0, 0, 0, 0], "stateRewards": ["", -4, -4, -48, 48, -4, -8, -24, -48, -2, 8, 48, 24], "withholdReward": false, "trial_id": "mdp_365393526663", "block": "test1", "trialIndex": 10, "score": -55.25, "costs": -0.25, "simulationMode": [null, null, null], "rewards": [-4, -8, -48], "path": ["0", "0", "5", "6", "8"], "rt": [2248, 26, 144], "actions": ["right", "right", "down"], "actionTimes": [3708, 4254, 4902], "queries": {"click": {"state": {"target": ["1"], "time": [2372]}, "edge": {"target": [], "time": []}}, "mouseover": {"state": {"target": ["1", "1", "5"], "time": [1922, 2147, 2568]}, "edge": {"target": [], "time": []}}, "mouseout": {"state": {"target": ["0", "1", "1"], "time": [1879, 2037, 2501]}, "edge": {"target": [], "time": []}}}, "displayed_time": "9.47", "trialTime": 11375, "trial_type": "mouselab-mdp", "trial_index": 21, "time_elapsed": 1336555, "internal_node_id": "0.0-4.0-1.0-6.0"}}, {"uniqueid": "w18229945:a81753297", "current_trial": 22, "dateTime": 1664556342263, "trialdata": {"revealed_states": [], "num_clicks_accrued": [0, 0, 0, 0, 0, 0, 0, 0, 0, 0, 0, 0, 0], "stateRewards": ["", -2, -4, -24, -48, -2, 8, -48, 24, 4, -4, -24, -24], "withholdReward": true, "trial_id": "mdp_915304165774", "block": "test1", "trialIndex": 11, "score": -37, "costs": 0, "simulationMode": [null, null, null], "rewards": [-2, 8, -48], "path": ["0", "0", "5", "6", "7"], "rt": [998, 12, 158], "actions": ["right", "right", "up"], "actionTimes": [2482, 3022, 3716], "queries": {"click": {"state": {"target": [], "time": []}, "edge": {"target": [], "time": []}}, "mouseover": {"state": {"target": [], "time": []}, "edge": {"target": [], "time": []}}, "mouseout": {"state": {"target": ["5"], "time": [608]}, "edge": {"target": [], "time": []}}}, "displayed_time": "10.49", "trialTime": 12044, "trial_type": "mouselab-mdp", "trial_index": 22, "time_elapsed": 1348955, "internal_node_id": "0.0-4.0-1.0-7.0"}}, {"uniqueid": "w18229945:a81753297", "current_trial": 23, "dateTime": 1664556353754, "trialdata": {"revealed_states": [], "num_clicks_accrued": [0, 0, 0, 0, 0, 0, 0, 0, 0, 0, 0, 0, 0], "stateRewards": ["", 4, -4, 48, 24, 2, -8, 24, -48, -2, -4, -48, -48], "withholdReward": true, "trial_id": "mdp_655302318695", "block": "test1", "trialIndex": 12, "score": 29, "costs": 0, "simulationMode": [null, null, null], "rewards": [4, -4, 24], "path": ["0", "0", "1", "2", "4"], "rt": [2196, 100, 11], "actions": ["up", "up", "left"], "actionTimes": [4162, 4790, 5337], "queries": {"click": {"state": {"target": [], "time": []}, "edge": {"target": [], "time": []}}, "mouseover": {"state": {"target": [], "time": []}, "edge": {"target": [], "time": []}}, "mouseout": {"state": {"target": [], "time": []}, "edge": {"target": [], "time": []}}}, "displayed_time": "9.97", "trialTime": 11133, "trial_type": "mouselab-mdp", "trial_index": 23, "time_elapsed": 1360446, "internal_node_id": "0.0-4.0-1.0-8.0"}}, {"uniqueid": "w18229945:a81753297", "current_trial": 24, "dateTime": 1664556365308, "trialdata": {"revealed_states": [], "num_clicks_accrued": [0, 0, 0, 0, 0, 0, 0, 0, 0, 0, 0, 0, 0], "stateRewards": ["", 4, 4, 24, -24, -4, -8, 48, -24, 4, 4, 48, 24], "withholdReward": true, "trial_id": "mdp_822446942217", "block": "test1", "trialIndex": 13, "score": 37, "costs": 0, "simulationMode": [null, null, null], "rewards": [4, 4, 24], "path": ["0", "0", "1", "2", "3"], "rt": [812, 135, 54], "actions": ["up", "up", "right"], "actionTimes": [2566, 3219, 3772], "queries": {"click": {"state": {"target": [], "time": []}, "edge": {"target": [], "time": []}}, "mouseover": {"state": {"target": [], "time": []}, "edge": {"target": [], "time": []}}, "mouseout": {"state": {"target": [], "time": []}, "edge": {"target": [], "time": []}}}, "displayed_time": "9.76", "trialTime": 11199, "trial_type": "mouselab-mdp", "trial_index": 24, "time_elapsed": 1372000, "internal_node_id": "0.0-4.0-1.0-9.0"}}, {"uniqueid": "w18229945:a81753297", "current_trial": 25, "dateTime": 1664556376677, "trialdata": {"revealed_states": [], "num_clicks_accrued": [0, 0, 0, 0, 0, 0, 0, 0, 0, 0, 0, 0, 0], "stateRewards": ["", 4, 8, -24, 48, 4, -8, -48, 48, -4, 8, -24, -48], "withholdReward": true, "trial_id": "mdp_376126356841", "block": "test1", "trialIndex": 14, "score": -39, "costs": 0, "simulationMode": [null, null, null], "rewards": [-4, 8, -48], "path": ["0", "0", "9", "10", "12"], "rt": [949, 60, 45], "actions": ["left", "left", "down"], "actionTimes": [2075, 2646, 3231], "queries": {"click": {"state": {"target": [], "time": []}, "edge": {"target": [], "time": []}}, "mouseover": {"state": {"target": [], "time": []}, "edge": {"target": [], "time": []}}, "mouseout": {"state": {"target": [], "time": []}, "edge": {"target": [], "time": []}}}, "displayed_time": "10.13", "trialTime": 11087, "trial_type": "mouselab-mdp", "trial_index": 25, "time_elapsed": 1383370, "internal_node_id": "0.0-4.0-1.0-10.0"}}, {"uniqueid": "w18229945:a81753297", "current_trial": 26, "dateTime": 1664556386413, "trialdata": {"revealed_states": [], "num_clicks_accrued": [0, 0, 0, 0, 0, 0, 0, 0, 0, 0, 0, 0, 0], "stateRewards": ["", -4, 4, -48, -48, -2, -8, -48, -24, 4, 8, -24, 24], "withholdReward": true, "trial_id": "mdp_449260894259", "block": "test1", "trialIndex": 15, "score": -7, "costs": 0, "simulationMode": [null, null, null], "rewards": [4, 8, -24], "path": ["0", "0", "9", "10", "11"], "rt": [1361, 263, 457], "actions": ["left", "left", "up"], "actionTimes": [2449, 3232, 4196], "queries": {"click": {"state": {"target": [], "time": []}, "edge": {"target": [], "time": []}}, "mouseover": {"state": {"target": [], "time": []}, "edge": {"target": [], "time": []}}, "mouseout": {"state": {"target": [], "time": []}, "edge": {"target": [], "time": []}}}, "displayed_time": "8.09", "trialTime": 9352, "trial_type": "mouselab-mdp", "trial_index": 26, "time_elapsed": 1393105, "internal_node_id": "0.0-4.0-1.0-11.0"}}, {"uniqueid": "w18229945:a81753297", "current_trial": 27, "dateTime": 1664556398113, "trialdata": {"revealed_states": [], "num_clicks_accrued": [0, 0, 0, 0, 0, 0, 0, 0, 0, 0, 0, 0, 0], "stateRewards": ["", 2, 8, 48, -48, -2, -4, -24, 24, 4, -4, 48, -48], "withholdReward": false, "trial_id": "mdp_105734044587", "block": "test1", "trialIndex": 16, "score": -25, "costs": 0, "simulationMode": [null, null, null], "rewards": [-2, -4, -24], "path": ["0", "0", "5", "6", "7"], "rt": [2350, 229, 121], "actions": ["right", "right", "up"], "actionTimes": [4054, 4788, 5411], "queries": {"click": {"state": {"target": [], "time": []}, "edge": {"target": [], "time": []}}, "mouseover": {"state": {"target": [], "time": []}, "edge": {"target": [], "time": []}}, "mouseout": {"state": {"target": [], "time": []}, "edge": {"target": [], "time": []}}}, "displayed_time": "9.71", "trialTime": 11310, "trial_type": "mouselab-mdp", "trial_index": 27, "time_elapsed": 1404805, "internal_node_id": "0.0-4.0-1.0-12.0"}}, {"uniqueid": "w18229945:a81753297", "current_trial": 28, "dateTime": 1664556410472, "trialdata": {"revealed_states": [], "num_clicks_accrued": [0, 0, 0, 0, 0, 0, 0, 0, 0, 0, 0, 0, 0], "stateRewards": ["", -4, -4, -24, -24, -2, 4, 48, -24, -2, -4, -24, 48], "withholdReward": true, "trial_id": "mdp_855903341564", "block": "test1", "trialIndex": 17, "score": -25, "costs": 0, "simulationMode": [null, null, null], "rewards": [-2, -4, -24], "path": ["0", "0", "9", "10", "11"], "rt": [796, 26, 156], "actions": ["left", "left", "up"], "actionTimes": [2641, 3177, 3841], "queries": {"click": {"state": {"target": [], "time": []}, "edge": {"target": [], "time": []}}, "mouseover": {"state": {"target": [], "time": []}, "edge": {"target": [], "time": []}}, "mouseout": {"state": {"target": [], "time": []}, "edge": {"target": [], "time": []}}}, "displayed_time": "10.85", "trialTime": 11929, "trial_type": "mouselab-mdp", "trial_index": 28, "time_elapsed": 1417164, "internal_node_id": "0.0-4.0-1.0-13.0"}}, {"uniqueid": "w18229945:a81753297", "current_trial": 29, "dateTime": 1664556423183, "trialdata": {"revealed_states": [], "num_clicks_accrued": [0, 0, 0, 0, 0, 0, 0, 0, 0, 0, 0, 0, 0], "stateRewards": ["", 4, -4, 48, -48, 4, -4, 24, -24, 4, 8, -24, -48], "withholdReward": true, "trial_id": "mdp_433630527224", "block": "test1", "trialIndex": 18, "score": -31.25, "costs": -0.25, "simulationMode": [null, null, null], "rewards": [4, 8, -48], "path": ["0", "0", "9", "10", "12"], "rt": [1873, 140, 89], "actions": ["left", "left", "down"], "actionTimes": [4003, 4653, 5251], "queries": {"click": {"state": {"target": ["9"], "time": [3058]}, "edge": {"target": [], "time": []}}, "mouseover": {"state": {"target": ["9", "0"], "time": [2875, 3174]}, "edge": {"target": [], "time": []}}, "mouseout": {"state": {"target": ["0", "9", "0"], "time": [2603, 3128, 3209]}, "edge": {"target": [], "time": []}}}, "displayed_time": "11.13", "trialTime": 12268, "trial_type": "mouselab-mdp", "trial_index": 29, "time_elapsed": 1429875, "internal_node_id": "0.0-4.0-1.0-14.0"}}, {"uniqueid": "w18229945:a81753297", "current_trial": 30, "dateTime": 1664556436676, "trialdata": {"revealed_states": [], "num_clicks_accrued": [0, 0, 0, 0, 0, 0, 0, 0, 0, 0, 0, 0, 0], "stateRewards": ["", 4, 8, -48, -48, 2, 4, -24, -48, 2, 8, 48, -48], "withholdReward": false, "trial_id": "mdp_902172716465", "block": "test1", "trialIndex": 19, "score": -31, "costs": 0, "simulationMode": [null, null, null], "rewards": [4, 8, -48], "path": ["0", "0", "1", "2", "4"], "rt": [817, 189, 129], "actions": ["up", "up", "left"], "actionTimes": [3521, 4220, 4854], "queries": {"click": {"state": {"target": [], "time": []}, "edge": {"target": [], "time": []}}, "mouseover": {"state": {"target": [], "time": []}, "edge": {"target": [], "time": []}}, "mouseout": {"state": {"target": [], "time": []}, "edge": {"target": [], "time": []}}}, "displayed_time": "11.71", "trialTime": 13063, "trial_type": "mouselab-mdp", "trial_index": 30, "time_elapsed": 1443369, "internal_node_id": "0.0-4.0-1.0-15.0"}}, {"uniqueid": "w18229945:a81753297", "current_trial": 31, "dateTime": 1664556451948, "trialdata": {"revealed_states": [], "num_clicks_accrued": [0, 0, 0, 0, 0, 0, 0, 0, 0, 0, 0, 0, 0], "stateRewards": ["", -2, -8, 24, -48, -4, 8, -48, -24, 4, 8, -24, 24], "withholdReward": true, "trial_id": "mdp_940444641142", "block": "test1", "trialIndex": 20, "score": -7.25, "costs": -0.25, "simulationMode": [null, null, null], "rewards": [4, 8, -24], "path": ["0", "0", "9", "10", "11"], "rt": [3800, 97, 7], "actions": ["left", "left", "up"], "actionTimes": [6775, 7402, 7909], "queries": {"click": {"state": {"target": ["5"], "time": [5638]}, "edge": {"target": [], "time": []}}, "mouseover": {"state": {"target": ["5"], "time": [5145]}, "edge": {"target": [], "time": []}}, "mouseout": {"state": {"target": ["0"], "time": [2249]}, "edge": {"target": [], "time": []}}}, "displayed_time": "11.98", "trialTime": 14843, "trial_type": "mouselab-mdp", "trial_index": 31, "time_elapsed": 1458640, "internal_node_id": "0.0-4.0-1.0-16.0"}}, {"uniqueid": "w18229945:a81753297", "current_trial": 32, "dateTime": 1664556464554, "trialdata": {"revealed_states": [], "num_clicks_accrued": [0, 0, 0, 0, 0, 0, 0, 0, 0, 0, 0, 0, 0], "stateRewards": ["", 2, -8, 24, 24, 4, -4, -24, -48, 4, 8, 24, 24], "withholdReward": false, "trial_id": "mdp_249803813713", "block": "test1", "trialIndex": 21, "score": 22.75, "costs": -0.25, "simulationMode": [null, null, null], "rewards": [2, -8, 24], "path": ["0", "0", "1", "2", "3"], "rt": [2731, 111, 911], "actions": ["up", "up", "right"], "actionTimes": [4894, 5519, 6937], "queries": {"click": {"state": {"target": ["1"], "time": [3885]}, "edge": {"target": [], "time": []}}, "mouseover": {"state": {"target": ["0", "1"], "time": [2406, 3603]}, "edge": {"target": [], "time": []}}, "mouseout": {"state": {"target": ["5", "0", "0", "0", "1"], "time": [1350, 1386, 1648, 3340, 4034]}, "edge": {"target": [], "time": []}}}, "displayed_time": "11.17", "trialTime": 12171, "trial_type": "mouselab-mdp", "trial_index": 32, "time_elapsed": 1471247, "internal_node_id": "0.0-4.0-1.0-17.0"}}, {"uniqueid": "w18229945:a81753297", "current_trial": 33, "dateTime": 1664556475425, "trialdata": {"revealed_states": [], "num_clicks_accrued": [0, 0, 0, 0, 0, 0, 0, 0, 0, 0, 0, 0, 0], "stateRewards": ["", 4, 4, -24, -48, 2, 4, 24, -48, 2, 4, 24, 24], "withholdReward": true, "trial_id": "mdp_223558518218", "block": "test1", "trialIndex": 22, "score": -11.25, "costs": -0.25, "simulationMode": [null, null, null], "rewards": [4, 4, -24], "path": ["0", "0", "1", "2", "3"], "rt": [1770, 143, 78], "actions": ["up", "up", "right"], "actionTimes": [3095, 3744, 4326], "queries": {"click": {"state": {"target": ["1"], "time": [2039]}, "edge": {"target": [], "time": []}}, "mouseover": {"state": {"target": ["1"], "time": [1860]}, "edge": {"target": [], "time": []}}, "mouseout": {"state": {"target": ["0", "1"], "time": [1356, 2277]}, "edge": {"target": [], "time": []}}}, "displayed_time": "9.33", "trialTime": 10434, "trial_type": "mouselab-mdp", "trial_index": 33, "time_elapsed": 1482117, "internal_node_id": "0.0-4.0-1.0-18.0"}}, {"uniqueid": "w18229945:a81753297", "current_trial": 34, "dateTime": 1664556486066, "trialdata": {"revealed_states": [], "num_clicks_accrued": [0, 0, 0, 0, 0, 0, 0, 0, 0, 0, 0, 0, 0], "stateRewards": ["", -4, -8, -24, -48, -2, -8, 24, -48, -4, -8, 24, -48], "withholdReward": true, "trial_id": "mdp_621812384092", "block": "test1", "trialIndex": 23, "score": -53, "costs": 0, "simulationMode": [null, null, null], "rewards": [-2, -8, -48], "path": ["0", "0", "5", "6", "8"], "rt": [1272, 267, 395], "actions": ["right", "right", "down"], "actionTimes": [2488, 3271, 4178], "queries": {"click": {"state": {"target": [], "time": []}, "edge": {"target": [], "time": []}}, "mouseover": {"state": {"target": [], "time": []}, "edge": {"target": [], "time": []}}, "mouseout": {"state": {"target": [], "time": []}, "edge": {"target": [], "time": []}}}, "displayed_time": "9.22", "trialTime": 10194, "trial_type": "mouselab-mdp", "trial_index": 34, "time_elapsed": 1492759, "internal_node_id": "0.0-4.0-1.0-19.0"}}, {"uniqueid": "w18229945:a81753297", "current_trial": 35, "dateTime": 1664556496656, "trialdata": {"revealed_states": [], "num_clicks_accrued": [0, 0, 0, 0, 0, 0, 0, 0, 0, 0, 0, 0, 0], "stateRewards": ["", -2, -4, -24, 24, -2, 4, -24, -24, -4, 4, 24, -24], "withholdReward": true, "trial_id": "mdp_999419261719", "block": "test1", "trialIndex": 24, "score": 23, "costs": 0, "simulationMode": [null, null, null], "rewards": [-2, -4, 24], "path": ["0", "0", "1", "2", "4"], "rt": [1453, 108, 14], "actions": ["up", "up", "left"], "actionTimes": [2486, 3115, 3638], "queries": {"click": {"state": {"target": [], "time": []}, "edge": {"target": [], "time": []}}, "mouseover": {"state": {"target": [], "time": []}, "edge": {"target": [], "time": []}}, "mouseout": {"state": {"target": [], "time": []}, "edge": {"target": [], "time": []}}}, "displayed_time": "9.03", "trialTime": 10169, "trial_type": "mouselab-mdp", "trial_index": 35, "time_elapsed": 1503348, "internal_node_id": "0.0-4.0-1.0-20.0"}}, {"uniqueid": "w18229945:a81753297", "current_trial": 36, "dateTime": 1664556508834, "trialdata": {"revealed_states": [], "num_clicks_accrued": [0, 0, 0, 0, 0, 0, 0, 0, 0, 0, 0, 0, 0], "stateRewards": ["", -4, 8, -24, 24, -2, -8, 24, -24, 4, -4, -48, 48], "withholdReward": true, "trial_id": "mdp_297684722007", "block": "test1", "trialIndex": 25, "score": 19, "costs": 0, "simulationMode": [null, null, null], "rewards": [-2, -8, 24], "path": ["0", "0", "5", "6", "7"], "rt": [780, 37, 17], "actions": ["right", "right", "up"], "actionTimes": [2763, 3309, 3869], "queries": {"click": {"state": {"target": [], "time": []}, "edge": {"target": [], "time": []}}, "mouseover": {"state": {"target": [], "time": []}, "edge": {"target": [], "time": []}}, "mouseout": {"state": {"target": [], "time": []}, "edge": {"target": [], "time": []}}}, "displayed_time": "10.98", "trialTime": 11695, "trial_type": "mouselab-mdp", "trial_index": 36, "time_elapsed": 1515527, "internal_node_id": "0.0-4.0-1.0-21.0"}}, {"uniqueid": "w18229945:a81753297", "current_trial": 37, "dateTime": 1664556521886, "trialdata": {"revealed_states": [], "num_clicks_accrued": [0, 0, 0, 0, 0, 0, 0, 0, 0, 0, 0, 0, 0], "stateRewards": ["", -4, 8, 24, 24, 2, 4, -48, 24, -2, -4, -24, -24], "withholdReward": true, "trial_id": "mdp_752328329546", "block": "test1", "trialIndex": 26, "score": -25, "costs": 0, "simulationMode": [null, null, null], "rewards": [-2, -4, -24], "path": ["0", "0", "9", "10", "11"], "rt": [961, 74, 575], "actions": ["left", "left", "up"], "actionTimes": [2650, 3225, 4310], "queries": {"click": {"state": {"target": [], "time": []}, "edge": {"target": [], "time": []}}, "mouseover": {"state": {"target": [], "time": []}, "edge": {"target": [], "time": []}}, "mouseout": {"state": {"target": [], "time": []}, "edge": {"target": [], "time": []}}}, "displayed_time": "11.70", "trialTime": 12613, "trial_type": "mouselab-mdp", "trial_index": 37, "time_elapsed": 1528579, "internal_node_id": "0.0-4.0-1.0-22.0"}}, {"uniqueid": "w18229945:a81753297", "current_trial": 38, "dateTime": 1664556534145, "trialdata": {"revealed_states": [], "num_clicks_accrued": [0, 0, 0, 0, 0, 0, 0, 0, 0, 0, 0, 0, 0], "stateRewards": ["", 2, 8, -48, -24, 4, 4, 24, 48, 4, -4, -48, 48], "withholdReward": true, "trial_id": "mdp_665096999232", "block": "test1", "trialIndex": 27, "score": 61, "costs": 0, "simulationMode": [null, null, null], "rewards": [4, 4, 48], "path": ["0", "0", "5", "6", "8"], "rt": [747, 155, 18], "actions": ["right", "right", "down"], "actionTimes": [2679, 3344, 3892], "queries": {"click": {"state": {"target": [], "time": []}, "edge": {"target": [], "time": []}}, "mouseover": {"state": {"target": [], "time": []}, "edge": {"target": [], "time": []}}, "mouseout": {"state": {"target": [], "time": []}, "edge": {"target": [], "time": []}}}, "displayed_time": "10.93", "trialTime": 11860, "trial_type": "mouselab-mdp", "trial_index": 38, "time_elapsed": 1540837, "internal_node_id": "0.0-4.0-1.0-23.0"}}, {"uniqueid": "w18229945:a81753297", "current_trial": 39, "dateTime": 1664556545964, "trialdata": {"revealed_states": [], "num_clicks_accrued": [0, 0, 0, 0, 0, 0, 0, 0, 0, 0, 0, 0, 0], "stateRewards": ["", -2, 8, 48, -48, 4, -8, 24, 24, 4, 4, -48, -24], "withholdReward": true, "trial_id": "mdp_746937869927", "block": "test1", "trialIndex": 28, "score": 24.75, "costs": -0.25, "simulationMode": [null, null, null], "rewards": [4, -8, 24], "path": ["0", "0", "5", "6", "7"], "rt": [2328, 98, 114], "actions": ["right", "right", "up"], "actionTimes": [3521, 4127, 4743], "queries": {"click": {"state": {"target": ["5"], "time": [2658]}, "edge": {"target": [], "time": []}}, "mouseover": {"state": {"target": ["6", "5", "6"], "time": [2197, 2475, 2749]}, "edge": {"target": [], "time": []}}, "mouseout": {"state": {"target": ["0", "6", "5", "6"], "time": [1843, 2374, 2742, 2780]}, "edge": {"target": [], "time": []}}}, "displayed_time": "10.20", "trialTime": 11335, "trial_type": "mouselab-mdp", "trial_index": 39, "time_elapsed": 1552656, "internal_node_id": "0.0-4.0-1.0-24.0"}}, {"uniqueid": "w18229945:a81753297", "current_trial": 40, "dateTime": 1664556559037, "trialdata": {"revealed_states": [], "num_clicks_accrued": [0, 0, 0, 0, 0, 0, 0, 0, 0, 0, 0, 0, 0], "stateRewards": ["", 4, 4, -48, -24, -2, -4, 48, 24, -4, 4, 24, -48], "withholdReward": true, "trial_id": "mdp_617383046444", "block": "test1", "trialIndex": 29, "score": 47, "costs": 0, "simulationMode": [null, null, null], "rewards": [-2, -4, 48], "path": ["0", "0", "5", "6", "7"], "rt": [752, 26, 72], "actions": ["right", "right", "up"], "actionTimes": [3498, 4037, 4617], "queries": {"click": {"state": {"target": [], "time": []}, "edge": {"target": [], "time": []}}, "mouseover": {"state": {"target": [], "time": []}, "edge": {"target": [], "time": []}}, "mouseout": {"state": {"target": ["0"], "time": [1690]}, "edge": {"target": [], "time": []}}}, "displayed_time": "11.75", "trialTime": 12558, "trial_type": "mouselab-mdp", "trial_index": 40, "time_elapsed": 1565728, "internal_node_id": "0.0-4.0-1.0-25.0"}}, {"uniqueid": "w18229945:a81753297", "current_trial": 41, "dateTime": 1664556571010, "trialdata": {"revealed_states": [], "num_clicks_accrued": [0, 0, 0, 0, 0, 0, 0, 0, 0, 0, 0, 0, 0], "stateRewards": ["", -2, -4, -24, -24, 4, 8, 24, 24, -2, 8, 48, 48], "withholdReward": true, "trial_id": "mdp_620787912291", "block": "test1", "trialIndex": 30, "score": -25.25, "costs": -0.25, "simulationMode": [null, null, null], "rewards": [-2, -4, -24], "path": ["0", "0", "1", "2", "4"], "rt": [1974, 91, 378], "actions": ["up", "up", "left"], "actionTimes": [3417, 4016, 4904], "queries": {"click": {"state": {"target": ["9"], "time": [2171]}, "edge": {"target": [], "time": []}}, "mouseover": {"state": {"target": ["9"], "time": [2003]}, "edge": {"target": [], "time": []}}, "mouseout": {"state": {"target": ["0", "9"], "time": [1169, 2286]}, "edge": {"target": [], "time": []}}}, "displayed_time": "10.45", "trialTime": 11564, "trial_type": "mouselab-mdp", "trial_index": 41, "time_elapsed": 1577702, "internal_node_id": "0.0-4.0-1.0-26.0"}}, {"uniqueid": "w18229945:a81753297", "current_trial": 42, "dateTime": 1664556583209, "trialdata": {"revealed_states": [], "num_clicks_accrued": [0, 0, 0, 0, 0, 0, 0, 0, 0, 0, 0, 0, 0], "stateRewards": ["", 2, -4, -24, -24, -2, -8, -48, 24, -4, -8, 24, 24], "withholdReward": true, "trial_id": "mdp_521351546461", "block": "test1", "trialIndex": 31, "score": 19, "costs": 0, "simulationMode": [null, null, null], "rewards": [-2, -8, 24], "path": ["0", "0", "5", "6", "8"], "rt": [588, 164, 7], "actions": ["right", "right", "down"], "actionTimes": [2699, 3373, 3884], "queries": {"click": {"state": {"target": [], "time": []}, "edge": {"target": [], "time": []}}, "mouseover": {"state": {"target": [], "time": []}, "edge": {"target": [], "time": []}}, "mouseout": {"state": {"target": [], "time": []}, "edge": {"target": [], "time": []}}}, "displayed_time": "11.11", "trialTime": 11716, "trial_type": "mouselab-mdp", "trial_index": 42, "time_elapsed": 1589902, "internal_node_id": "0.0-4.0-1.0-27.0"}}, {"uniqueid": "w18229945:a81753297", "current_trial": 43, "dateTime": 1664556595621, "trialdata": {"revealed_states": [], "num_clicks_accrued": [0, 0, 0, 0, 0, 0, 0, 0, 0, 0, 0, 0, 0], "stateRewards": ["", 4, -8, -24, 48, -4, 8, -24, -48, -4, -4, 24, 48], "withholdReward": true, "trial_id": "mdp_282352776624", "block": "test1", "trialIndex": 32, "score": 20.75, "costs": -0.25, "simulationMode": [null, null, null], "rewards": [-4, -4, 24], "path": ["0", "0", "9", "10", "11"], "rt": [2184, 19, 93], "actions": ["left", "left", "up"], "actionTimes": [4033, 4563, 5169], "queries": {"click": {"state": {"target": ["5"], "time": [3119]}, "edge": {"target": [], "time": []}}, "mouseover": {"state": {"target": ["5", "5"], "time": [2408, 2931]}, "edge": {"target": [], "time": []}}, "mouseout": {"state": {"target": ["0", "5", "5"], "time": [2223, 2552, 3243]}, "edge": {"target": [], "time": []}}}, "displayed_time": "9.85", "trialTime": 11957, "trial_type": "mouselab-mdp", "trial_index": 43, "time_elapsed": 1602311, "internal_node_id": "0.0-4.0-1.0-28.0"}}, {"uniqueid": "w18229945:a81753297", "current_trial": 44, "dateTime": 1664556607513, "trialdata": {"revealed_states": [], "num_clicks_accrued": [0, 0, 0, 0, 0, 0, 0, 0, 0, 0, 0, 0, 0], "stateRewards": ["", 2, 4, -48, -48, 2, 4, 48, -24, -2, 8, 48, -48], "withholdReward": true, "trial_id": "mdp_258528916140", "block": "test1", "trialIndex": 33, "score": -37, "costs": 0, "simulationMode": [null, null, null], "rewards": [2, 4, -48], "path": ["0", "0", "1", "2", "3"], "rt": [742, 60, 10], "actions": ["up", "up", "right"], "actionTimes": [1978, 2545, 3059], "queries": {"click": {"state": {"target": [], "time": []}, "edge": {"target": [], "time": []}}, "mouseover": {"state": {"target": [], "time": []}, "edge": {"target": [], "time": []}}, "mouseout": {"state": {"target": ["5"], "time": [593]}, "edge": {"target": [], "time": []}}}, "displayed_time": "10.24", "trialTime": 11241, "trial_type": "mouselab-mdp", "trial_index": 44, "time_elapsed": 1614204, "internal_node_id": "0.0-4.0-1.0-29.0"}}, {"uniqueid": "w18229945:a81753297", "current_trial": 45, "dateTime": 1664556620338, "trialdata": {"rt": 12789, "stimulus": "<h1> End of block! </h1>\n\nYou have reached the end of the block 1/4. If you need a short break, feel free to take one now before moving on.\n\n<br><br>\nIn the next block, you will complete another 30 rounds of this game.\n\n<br><br>\n<div style='text-align: center;'>Press <code>space</code> to begin.</div>\n<br><br>\n<div style='text-align: center;'>(If the experiment doesn't continue, try clicking on the text and then pressing <code>space</code>.)</div>", "response": " ", "trial_id": "mdp_ready_2", "trial_type": "html-keyboard-response", "trial_index": 45, "time_elapsed": 1627030, "internal_node_id": "0.0-4.0-2.0"}}, {"uniqueid": "w18229945:a81753297", "current_trial": 46, "dateTime": 1664556634783, "trialdata": {"revealed_states": [], "num_clicks_accrued": [0, 0, 0, 0, 0, 0, 0, 0, 0, 0, 0, 0, 0], "stateRewards": ["", -2, -4, -24, 48, -4, 8, 48, 48, 2, 8, -48, -24], "withholdReward": false, "trial_id": "mdp_136376573354", "block": "test2", "trialIndex": 34, "score": -9.25, "costs": -0.25, "simulationMode": [null, null, null], "rewards": [2, 8, -24], "path": ["0", "0", "9", "10", "12"], "rt": [1950, 80, 248], "actions": ["left", "left", "down"], "actionTimes": [3908, 4500, 5259], "queries": {"click": {"state": {"target": ["9"], "time": [2957]}, "edge": {"target": [], "time": []}}, "mouseover": {"state": {"target": ["9"], "time": [2750]}, "edge": {"target": [], "time": []}}, "mouseout": {"state": {"target": ["5", "0", "9", "0", "9"], "time": [751, 2482, 3050, 10032, 10098]}, "edge": {"target": [], "time": []}}}, "displayed_time": "10.96", "trialTime": 13979, "trial_type": "mouselab-mdp", "trial_index": 46, "time_elapsed": 1641475, "internal_node_id": "0.0-4.0-3.0-0.0"}}, {"uniqueid": "w18229945:a81753297", "current_trial": 47, "dateTime": 1664556646557, "trialdata": {"revealed_states": [], "num_clicks_accrued": [0, 0, 0, 0, 0, 0, 0, 0, 0, 0, 0, 0, 0], "stateRewards": ["", 4, 8, -24, 48, -2, -4, 24, -24, -2, 4, 24, 24], "withholdReward": false, "trial_id": "mdp_948713805479", "block": "test2", "trialIndex": 35, "score": -7, "costs": 0, "simulationMode": [null, null, null], "rewards": [4, 8, -24], "path": ["0", "0", "1", "2", "3"], "rt": [864, 20, 59], "actions": ["up", "up", "right"], "actionTimes": [2959, 3534, 4117], "queries": {"click": {"state": {"target": [], "time": []}, "edge": {"target": [], "time": []}}, "mouseover": {"state": {"target": [], "time": []}, "edge": {"target": [], "time": []}}, "mouseout": {"state": {"target": ["8", "5", "0"], "time": [1151, 1231, 5586]}, "edge": {"target": [], "time": []}}}, "displayed_time": "10.10", "trialTime": 11291, "trial_type": "mouselab-mdp", "trial_index": 47, "time_elapsed": 1653250, "internal_node_id": "0.0-4.0-3.0-1.0"}}, {"uniqueid": "w18229945:a81753297", "current_trial": 48, "dateTime": 1664556659195, "trialdata": {"revealed_states": [], "num_clicks_accrued": [0, 0, 0, 0, 0, 0, 0, 0, 0, 0, 0, 0, 0], "stateRewards": ["", -2, -8, -48, 24, 2, -4, -48, 48, 2, 4, 24, -24], "withholdReward": true, "trial_id": "mdp_849341543762", "block": "test2", "trialIndex": 36, "score": 50.75, "costs": -0.25, "simulationMode": [null, null, null], "rewards": [2, -4, 48], "path": ["0", "0", "5", "6", "8"], "rt": [1608, 86, 58], "actions": ["right", "right", "down"], "actionTimes": [3556, 4146, 4718], "queries": {"click": {"state": {"target": ["5"], "time": [2574]}, "edge": {"target": [], "time": []}}, "mouseover": {"state": {"target": ["5"], "time": [2444]}, "edge": {"target": [], "time": []}}, "mouseout": {"state": {"target": ["0", "7", "7", "0", "0", "5"], "time": [474, 521, 736, 1037, 1983, 2722]}, "edge": {"target": [], "time": []}}}, "displayed_time": "10.95", "trialTime": 12131, "trial_type": "mouselab-mdp", "trial_index": 48, "time_elapsed": 1665887, "internal_node_id": "0.0-4.0-3.0-2.0"}}, {"uniqueid": "w18229945:a81753297", "current_trial": 49, "dateTime": 1664556671799, "trialdata": {"revealed_states": [], "num_clicks_accrued": [0, 0, 0, 0, 0, 0, 0, 0, 0, 0, 0, 0, 0], "stateRewards": ["", -4, 8, -24, -24, 2, 4, 48, 48, -2, 4, 24, -48], "withholdReward": true, "trial_id": "mdp_397308196941", "block": "test2", "trialIndex": 37, "score": -41, "costs": 0, "simulationMode": [null, null, null], "rewards": [-2, 4, -48], "path": ["0", "0", "9", "10", "12"], "rt": [768, 519, 138], "actions": ["left", "left", "down"], "actionTimes": [2991, 4032, 4685], "queries": {"click": {"state": {"target": [], "time": []}, "edge": {"target": [], "time": []}}, "mouseover": {"state": {"target": [], "time": []}, "edge": {"target": [], "time": []}}, "mouseout": {"state": {"target": ["0"], "time": [1086]}, "edge": {"target": [], "time": []}}}, "displayed_time": "11.22", "trialTime": 12102, "trial_type": "mouselab-mdp", "trial_index": 49, "time_elapsed": 1678491, "internal_node_id": "0.0-4.0-3.0-3.0"}}, {"uniqueid": "w18229945:a81753297", "current_trial": 50, "dateTime": 1664556687194, "trialdata": {"revealed_states": [], "num_clicks_accrued": [0, 0, 0, 0, 0, 0, 0, 0, 0, 0, 0, 0, 0], "stateRewards": ["", -4, -4, -24, -48, -4, 8, -24, -48, 4, -8, 24, -24], "withholdReward": false, "trial_id": "mdp_924927483179", "block": "test2", "trialIndex": 38, "score": -51, "costs": 0, "simulationMode": [null, null, null], "rewards": [-4, -4, -48], "path": ["0", "0", "1", "2", "4"], "rt": [839, 56, 59], "actions": ["up", "up", "left"], "actionTimes": [2364, 2925, 3495], "queries": {"click": {"state": {"target": [], "time": []}, "edge": {"target": [], "time": []}}, "mouseover": {"state": {"target": [], "time": []}, "edge": {"target": [], "time": []}}, "mouseout": {"state": {"target": ["0"], "time": [11666]}, "edge": {"target": [], "time": []}}}, "displayed_time": "10.53", "trialTime": 14908, "trial_type": "mouselab-mdp", "trial_index": 50, "time_elapsed": 1693887, "internal_node_id": "0.0-4.0-3.0-4.0"}}, {"uniqueid": "w18229945:a81753297", "current_trial": 51, "dateTime": 1664556704564, "trialdata": {"revealed_states": [], "num_clicks_accrued": [0, 0, 0, 0, 0, 0, 0, 0, 0, 0, 0, 0, 0], "stateRewards": ["", 2, 4, -48, 24, -4, 4, -24, 48, -2, -8, -48, 48], "withholdReward": true, "trial_id": "mdp_424193661731", "block": "test2", "trialIndex": 39, "score": -53.25, "costs": -0.25, "simulationMode": [null, null, null], "rewards": [-2, -8, -48], "path": ["0", "0", "9", "10", "11"], "rt": [1949, 114, 28], "actions": ["left", "left", "up"], "actionTimes": [4949, 5571, 6102], "queries": {"click": {"state": {"target": ["5"], "time": [3856]}, "edge": {"target": [], "time": []}}, "mouseover": {"state": {"target": ["5", "8"], "time": [3667, 4068]}, "edge": {"target": [], "time": []}}, "mouseout": {"state": {"target": ["5", "0", "5", "8", "0"], "time": [1650, 3461, 4002, 15765, 16120]}, "edge": {"target": [], "time": []}}}, "displayed_time": "12.00", "trialTime": 16881, "trial_type": "mouselab-mdp", "trial_index": 51, "time_elapsed": 1711257, "internal_node_id": "0.0-4.0-3.0-5.0"}}, {"uniqueid": "w18229945:a81753297", "current_trial": 52, "dateTime": 1664556717468, "trialdata": {"revealed_states": [], "num_clicks_accrued": [0, 0, 0, 0, 0, 0, 0, 0, 0, 0, 0, 0, 0], "stateRewards": ["", 2, -4, 48, -48, -2, 8, -48, 24, -2, -8, 48, 48], "withholdReward": true, "trial_id": "mdp_949326095747", "block": "test2", "trialIndex": 40, "score": 51, "costs": 0, "simulationMode": [null, null, null], "rewards": [2, -4, 48], "path": ["0", "0", "1", "2", "3"], "rt": [953, 37, 94], "actions": ["up", "up", "right"], "actionTimes": [3142, 3710, 4363], "queries": {"click": {"state": {"target": [], "time": []}, "edge": {"target": [], "time": []}}, "mouseover": {"state": {"target": [], "time": []}, "edge": {"target": [], "time": []}}, "mouseout": {"state": {"target": ["5", "7", "5", "0"], "time": [867, 1117, 1215, 10367]}, "edge": {"target": [], "time": []}}}, "displayed_time": "11.19", "trialTime": 12301, "trial_type": "mouselab-mdp", "trial_index": 52, "time_elapsed": 1724161, "internal_node_id": "0.0-4.0-3.0-6.0"}}, {"uniqueid": "w18229945:a81753297", "current_trial": 53, "dateTime": 1664556728104, "trialdata": {"revealed_states": [], "num_clicks_accrued": [0, 0, 0, 0, 0, 0, 0, 0, 0, 0, 0, 0, 0], "stateRewards": ["", -2, 4, -48, 24, -4, 8, 48, 24, -2, 4, -48, -24], "withholdReward": true, "trial_id": "mdp_740882974347", "block": "test2", "trialIndex": 41, "score": -41, "costs": 0, "simulationMode": [null, null, null], "rewards": [-2, 4, -48], "path": ["0", "0", "9", "10", "11"], "rt": [792, 85, 1161], "actions": ["left", "left", "up"], "actionTimes": [2046, 2646, 4321], "queries": {"click": {"state": {"target": [], "time": []}, "edge": {"target": [], "time": []}}, "mouseover": {"state": {"target": [], "time": []}, "edge": {"target": [], "time": []}}, "mouseout": {"state": {"target": [], "time": []}, "edge": {"target": [], "time": []}}}, "displayed_time": "9.25", "trialTime": 10158, "trial_type": "mouselab-mdp", "trial_index": 53, "time_elapsed": 1734797, "internal_node_id": "0.0-4.0-3.0-7.0"}}, {"uniqueid": "w18229945:a81753297", "current_trial": 54, "dateTime": 1664556741362, "trialdata": {"revealed_states": [], "num_clicks_accrued": [0, 0, 0, 0, 0, 0, 0, 0, 0, 0, 0, 0, 0], "stateRewards": ["", -2, -4, 48, 48, 2, 4, -48, 24, 4, -8, 24, -24], "withholdReward": true, "trial_id": "mdp_628613319495", "block": "test2", "trialIndex": 42, "score": 25, "costs": 0, "simulationMode": [null, null, null], "rewards": [4, -8, 24], "path": ["0", "0", "9", "10", "11"], "rt": [756, 525, 35], "actions": ["left", "left", "up"], "actionTimes": [2406, 3457, 4045], "queries": {"click": {"state": {"target": [], "time": []}, "edge": {"target": [], "time": []}}, "mouseover": {"state": {"target": [], "time": []}, "edge": {"target": [], "time": []}}, "mouseout": {"state": {"target": [], "time": []}, "edge": {"target": [], "time": []}}}, "displayed_time": "11.65", "trialTime": 12746, "trial_type": "mouselab-mdp", "trial_index": 54, "time_elapsed": 1748055, "internal_node_id": "0.0-4.0-3.0-8.0"}}, {"uniqueid": "w18229945:a81753297", "current_trial": 55, "dateTime": 1664556751539, "trialdata": {"revealed_states": [], "num_clicks_accrued": [0, 0, 0, 0, 0, 0, 0, 0, 0, 0, 0, 0, 0], "stateRewards": ["", 4, -4, 48, 24, 2, -8, 24, -48, -2, -4, -48, -48], "withholdReward": true, "trial_id": "mdp_655302318695", "block": "test2", "trialIndex": 43, "score": -49, "costs": 0, "simulationMode": [null, null, null], "rewards": [2, -8, -48], "path": ["0", "0", "5", "6", "8"], "rt": [774, 100, 142], "actions": ["right", "right", "down"], "actionTimes": [1611, 2237, 2880], "queries": {"click": {"state": {"target": [], "time": []}, "edge": {"target": [], "time": []}}, "mouseover": {"state": {"target": [], "time": []}, "edge": {"target": [], "time": []}}, "mouseout": {"state": {"target": [], "time": []}, "edge": {"target": [], "time": []}}}, "displayed_time": "8.84", "trialTime": 9737, "trial_type": "mouselab-mdp", "trial_index": 55, "time_elapsed": 1758231, "internal_node_id": "0.0-4.0-3.0-9.0"}}, {"uniqueid": "w18229945:a81753297", "current_trial": 56, "dateTime": 1664556761133, "trialdata": {"revealed_states": [], "num_clicks_accrued": [0, 0, 0, 0, 0, 0, 0, 0, 0, 0, 0, 0, 0], "stateRewards": ["", -4, -8, -24, 24, 4, 4, -48, -48, -4, -4, 24, -48], "withholdReward": true, "trial_id": "mdp_431592223624", "block": "test2", "trialIndex": 44, "score": -35.25, "costs": -0.25, "simulationMode": [null, null, null], "rewards": [4, 4, -48], "path": ["0", "0", "5", "6", "7"], "rt": [2167, 453, 358], "actions": ["right", "right", "up"], "actionTimes": [3222, 4202, 5074], "queries": {"click": {"state": {"target": ["1"], "time": [2241]}, "edge": {"target": [], "time": []}}, "mouseover": {"state": {"target": ["9", "4", "2", "1", "6"], "time": [1585, 1659, 1744, 1862, 2412]}, "edge": {"target": [], "time": []}}, "mouseout": {"state": {"target": ["0", "9", "4", "2", "1", "6"], "time": [1577, 1611, 1696, 1826, 2360, 2443]}, "edge": {"target": [], "time": []}}}, "displayed_time": "8.05", "trialTime": 9159, "trial_type": "mouselab-mdp", "trial_index": 56, "time_elapsed": 1767826, "internal_node_id": "0.0-4.0-3.0-10.0"}}, {"uniqueid": "w18229945:a81753297", "current_trial": 57, "dateTime": 1664556773503, "trialdata": {"revealed_states": [], "num_clicks_accrued": [0, 0, 0, 0, 0, 0, 0, 0, 0, 0, 0, 0, 0], "stateRewards": ["", -2, -4, 48, -24, 2, -4, -24, -48, 2, 8, -48, -24], "withholdReward": true, "trial_id": "mdp_238243948191", "block": "test2", "trialIndex": 45, "score": -9, "costs": 0, "simulationMode": [null, null, null], "rewards": [2, 8, -24], "path": ["0", "0", "9", "10", "12"], "rt": [928, 133, 300], "actions": ["left", "left", "down"], "actionTimes": [3123, 3762, 4576], "queries": {"click": {"state": {"target": [], "time": []}, "edge": {"target": [], "time": []}}, "mouseover": {"state": {"target": [], "time": []}, "edge": {"target": [], "time": []}}, "mouseout": {"state": {"target": ["1"], "time": [1488]}, "edge": {"target": [], "time": []}}}, "displayed_time": "11.20", "trialTime": 11944, "trial_type": "mouselab-mdp", "trial_index": 57, "time_elapsed": 1780196, "internal_node_id": "0.0-4.0-3.0-11.0"}}, {"uniqueid": "w18229945:a81753297", "current_trial": 58, "dateTime": 1664556784713, "trialdata": {"revealed_states": [], "num_clicks_accrued": [0, 0, 0, 0, 0, 0, 0, 0, 0, 0, 0, 0, 0], "stateRewards": ["", 2, 8, 48, 24, -4, 4, -48, 24, 2, 8, 48, 48], "withholdReward": true, "trial_id": "mdp_367344599162", "block": "test2", "trialIndex": 46, "score": 39, "costs": 0, "simulationMode": [null, null, null], "rewards": [2, 8, 24], "path": ["0", "0", "1", "2", "4"], "rt": [780, 82, 470], "actions": ["up", "up", "left"], "actionTimes": [2558, 3157, 4145], "queries": {"click": {"state": {"target": [], "time": []}, "edge": {"target": [], "time": []}}, "mouseover": {"state": {"target": [], "time": []}, "edge": {"target": [], "time": []}}, "mouseout": {"state": {"target": [], "time": []}, "edge": {"target": [], "time": []}}}, "displayed_time": "9.78", "trialTime": 10628, "trial_type": "mouselab-mdp", "trial_index": 58, "time_elapsed": 1791405, "internal_node_id": "0.0-4.0-3.0-12.0"}}, {"uniqueid": "w18229945:a81753297", "current_trial": 59, "dateTime": 1664556794964, "trialdata": {"revealed_states": [], "num_clicks_accrued": [0, 0, 0, 0, 0, 0, 0, 0, 0, 0, 0, 0, 0], "stateRewards": ["", -4, 4, 24, 24, -2, 8, 24, -48, 4, -8, -24, -48], "withholdReward": true, "trial_id": "mdp_651542905861", "block": "test2", "trialIndex": 47, "score": -23.25, "costs": -0.25, "simulationMode": [null, null, null], "rewards": [4, -8, -24], "path": ["0", "0", "9", "10", "11"], "rt": [2072, 123, 95], "actions": ["left", "left", "up"], "actionTimes": [2849, 3490, 4093], "queries": {"click": {"state": {"target": ["9"], "time": [1938]}, "edge": {"target": [], "time": []}}, "mouseover": {"state": {"target": ["0", "9", "0"], "time": [1437, 1671, 2072]}, "edge": {"target": [], "time": []}}, "mouseout": {"state": {"target": ["0", "0", "9"], "time": [1140, 1470, 2043]}, "edge": {"target": [], "time": []}}}, "displayed_time": "8.78", "trialTime": 9702, "trial_type": "mouselab-mdp", "trial_index": 59, "time_elapsed": 1801656, "internal_node_id": "0.0-4.0-3.0-13.0"}}, {"uniqueid": "w18229945:a81753297", "current_trial": 60, "dateTime": 1664556805877, "trialdata": {"revealed_states": [], "num_clicks_accrued": [0, 0, 0, 0, 0, 0, 0, 0, 0, 0, 0, 0, 0], "stateRewards": ["", 2, 4, -24, -24, 4, 8, -48, 48, 2, 4, -24, -48], "withholdReward": false, "trial_id": "mdp_565165082781", "block": "test2", "trialIndex": 48, "score": -13, "costs": 0, "simulationMode": [null, null, null], "rewards": [2, 4, -24], "path": ["0", "0", "9", "10", "11"], "rt": [1238, 79, 137], "actions": ["left", "left", "up"], "actionTimes": [2310, 2915, 3557], "queries": {"click": {"state": {"target": [], "time": []}, "edge": {"target": [], "time": []}}, "mouseover": {"state": {"target": [], "time": []}, "edge": {"target": [], "time": []}}, "mouseout": {"state": {"target": ["0"], "time": [9516]}, "edge": {"target": [], "time": []}}}, "displayed_time": "9.07", "trialTime": 10424, "trial_type": "mouselab-mdp", "trial_index": 60, "time_elapsed": 1812569, "internal_node_id": "0.0-4.0-3.0-14.0"}}, {"uniqueid": "w18229945:a81753297", "current_trial": 61, "dateTime": 1664556816789, "trialdata": {"revealed_states": [], "num_clicks_accrued": [0, 0, 0, 0, 0, 0, 0, 0, 0, 0, 0, 0, 0], "stateRewards": ["", 2, 4, 48, -48, 2, 8, -24, 48, 4, 8, 48, -48], "withholdReward": true, "trial_id": "mdp_110142964375", "block": "test2", "trialIndex": 49, "score": 65, "costs": 0, "simulationMode": [null, null, null], "rewards": [4, 8, 48], "path": ["0", "0", "9", "10", "11"], "rt": [1211, 334, 275], "actions": ["left", "left", "up"], "actionTimes": [2633, 3478, 4302], "queries": {"click": {"state": {"target": [], "time": []}, "edge": {"target": [], "time": []}}, "mouseover": {"state": {"target": [], "time": []}, "edge": {"target": [], "time": []}}, "mouseout": {"state": {"target": ["5"], "time": [736]}, "edge": {"target": [], "time": []}}}, "displayed_time": "9.42", "trialTime": 10427, "trial_type": "mouselab-mdp", "trial_index": 61, "time_elapsed": 1823481, "internal_node_id": "0.0-4.0-3.0-15.0"}}, {"uniqueid": "w18229945:a81753297", "current_trial": 62, "dateTime": 1664556827892, "trialdata": {"revealed_states": [], "num_clicks_accrued": [0, 0, 0, 0, 0, 0, 0, 0, 0, 0, 0, 0, 0], "stateRewards": ["", 4, -4, 48, -48, 4, -4, 24, -24, 4, 8, -24, -48], "withholdReward": true, "trial_id": "mdp_433630527224", "block": "test2", "trialIndex": 50, "score": -7, "costs": 0, "simulationMode": [null, null, null], "rewards": [4, 8, -24], "path": ["0", "0", "9", "10", "11"], "rt": [836, 85, 92], "actions": ["left", "left", "up"], "actionTimes": [2452, 3060, 3678], "queries": {"click": {"state": {"target": [], "time": []}, "edge": {"target": [], "time": []}}, "mouseover": {"state": {"target": [], "time": []}, "edge": {"target": [], "time": []}}, "mouseout": {"state": {"target": [], "time": []}, "edge": {"target": [], "time": []}}}, "displayed_time": "9.62", "trialTime": 10575, "trial_type": "mouselab-mdp", "trial_index": 62, "time_elapsed": 1834585, "internal_node_id": "0.0-4.0-3.0-16.0"}}, {"uniqueid": "w18229945:a81753297", "current_trial": 63, "dateTime": 1664556840059, "trialdata": {"revealed_states": [], "num_clicks_accrued": [0, 0, 0, 0, 0, 0, 0, 0, 0, 0, 0, 0, 0], "stateRewards": ["", 4, 4, 24, 24, 4, -4, 48, 48, 4, 4, 24, -48], "withholdReward": false, "trial_id": "mdp_454251689008", "block": "test2", "trialIndex": 51, "score": 37, "costs": 0, "simulationMode": [null, null, null], "rewards": [4, 4, 24], "path": ["0", "0", "9", "10", "11"], "rt": [674, 71, 106], "actions": ["left", "left", "up"], "actionTimes": [1996, 2584, 3205], "queries": {"click": {"state": {"target": [], "time": []}, "edge": {"target": [], "time": []}}, "mouseover": {"state": {"target": [], "time": []}, "edge": {"target": [], "time": []}}, "mouseout": {"state": {"target": [], "time": []}, "edge": {"target": [], "time": []}}}, "displayed_time": "10.32", "trialTime": 11670, "trial_type": "mouselab-mdp", "trial_index": 63, "time_elapsed": 1846752, "internal_node_id": "0.0-4.0-3.0-17.0"}}, {"uniqueid": "w18229945:a81753297", "current_trial": 64, "dateTime": 1664556851772, "trialdata": {"revealed_states": [], "num_clicks_accrued": [0, 0, 0, 0, 0, 0, 0, 0, 0, 0, 0, 0, 0], "stateRewards": ["", 4, -8, 48, -24, -4, 4, 24, 24, -2, -4, 24, 24], "withholdReward": false, "trial_id": "mdp_542168715839", "block": "test2", "trialIndex": 52, "score": 23, "costs": 0, "simulationMode": [null, null, null], "rewards": [-2, -4, 24], "path": ["0", "0", "9", "10", "11"], "rt": [676, 54, 125], "actions": ["left", "left", "up"], "actionTimes": [2005, 2590, 3244], "queries": {"click": {"state": {"target": [], "time": []}, "edge": {"target": [], "time": []}}, "mouseover": {"state": {"target": [], "time": []}, "edge": {"target": [], "time": []}}, "mouseout": {"state": {"target": [], "time": []}, "edge": {"target": [], "time": []}}}, "displayed_time": "10.33", "trialTime": 11205, "trial_type": "mouselab-mdp", "trial_index": 64, "time_elapsed": 1858465, "internal_node_id": "0.0-4.0-3.0-18.0"}}, {"uniqueid": "w18229945:a81753297", "current_trial": 65, "dateTime": 1664556863527, "trialdata": {"revealed_states": [], "num_clicks_accrued": [0, 0, 0, 0, 0, 0, 0, 0, 0, 0, 0, 0, 0], "stateRewards": ["", 2, -4, -24, -24, -2, -8, -48, 24, -4, -8, 24, 24], "withholdReward": true, "trial_id": "mdp_521351546461", "block": "test2", "trialIndex": 53, "score": 17, "costs": 0, "simulationMode": [null, null, null], "rewards": [-4, -8, 24], "path": ["0", "0", "9", "10", "11"], "rt": [582, 136, 131], "actions": ["left", "left", "up"], "actionTimes": [1844, 2529, 3191], "queries": {"click": {"state": {"target": [], "time": []}, "edge": {"target": [], "time": []}}, "mouseover": {"state": {"target": [], "time": []}, "edge": {"target": [], "time": []}}, "mouseout": {"state": {"target": [], "time": []}, "edge": {"target": [], "time": []}}}, "displayed_time": "10.26", "trialTime": 11281, "trial_type": "mouselab-mdp", "trial_index": 65, "time_elapsed": 1870219, "internal_node_id": "0.0-4.0-3.0-19.0"}}, {"uniqueid": "w18229945:a81753297", "current_trial": 66, "dateTime": 1664556874738, "trialdata": {"revealed_states": [], "num_clicks_accrued": [0, 0, 0, 0, 0, 0, 0, 0, 0, 0, 0, 0, 0], "stateRewards": ["", 2, -4, 48, -24, 4, -8, -24, 48, -2, -4, 24, -48], "withholdReward": true, "trial_id": "mdp_357328205509", "block": "test2", "trialIndex": 54, "score": 49, "costs": 0, "simulationMode": [null, null, null], "rewards": [4, -8, 48], "path": ["0", "0", "5", "6", "8"], "rt": [772, 61, 71], "actions": ["right", "right", "down"], "actionTimes": [1582, 2145, 2739], "queries": {"click": {"state": {"target": [], "time": []}, "edge": {"target": [], "time": []}}, "mouseover": {"state": {"target": [], "time": []}, "edge": {"target": [], "time": []}}, "mouseout": {"state": {"target": [], "time": []}, "edge": {"target": [], "time": []}}}, "displayed_time": "9.81", "trialTime": 10719, "trial_type": "mouselab-mdp", "trial_index": 66, "time_elapsed": 1881431, "internal_node_id": "0.0-4.0-3.0-20.0"}}, {"uniqueid": "w18229945:a81753297", "current_trial": 67, "dateTime": 1664556886570, "trialdata": {"revealed_states": [], "num_clicks_accrued": [0, 0, 0, 0, 0, 0, 0, 0, 0, 0, 0, 0, 0], "stateRewards": ["", -2, 8, -48, 48, -4, 8, -24, 24, 4, -4, 24, -48], "withholdReward": true, "trial_id": "mdp_904238083902", "block": "test2", "trialIndex": 55, "score": 29, "costs": 0, "simulationMode": [null, null, null], "rewards": [4, -4, 24], "path": ["0", "0", "9", "10", "11"], "rt": [960, 564, 134], "actions": ["left", "left", "up"], "actionTimes": [2197, 3279, 3935], "queries": {"click": {"state": {"target": [], "time": []}, "edge": {"target": [], "time": []}}, "mouseover": {"state": {"target": [], "time": []}, "edge": {"target": [], "time": []}}, "mouseout": {"state": {"target": [], "time": []}, "edge": {"target": [], "time": []}}}, "displayed_time": "10.24", "trialTime": 11322, "trial_type": "mouselab-mdp", "trial_index": 67, "time_elapsed": 1893262, "internal_node_id": "0.0-4.0-3.0-21.0"}}, {"uniqueid": "w18229945:a81753297", "current_trial": 68, "dateTime": 1664556898799, "trialdata": {"revealed_states": [], "num_clicks_accrued": [0, 0, 0, 0, 0, 0, 0, 0, 0, 0, 0, 0, 0], "stateRewards": ["", 2, 4, -48, -24, 2, 8, 24, 48, -2, 4, 48, -48], "withholdReward": false, "trial_id": "mdp_551894842204", "block": "test2", "trialIndex": 56, "score": -37, "costs": 0, "simulationMode": [null, null, null], "rewards": [2, 4, -48], "path": ["0", "0", "1", "2", "3"], "rt": [986, 25, 8], "actions": ["up", "up", "right"], "actionTimes": [2319, 2853, 3374], "queries": {"click": {"state": {"target": [], "time": []}, "edge": {"target": [], "time": []}}, "mouseover": {"state": {"target": [], "time": []}, "edge": {"target": [], "time": []}}, "mouseout": {"state": {"target": [], "time": []}, "edge": {"target": [], "time": []}}}, "displayed_time": "10.33", "trialTime": 11607, "trial_type": "mouselab-mdp", "trial_index": 68, "time_elapsed": 1905491, "internal_node_id": "0.0-4.0-3.0-22.0"}}, {"uniqueid": "w18229945:a81753297", "current_trial": 69, "dateTime": 1664556910840, "trialdata": {"revealed_states": [], "num_clicks_accrued": [0, 0, 0, 0, 0, 0, 0, 0, 0, 0, 0, 0, 0], "stateRewards": ["", 4, 8, 24, 24, 2, -4, 48, -24, -4, 8, -24, 24], "withholdReward": true, "trial_id": "mdp_932292142091", "block": "test2", "trialIndex": 57, "score": 41, "costs": 0, "simulationMode": [null, null, null], "rewards": [4, 8, 24], "path": ["0", "0", "1", "2", "3"], "rt": [487, 405, 31], "actions": ["up", "up", "right"], "actionTimes": [2133, 3069, 3609], "queries": {"click": {"state": {"target": [], "time": []}, "edge": {"target": [], "time": []}}, "mouseover": {"state": {"target": [], "time": []}, "edge": {"target": [], "time": []}}, "mouseout": {"state": {"target": [], "time": []}, "edge": {"target": [], "time": []}}}, "displayed_time": "10.65", "trialTime": 11416, "trial_type": "mouselab-mdp", "trial_index": 69, "time_elapsed": 1917533, "internal_node_id": "0.0-4.0-3.0-23.0"}}, {"uniqueid": "w18229945:a81753297", "current_trial": 70, "dateTime": 1664556922028, "trialdata": {"revealed_states": [], "num_clicks_accrued": [0, 0, 0, 0, 0, 0, 0, 0, 0, 0, 0, 0, 0], "stateRewards": ["", 2, 8, -48, -24, 4, 4, 24, 48, 4, -4, -48, 48], "withholdReward": true, "trial_id": "mdp_665096999232", "block": "test2", "trialIndex": 58, "score": -33, "costs": 0, "simulationMode": [null, null, null], "rewards": [2, 8, -48], "path": ["0", "0", "1", "2", "3"], "rt": [823, 51, 10], "actions": ["up", "up", "right"], "actionTimes": [1573, 2159, 2695], "queries": {"click": {"state": {"target": [], "time": []}, "edge": {"target": [], "time": []}}, "mouseover": {"state": {"target": [], "time": []}, "edge": {"target": [], "time": []}}, "mouseout": {"state": {"target": [], "time": []}, "edge": {"target": [], "time": []}}}, "displayed_time": "9.75", "trialTime": 10645, "trial_type": "mouselab-mdp", "trial_index": 70, "time_elapsed": 1928721, "internal_node_id": "0.0-4.0-3.0-24.0"}}, {"uniqueid": "w18229945:a81753297", "current_trial": 71, "dateTime": 1664556933121, "trialdata": {"revealed_states": [], "num_clicks_accrued": [0, 0, 0, 0, 0, 0, 0, 0, 0, 0, 0, 0, 0], "stateRewards": ["", -2, 8, 48, 24, 2, -4, 48, -48, 2, 8, 24, -24], "withholdReward": true, "trial_id": "mdp_176207245985", "block": "test2", "trialIndex": 59, "score": -9, "costs": 0, "simulationMode": [null, null, null], "rewards": [2, 8, -24], "path": ["0", "0", "9", "10", "12"], "rt": [979, 127, 90], "actions": ["left", "left", "down"], "actionTimes": [1984, 2610, 3207], "queries": {"click": {"state": {"target": [], "time": []}, "edge": {"target": [], "time": []}}, "mouseover": {"state": {"target": [], "time": []}, "edge": {"target": [], "time": []}}, "mouseout": {"state": {"target": [], "time": []}, "edge": {"target": [], "time": []}}}, "displayed_time": "10.01", "trialTime": 10552, "trial_type": "mouselab-mdp", "trial_index": 71, "time_elapsed": 1939814, "internal_node_id": "0.0-4.0-3.0-25.0"}}, {"uniqueid": "w18229945:a81753297", "current_trial": 72, "dateTime": 1664556943406, "trialdata": {"revealed_states": [], "num_clicks_accrued": [0, 0, 0, 0, 0, 0, 0, 0, 0, 0, 0, 0, 0], "stateRewards": ["", 4, -4, 48, -48, -2, -8, -24, 48, -2, 4, 24, -24], "withholdReward": true, "trial_id": "mdp_507290896735", "block": "test2", "trialIndex": 60, "score": -17, "costs": 0, "simulationMode": [null, null, null], "rewards": [-2, 4, -24], "path": ["0", "0", "9", "10", "12"], "rt": [1106, 591, 63], "actions": ["left", "left", "down"], "actionTimes": [2165, 3274, 3855], "queries": {"click": {"state": {"target": [], "time": []}, "edge": {"target": [], "time": []}}, "mouseover": {"state": {"target": [], "time": []}, "edge": {"target": [], "time": []}}, "mouseout": {"state": {"target": [], "time": []}, "edge": {"target": [], "time": []}}}, "displayed_time": "9.07", "trialTime": 9670, "trial_type": "mouselab-mdp", "trial_index": 72, "time_elapsed": 1950099, "internal_node_id": "0.0-4.0-3.0-26.0"}}, {"uniqueid": "w18229945:a81753297", "current_trial": 73, "dateTime": 1664556954131, "trialdata": {"revealed_states": [], "num_clicks_accrued": [0, 0, 0, 0, 0, 0, 0, 0, 0, 0, 0, 0, 0], "stateRewards": ["", -4, -4, -24, 24, 4, 4, -24, -24, -4, 4, 24, 24], "withholdReward": true, "trial_id": "mdp_787781487383", "block": "test2", "trialIndex": 61, "score": -11.25, "costs": -0.25, "simulationMode": [null, null, null], "rewards": [4, 4, -24], "path": ["0", "0", "5", "6", "7"], "rt": [2790, 134, 153], "actions": ["right", "right", "up"], "actionTimes": [3914, 4563, 5236], "queries": {"click": {"state": {"target": ["1"], "time": [2598]}, "edge": {"target": [], "time": []}}, "mouseover": {"state": {"target": ["1"], "time": [2402]}, "edge": {"target": [], "time": []}}, "mouseout": {"state": {"target": ["0", "1"], "time": [2086, 3003]}, "edge": {"target": [], "time": []}}}, "displayed_time": "9.12", "trialTime": 10019, "trial_type": "mouselab-mdp", "trial_index": 73, "time_elapsed": 1960824, "internal_node_id": "0.0-4.0-3.0-27.0"}}, {"uniqueid": "w18229945:a81753297", "current_trial": 74, "dateTime": 1664556966504, "trialdata": {"revealed_states": [], "num_clicks_accrued": [0, 0, 0, 0, 0, 0, 0, 0, 0, 0, 0, 0, 0], "stateRewards": ["", 2, -4, -24, -48, -2, 8, -24, 48, -2, 8, 24, -48], "withholdReward": false, "trial_id": "mdp_566582551557", "block": "test2", "trialIndex": 62, "score": 58.75, "costs": -0.25, "simulationMode": [null, null, null], "rewards": [-2, 8, 48], "path": ["0", "0", "5", "6", "8"], "rt": [1741, 83, 79], "actions": ["right", "right", "down"], "actionTimes": [3359, 3968, 4556], "queries": {"click": {"state": {"target": ["5"], "time": [2281]}, "edge": {"target": [], "time": []}}, "mouseover": {"state": {"target": ["5", "5"], "time": [1659, 2113]}, "edge": {"target": [], "time": []}}, "mouseout": {"state": {"target": ["5", "5"], "time": [1748, 2411]}, "edge": {"target": [], "time": []}}}, "displayed_time": "10.62", "trialTime": 11836, "trial_type": "mouselab-mdp", "trial_index": 74, "time_elapsed": 1973196, "internal_node_id": "0.0-4.0-3.0-28.0"}}, {"uniqueid": "w18229945:a81753297", "current_trial": 75, "dateTime": 1664556978929, "trialdata": {"revealed_states": [], "num_clicks_accrued": [0, 0, 0, 0, 0, 0, 0, 0, 0, 0, 0, 0, 0], "stateRewards": ["", -4, 4, -24, 48, 2, 4, -48, 24, 4, -8, -24, 24], "withholdReward": true, "trial_id": "mdp_740130150937", "block": "test2", "trialIndex": 63, "score": -23.25, "costs": -0.25, "simulationMode": [null, null, null], "rewards": [4, -8, -24], "path": ["0", "0", "9", "10", "11"], "rt": [2937, 128, 375], "actions": ["left", "left", "up"], "actionTimes": [4713, 5351, 6239], "queries": {"click": {"state": {"target": ["9"], "time": [3300]}, "edge": {"target": [], "time": []}}, "mouseover": {"state": {"target": ["0", "9"], "time": [2732, 3113]}, "edge": {"target": [], "time": []}}, "mouseout": {"state": {"target": ["5", "0", "0", "9"], "time": [1063, 2197, 2914, 3390]}, "edge": {"target": [], "time": []}}}, "displayed_time": "10.78", "trialTime": 11897, "trial_type": "mouselab-mdp", "trial_index": 75, "time_elapsed": 1985621, "internal_node_id": "0.0-4.0-3.0-29.0"}}, {"uniqueid": "w18229945:a81753297", "current_trial": 76, "dateTime": 1664556980837, "trialdata": {"rt": 1891, "stimulus": "<h1> End of block! </h1>\n\nYou have reached the end of the block 2/4. If you need a short break, feel free to take one now before moving on.\n\n<br><br>\nIn the next block, you will complete another 30 rounds of this game.\n\n<br><br>\n<div style='text-align: center;'>Press <code>space</code> to begin.</div>\n<br><br>\n<div style='text-align: center;'>(If the experiment doesn't continue, try clicking on the text and then pressing <code>space</code>.)</div>", "response": " ", "trial_id": "mdp_ready_3", "trial_type": "html-keyboard-response", "trial_index": 76, "time_elapsed": 1987529, "internal_node_id": "0.0-4.0-4.0"}}, {"uniqueid": "w18229945:a81753297", "current_trial": 77, "dateTime": 1664556992276, "trialdata": {"revealed_states": [], "num_clicks_accrued": [0, 0, 0, 0, 0, 0, 0, 0, 0, 0, 0, 0, 0], "stateRewards": ["", -4, -8, -48, 48, -2, -8, -48, -24, 4, 8, 24, -48], "withholdReward": true, "trial_id": "mdp_509977295685", "block": "test3", "trialIndex": 64, "score": -31.25, "costs": -0.25, "simulationMode": [null, null, null], "rewards": [4, 8, -48], "path": ["0", "0", "9", "10", "12"], "rt": [1586, 62, 315], "actions": ["left", "left", "down"], "actionTimes": [3392, 3985, 4829], "queries": {"click": {"state": {"target": ["9"], "time": [2380]}, "edge": {"target": [], "time": []}}, "mouseover": {"state": {"target": ["9"], "time": [2079]}, "edge": {"target": [], "time": []}}, "mouseout": {"state": {"target": ["0", "9"], "time": [1948, 2501]}, "edge": {"target": [], "time": []}}}, "displayed_time": "9.81", "trialTime": 10876, "trial_type": "mouselab-mdp", "trial_index": 77, "time_elapsed": 1998968, "internal_node_id": "0.0-4.0-5.0-0.0"}}, {"uniqueid": "w18229945:a81753297", "current_trial": 78, "dateTime": 1664557004341, "trialdata": {"revealed_states": [], "num_clicks_accrued": [0, 0, 0, 0, 0, 0, 0, 0, 0, 0, 0, 0, 0], "stateRewards": ["", -2, 8, -48, -24, -2, 8, 48, -48, -4, 8, 24, 48], "withholdReward": true, "trial_id": "mdp_160707003673", "block": "test3", "trialIndex": 65, "score": 58.75, "costs": -0.25, "simulationMode": [null, null, null], "rewards": [-2, 8, 48], "path": ["0", "0", "5", "6", "7"], "rt": [3264, 183, 98], "actions": ["right", "right", "up"], "actionTimes": [4720, 5418, 6053], "queries": {"click": {"state": {"target": ["5"], "time": [3633]}, "edge": {"target": [], "time": []}}, "mouseover": {"state": {"target": ["0", "9", "5"], "time": [2050, 2952, 3352]}, "edge": {"target": [], "time": []}}, "mouseout": {"state": {"target": ["0", "0", "9", "5"], "time": [1540, 2568, 3002, 3785]}, "edge": {"target": [], "time": []}}}, "displayed_time": "10.46", "trialTime": 11479, "trial_type": "mouselab-mdp", "trial_index": 78, "time_elapsed": 2011033, "internal_node_id": "0.0-4.0-5.0-1.0"}}, {"uniqueid": "w18229945:a81753297", "current_trial": 79, "dateTime": 1664557016722, "trialdata": {"revealed_states": [], "num_clicks_accrued": [0, 0, 0, 0, 0, 0, 0, 0, 0, 0, 0, 0, 0], "stateRewards": ["", -4, -4, -24, 48, -4, -8, -24, 48, 2, 4, 48, 48], "withholdReward": true, "trial_id": "mdp_810954007398", "block": "test3", "trialIndex": 66, "score": 40.75, "costs": -0.25, "simulationMode": [null, null, null], "rewards": [-4, -8, 48], "path": ["0", "0", "5", "6", "8"], "rt": [2175, 118, 10], "actions": ["right", "right", "down"], "actionTimes": [4864, 5518, 6041], "queries": {"click": {"state": {"target": ["5"], "time": [3867]}, "edge": {"target": [], "time": []}}, "mouseover": {"state": {"target": ["8", "5"], "time": [3357, 3554]}, "edge": {"target": [], "time": []}}, "mouseout": {"state": {"target": ["0", "8", "5"], "time": [3242, 3489, 4030]}, "edge": {"target": [], "time": []}}}, "displayed_time": "10.69", "trialTime": 11799, "trial_type": "mouselab-mdp", "trial_index": 79, "time_elapsed": 2023415, "internal_node_id": "0.0-4.0-5.0-2.0"}}, {"uniqueid": "w18229945:a81753297", "current_trial": 80, "dateTime": 1664557027714, "trialdata": {"revealed_states": [], "num_clicks_accrued": [0, 0, 0, 0, 0, 0, 0, 0, 0, 0, 0, 0, 0], "stateRewards": ["", -4, 4, -48, -48, -2, -8, -48, -24, 4, 8, -24, 24], "withholdReward": true, "trial_id": "mdp_449260894259", "block": "test3", "trialIndex": 67, "score": -43.25, "costs": -0.25, "simulationMode": [null, null, null], "rewards": [-4, 4, -48], "path": ["0", "0", "1", "2", "4"], "rt": [2453, 99, 116], "actions": ["up", "up", "left"], "actionTimes": [3995, 4607, 5245], "queries": {"click": {"state": {"target": ["9"], "time": [3002]}, "edge": {"target": [], "time": []}}, "mouseover": {"state": {"target": ["5", "0", "9"], "time": [2442, 2578, 2812]}, "edge": {"target": [], "time": []}}, "mouseout": {"state": {"target": ["0", "5", "0", "9"], "time": [1639, 2526, 2726, 3123]}, "edge": {"target": [], "time": []}}}, "displayed_time": "9.54", "trialTime": 10463, "trial_type": "mouselab-mdp", "trial_index": 80, "time_elapsed": 2034407, "internal_node_id": "0.0-4.0-5.0-3.0"}}, {"uniqueid": "w18229945:a81753297", "current_trial": 81, "dateTime": 1664557040334, "trialdata": {"revealed_states": [], "num_clicks_accrued": [0, 0, 0, 0, 0, 0, 0, 0, 0, 0, 0, 0, 0], "stateRewards": ["", -4, -4, -24, -24, -2, 4, 48, -24, -2, -4, -24, 48], "withholdReward": false, "trial_id": "mdp_855903341564", "block": "test3", "trialIndex": 68, "score": -27, "costs": 0, "simulationMode": [null, null, null], "rewards": [-4, -4, -24], "path": ["0", "0", "1", "2", "3"], "rt": [928, 22, 527], "actions": ["up", "up", "right"], "actionTimes": [2604, 3152, 4201], "queries": {"click": {"state": {"target": [], "time": []}, "edge": {"target": [], "time": []}}, "mouseover": {"state": {"target": ["0"], "time": [1759]}, "edge": {"target": [], "time": []}}, "mouseout": {"state": {"target": ["0", "0"], "time": [1117, 10920]}, "edge": {"target": [], "time": []}}}, "displayed_time": "10.68", "trialTime": 12141, "trial_type": "mouselab-mdp", "trial_index": 81, "time_elapsed": 2047026, "internal_node_id": "0.0-4.0-5.0-4.0"}}, {"uniqueid": "w18229945:a81753297", "current_trial": 82, "dateTime": 1664557051409, "trialdata": {"revealed_states": [], "num_clicks_accrued": [0, 0, 0, 0, 0, 0, 0, 0, 0, 0, 0, 0, 0], "stateRewards": ["", 4, 8, -48, -48, 2, 4, -24, -48, 2, 8, 48, -48], "withholdReward": true, "trial_id": "mdp_902172716465", "block": "test3", "trialIndex": 69, "score": -31, "costs": 0, "simulationMode": [null, null, null], "rewards": [4, 8, -48], "path": ["0", "0", "1", "2", "3"], "rt": [485, 86, 26], "actions": ["up", "up", "right"], "actionTimes": [1506, 2141, 2696], "queries": {"click": {"state": {"target": [], "time": []}, "edge": {"target": [], "time": []}}, "mouseover": {"state": {"target": [], "time": []}, "edge": {"target": [], "time": []}}, "mouseout": {"state": {"target": ["0", "0"], "time": [434, 9386]}, "edge": {"target": [], "time": []}}}, "displayed_time": "9.02", "trialTime": 10348, "trial_type": "mouselab-mdp", "trial_index": 82, "time_elapsed": 2058102, "internal_node_id": "0.0-4.0-5.0-5.0"}}, {"uniqueid": "w18229945:a81753297", "current_trial": 83, "dateTime": 1664557061854, "trialdata": {"revealed_states": [], "num_clicks_accrued": [0, 0, 0, 0, 0, 0, 0, 0, 0, 0, 0, 0, 0], "stateRewards": ["", 2, -8, 48, -24, -4, -8, -24, 48, -2, 4, 24, -48], "withholdReward": false, "trial_id": "mdp_186932504904", "block": "test3", "trialIndex": 70, "score": -31.25, "costs": -0.25, "simulationMode": [null, null, null], "rewards": [-4, -8, -24], "path": ["0", "0", "5", "6", "7"], "rt": [3424, 116, 343], "actions": ["right", "right", "up"], "actionTimes": [4813, 5458, 6745], "queries": {"click": {"state": {"target": ["5"], "time": [3991]}, "edge": {"target": [], "time": []}}, "mouseover": {"state": {"target": ["5", "5"], "time": [2581, 3715]}, "edge": {"target": [], "time": []}}, "mouseout": {"state": {"target": ["0", "5", "5"], "time": [2549, 2615, 4247]}, "edge": {"target": [], "time": []}}}, "displayed_time": "8.39", "trialTime": 9923, "trial_type": "mouselab-mdp", "trial_index": 83, "time_elapsed": 2068547, "internal_node_id": "0.0-4.0-5.0-6.0"}}, {"uniqueid": "w18229945:a81753297", "current_trial": 84, "dateTime": 1664557072985, "trialdata": {"revealed_states": [], "num_clicks_accrued": [0, 0, 0, 0, 0, 0, 0, 0, 0, 0, 0, 0, 0], "stateRewards": ["", -2, 4, -48, -48, 4, 4, 48, -48, 2, 8, 24, 48], "withholdReward": true, "trial_id": "mdp_686771069745", "block": "test3", "trialIndex": 71, "score": 38.75, "costs": -0.25, "simulationMode": [null, null, null], "rewards": [2, 8, 24], "path": ["0", "0", "9", "10", "11"], "rt": [1646, 83, 545], "actions": ["left", "left", "up"], "actionTimes": [3075, 3677, 4750], "queries": {"click": {"state": {"target": ["9"], "time": [2126]}, "edge": {"target": [], "time": []}}, "mouseover": {"state": {"target": ["0", "9", "0"], "time": [1647, 1917, 2244]}, "edge": {"target": [], "time": []}}, "mouseout": {"state": {"target": ["5", "0", "0", "9", "0"], "time": [576, 1488, 1878, 2216, 2277]}, "edge": {"target": [], "time": []}}}, "displayed_time": "9.43", "trialTime": 10550, "trial_type": "mouselab-mdp", "trial_index": 84, "time_elapsed": 2079677, "internal_node_id": "0.0-4.0-5.0-7.0"}}, {"uniqueid": "w18229945:a81753297", "current_trial": 85, "dateTime": 1664557083633, "trialdata": {"revealed_states": [], "num_clicks_accrued": [0, 0, 0, 0, 0, 0, 0, 0, 0, 0, 0, 0, 0], "stateRewards": ["", -4, 8, 24, -24, 4, -8, -24, -24, -2, 8, -48, 24], "withholdReward": true, "trial_id": "mdp_240302100183", "block": "test3", "trialIndex": 72, "score": -23, "costs": 0, "simulationMode": [null, null, null], "rewards": [4, -8, -24], "path": ["0", "0", "5", "6", "7"], "rt": [673, 129, 183], "actions": ["right", "right", "up"], "actionTimes": [2106, 2746, 3466], "queries": {"click": {"state": {"target": [], "time": []}, "edge": {"target": [], "time": []}}, "mouseover": {"state": {"target": [], "time": []}, "edge": {"target": [], "time": []}}, "mouseout": {"state": {"target": ["0"], "time": [419]}, "edge": {"target": [], "time": []}}}, "displayed_time": "9.43", "trialTime": 10140, "trial_type": "mouselab-mdp", "trial_index": 85, "time_elapsed": 2090325, "internal_node_id": "0.0-4.0-5.0-8.0"}}, {"uniqueid": "w18229945:a81753297", "current_trial": 86, "dateTime": 1664557093982, "trialdata": {"revealed_states": [], "num_clicks_accrued": [0, 0, 0, 0, 0, 0, 0, 0, 0, 0, 0, 0, 0], "stateRewards": ["", -2, 8, -48, 48, -4, 8, -24, 24, 4, -4, 24, -48], "withholdReward": true, "trial_id": "mdp_904238083902", "block": "test3", "trialIndex": 73, "score": -43, "costs": 0, "simulationMode": [null, null, null], "rewards": [4, -4, -48], "path": ["0", "0", "9", "10", "12"], "rt": [439, 353, 40], "actions": ["left", "left", "down"], "actionTimes": [1405, 2277, 2854], "queries": {"click": {"state": {"target": [], "time": []}, "edge": {"target": [], "time": []}}, "mouseover": {"state": {"target": [], "time": []}, "edge": {"target": [], "time": []}}, "mouseout": {"state": {"target": ["0"], "time": [642]}, "edge": {"target": [], "time": []}}}, "displayed_time": "8.97", "trialTime": 9672, "trial_type": "mouselab-mdp", "trial_index": 86, "time_elapsed": 2100674, "internal_node_id": "0.0-4.0-5.0-9.0"}}, {"uniqueid": "w18229945:a81753297", "current_trial": 87, "dateTime": 1664557105163, "trialdata": {"revealed_states": [], "num_clicks_accrued": [0, 0, 0, 0, 0, 0, 0, 0, 0, 0, 0, 0, 0], "stateRewards": ["", -2, 8, 24, -48, -2, -4, 24, 48, 2, 8, -48, -48], "withholdReward": true, "trial_id": "mdp_562228697607", "block": "test3", "trialIndex": 74, "score": 35, "costs": 0, "simulationMode": [null, null, null], "rewards": [-2, 8, 24], "path": ["0", "0", "1", "2", "3"], "rt": [1167, 54, 347], "actions": ["up", "up", "right"], "actionTimes": [1930, 2493, 3362], "queries": {"click": {"state": {"target": [], "time": []}, "edge": {"target": [], "time": []}}, "mouseover": {"state": {"target": [], "time": []}, "edge": {"target": [], "time": []}}, "mouseout": {"state": {"target": ["0"], "time": [450]}, "edge": {"target": [], "time": []}}}, "displayed_time": "9.77", "trialTime": 10551, "trial_type": "mouselab-mdp", "trial_index": 87, "time_elapsed": 2111855, "internal_node_id": "0.0-4.0-5.0-10.0"}}, {"uniqueid": "w18229945:a81753297", "current_trial": 88, "dateTime": 1664557115978, "trialdata": {"revealed_states": [], "num_clicks_accrued": [0, 0, 0, 0, 0, 0, 0, 0, 0, 0, 0, 0, 0], "stateRewards": ["", 2, 8, 48, 24, 2, 8, 48, 48, -2, -4, -24, -48], "withholdReward": false, "trial_id": "mdp_717636349175", "block": "test3", "trialIndex": 75, "score": 39, "costs": 0, "simulationMode": [null, null, null], "rewards": [2, 8, 24], "path": ["0", "0", "1", "2", "4"], "rt": [1330, 180, 21], "actions": ["up", "up", "left"], "actionTimes": [2110, 2825, 3368], "queries": {"click": {"state": {"target": [], "time": []}, "edge": {"target": [], "time": []}}, "mouseover": {"state": {"target": [], "time": []}, "edge": {"target": [], "time": []}}, "mouseout": {"state": {"target": ["0"], "time": [469]}, "edge": {"target": [], "time": []}}}, "displayed_time": "8.78", "trialTime": 10133, "trial_type": "mouselab-mdp", "trial_index": 88, "time_elapsed": 2122670, "internal_node_id": "0.0-4.0-5.0-11.0"}}, {"uniqueid": "w18229945:a81753297", "current_trial": 89, "dateTime": 1664557126571, "trialdata": {"revealed_states": [], "num_clicks_accrued": [0, 0, 0, 0, 0, 0, 0, 0, 0, 0, 0, 0, 0], "stateRewards": ["", 4, -8, -48, 24, 4, 4, -24, -24, 2, 4, -48, 24], "withholdReward": true, "trial_id": "mdp_626971397185", "block": "test3", "trialIndex": 76, "score": -37, "costs": 0, "simulationMode": [null, null, null], "rewards": [2, 4, -48], "path": ["0", "0", "9", "10", "11"], "rt": [1495, 33, 18], "actions": ["left", "left", "up"], "actionTimes": [2613, 3156, 3723], "queries": {"click": {"state": {"target": [], "time": []}, "edge": {"target": [], "time": []}}, "mouseover": {"state": {"target": [], "time": []}, "edge": {"target": [], "time": []}}, "mouseout": {"state": {"target": ["0"], "time": [643]}, "edge": {"target": [], "time": []}}}, "displayed_time": "9.12", "trialTime": 10055, "trial_type": "mouselab-mdp", "trial_index": 89, "time_elapsed": 2133263, "internal_node_id": "0.0-4.0-5.0-12.0"}}, {"uniqueid": "w18229945:a81753297", "current_trial": 90, "dateTime": 1664557137675, "trialdata": {"revealed_states": [], "num_clicks_accrued": [0, 0, 0, 0, 0, 0, 0, 0, 0, 0, 0, 0, 0], "stateRewards": ["", -4, -8, -48, -48, 4, -8, 48, 48, 2, 8, 48, 24], "withholdReward": true, "trial_id": "mdp_880437222492", "block": "test3", "trialIndex": 77, "score": 49, "costs": 0, "simulationMode": [null, null, null], "rewards": [4, -8, 48], "path": ["0", "0", "5", "6", "8"], "rt": [1098, 82, 32], "actions": ["right", "right", "down"], "actionTimes": [2968, 3587, 4129], "queries": {"click": {"state": {"target": [], "time": []}, "edge": {"target": [], "time": []}}, "mouseover": {"state": {"target": ["0"], "time": [1901]}, "edge": {"target": [], "time": []}}, "mouseout": {"state": {"target": ["0"], "time": [787]}, "edge": {"target": [], "time": []}}}, "displayed_time": "9.87", "trialTime": 10582, "trial_type": "mouselab-mdp", "trial_index": 90, "time_elapsed": 2144368, "internal_node_id": "0.0-4.0-5.0-13.0"}}, {"uniqueid": "w18229945:a81753297", "current_trial": 91, "dateTime": 1664557149916, "trialdata": {"revealed_states": [], "num_clicks_accrued": [0, 0, 0, 0, 0, 0, 0, 0, 0, 0, 0, 0, 0], "stateRewards": ["", 2, 8, -48, -24, 4, 4, 24, 48, 4, -4, -48, 48], "withholdReward": false, "trial_id": "mdp_665096999232", "block": "test3", "trialIndex": 78, "score": 52.75, "costs": -0.25, "simulationMode": [null, null, null], "rewards": [4, -4, 48], "path": ["0", "0", "9", "10", "12"], "rt": [1702, 143, 10], "actions": ["left", "left", "down"], "actionTimes": [2881, 3535, 4075], "queries": {"click": {"state": {"target": ["9"], "time": [1827]}, "edge": {"target": [], "time": []}}, "mouseover": {"state": {"target": ["9", "0"], "time": [1646, 1976]}, "edge": {"target": [], "time": []}}, "mouseout": {"state": {"target": ["0", "9"], "time": [1316, 1947]}, "edge": {"target": [], "time": []}}}, "displayed_time": "10.18", "trialTime": 11483, "trial_type": "mouselab-mdp", "trial_index": 91, "time_elapsed": 2156608, "internal_node_id": "0.0-4.0-5.0-14.0"}}, {"uniqueid": "w18229945:a81753297", "current_trial": 92, "dateTime": 1664557161951, "trialdata": {"revealed_states": [], "num_clicks_accrued": [0, 0, 0, 0, 0, 0, 0, 0, 0, 0, 0, 0, 0], "stateRewards": ["", -2, -8, -24, 24, -2, -8, -48, 24, -2, -8, 24, 24], "withholdReward": true, "trial_id": "mdp_336617436097", "block": "test3", "trialIndex": 79, "score": 18.75, "costs": -0.25, "simulationMode": [null, null, null], "rewards": [-2, -8, 24], "path": ["0", "0", "5", "6", "8"], "rt": [1671, 181, 98], "actions": ["right", "right", "down"], "actionTimes": [3184, 3882, 4488], "queries": {"click": {"state": {"target": ["5"], "time": [2219]}, "edge": {"target": [], "time": []}}, "mouseover": {"state": {"target": ["5", "8"], "time": [1914, 2445]}, "edge": {"target": [], "time": []}}, "mouseout": {"state": {"target": ["0", "5"], "time": [611, 2395]}, "edge": {"target": [], "time": []}}}, "displayed_time": "10.51", "trialTime": 11520, "trial_type": "mouselab-mdp", "trial_index": 92, "time_elapsed": 2168644, "internal_node_id": "0.0-4.0-5.0-15.0"}}, {"uniqueid": "w18229945:a81753297", "current_trial": 93, "dateTime": 1664557173965, "trialdata": {"revealed_states": [], "num_clicks_accrued": [0, 0, 0, 0, 0, 0, 0, 0, 0, 0, 0, 0, 0], "stateRewards": ["", 2, 4, 48, 48, -2, 4, 48, -24, -4, 8, -48, 48], "withholdReward": false, "trial_id": "mdp_407586865939", "block": "test3", "trialIndex": 80, "score": -17.25, "costs": -0.25, "simulationMode": [null, null, null], "rewards": [-2, 4, -24], "path": ["0", "0", "5", "6", "8"], "rt": [1757, 63, 91], "actions": ["right", "right", "down"], "actionTimes": [3348, 3921, 4531], "queries": {"click": {"state": {"target": ["9"], "time": [2345]}, "edge": {"target": [], "time": []}}, "mouseover": {"state": {"target": ["0", "9", "0"], "time": [1713, 2195, 2501]}, "edge": {"target": [], "time": []}}, "mouseout": {"state": {"target": ["8", "0", "0", "9", "0"], "time": [529, 1095, 1828, 2473, 2697]}, "edge": {"target": [], "time": []}}}, "displayed_time": "10.59", "trialTime": 11467, "trial_type": "mouselab-mdp", "trial_index": 93, "time_elapsed": 2180657, "internal_node_id": "0.0-4.0-5.0-16.0"}}, {"uniqueid": "w18229945:a81753297", "current_trial": 94, "dateTime": 1664557184689, "trialdata": {"revealed_states": [], "num_clicks_accrued": [0, 0, 0, 0, 0, 0, 0, 0, 0, 0, 0, 0, 0], "stateRewards": ["", 4, 4, 48, -48, -2, 4, 48, -48, -4, 4, -24, -24], "withholdReward": true, "trial_id": "mdp_753324812898", "block": "test3", "trialIndex": 81, "score": -35.25, "costs": -0.25, "simulationMode": [null, null, null], "rewards": [4, 4, -48], "path": ["0", "0", "1", "2", "4"], "rt": [1664, 117, 521], "actions": ["up", "up", "left"], "actionTimes": [3045, 3680, 4716], "queries": {"click": {"state": {"target": ["1"], "time": [2083]}, "edge": {"target": [], "time": []}}, "mouseover": {"state": {"target": ["1", "8"], "time": [1884, 2299]}, "edge": {"target": [], "time": []}}, "mouseout": {"state": {"target": ["0", "0", "1"], "time": [547, 1831, 2214]}, "edge": {"target": [], "time": []}}}, "displayed_time": "9.38", "trialTime": 10177, "trial_type": "mouselab-mdp", "trial_index": 94, "time_elapsed": 2191381, "internal_node_id": "0.0-4.0-5.0-17.0"}}, {"uniqueid": "w18229945:a81753297", "current_trial": 95, "dateTime": 1664557197568, "trialdata": {"revealed_states": [], "num_clicks_accrued": [0, 0, 0, 0, 0, 0, 0, 0, 0, 0, 0, 0, 0], "stateRewards": ["", -4, -4, 24, -24, 4, 4, 24, 48, 4, -4, 48, -48], "withholdReward": true, "trial_id": "mdp_522385334882", "block": "test3", "trialIndex": 82, "score": -43, "costs": 0, "simulationMode": [null, null, null], "rewards": [4, -4, -48], "path": ["0", "0", "9", "10", "12"], "rt": [512, 24, 42], "actions": ["left", "left", "down"], "actionTimes": [2911, 3457, 4025], "queries": {"click": {"state": {"target": [], "time": []}, "edge": {"target": [], "time": []}}, "mouseover": {"state": {"target": [], "time": []}, "edge": {"target": [], "time": []}}, "mouseout": {"state": {"target": ["8", "0"], "time": [1375, 1726]}, "edge": {"target": [], "time": []}}}, "displayed_time": "11.40", "trialTime": 12330, "trial_type": "mouselab-mdp", "trial_index": 95, "time_elapsed": 2204261, "internal_node_id": "0.0-4.0-5.0-18.0"}}, {"uniqueid": "w18229945:a81753297", "current_trial": 96, "dateTime": 1664557208583, "trialdata": {"revealed_states": [], "num_clicks_accrued": [0, 0, 0, 0, 0, 0, 0, 0, 0, 0, 0, 0, 0], "stateRewards": ["", 2, -8, 48, -24, 2, 8, 24, -24, 4, -4, -48, -48], "withholdReward": true, "trial_id": "mdp_130946197263", "block": "test3", "trialIndex": 83, "score": 47, "costs": 0, "simulationMode": [null, null, null], "rewards": [2, -8, 48], "path": ["0", "0", "1", "2", "3"], "rt": [2009, 12, 590], "actions": ["up", "up", "right"], "actionTimes": [2853, 3386, 4511], "queries": {"click": {"state": {"target": [], "time": []}, "edge": {"target": [], "time": []}}, "mouseover": {"state": {"target": [], "time": []}, "edge": {"target": [], "time": []}}, "mouseout": {"state": {"target": [], "time": []}, "edge": {"target": [], "time": []}}}, "displayed_time": "9.85", "trialTime": 10404, "trial_type": "mouselab-mdp", "trial_index": 96, "time_elapsed": 2215276, "internal_node_id": "0.0-4.0-5.0-19.0"}}, {"uniqueid": "w18229945:a81753297", "current_trial": 97, "dateTime": 1664557220688, "trialdata": {"revealed_states": [], "num_clicks_accrued": [0, 0, 0, 0, 0, 0, 0, 0, 0, 0, 0, 0, 0], "stateRewards": ["", -4, -4, -24, 24, -4, 4, -24, 48, -2, 4, 48, -48], "withholdReward": true, "trial_id": "mdp_774757609669", "block": "test3", "trialIndex": 84, "score": 53, "costs": 0, "simulationMode": [null, null, null], "rewards": [-4, 4, 48], "path": ["0", "0", "5", "6", "8"], "rt": [617, 62, 66], "actions": ["right", "right", "down"], "actionTimes": [1643, 2236, 2835], "queries": {"click": {"state": {"target": [], "time": []}, "edge": {"target": [], "time": []}}, "mouseover": {"state": {"target": [], "time": []}, "edge": {"target": [], "time": []}}, "mouseout": {"state": {"target": [], "time": []}, "edge": {"target": [], "time": []}}}, "displayed_time": "10.03", "trialTime": 11573, "trial_type": "mouselab-mdp", "trial_index": 97, "time_elapsed": 2227380, "internal_node_id": "0.0-4.0-5.0-20.0"}}, {"uniqueid": "w18229945:a81753297", "current_trial": 98, "dateTime": 1664557234138, "trialdata": {"revealed_states": [], "num_clicks_accrued": [0, 0, 0, 0, 0, 0, 0, 0, 0, 0, 0, 0, 0], "stateRewards": ["", 2, -4, -24, 24, 2, 8, 48, 48, 2, -8, 48, -24], "withholdReward": false, "trial_id": "mdp_330392242530", "block": "test3", "trialIndex": 85, "score": 46.75, "costs": -0.25, "simulationMode": [null, null, null], "rewards": [2, -8, 48], "path": ["0", "0", "9", "10", "11"], "rt": [2626, 110, 14], "actions": ["left", "left", "up"], "actionTimes": [3405, 4030, 4567], "queries": {"click": {"state": {"target": ["9"], "time": [2748]}, "edge": {"target": [], "time": []}}, "mouseover": {"state": {"target": ["9"], "time": [2304]}, "edge": {"target": [], "time": []}}, "mouseout": {"state": {"target": ["0"], "time": [2082]}, "edge": {"target": [], "time": []}}}, "displayed_time": "9.78", "trialTime": 12797, "trial_type": "mouselab-mdp", "trial_index": 98, "time_elapsed": 2240830, "internal_node_id": "0.0-4.0-5.0-21.0"}}, {"uniqueid": "w18229945:a81753297", "current_trial": 99, "dateTime": 1664557244519, "trialdata": {"revealed_states": [], "num_clicks_accrued": [0, 0, 0, 0, 0, 0, 0, 0, 0, 0, 0, 0, 0], "stateRewards": ["", -2, -4, -24, 48, -2, -8, -48, -24, 4, 8, 48, 24], "withholdReward": true, "trial_id": "mdp_625355871626", "block": "test3", "trialIndex": 86, "score": 47, "costs": 0, "simulationMode": [null, null, null], "rewards": [-2, -4, 48], "path": ["0", "0", "1", "2", "4"], "rt": [841, 15, 370], "actions": ["up", "up", "left"], "actionTimes": [2217, 2777, 3702], "queries": {"click": {"state": {"target": [], "time": []}, "edge": {"target": [], "time": []}}, "mouseover": {"state": {"target": [], "time": []}, "edge": {"target": [], "time": []}}, "mouseout": {"state": {"target": ["9"], "time": [451]}, "edge": {"target": [], "time": []}}}, "displayed_time": "9.38", "trialTime": 9758, "trial_type": "mouselab-mdp", "trial_index": 99, "time_elapsed": 2251212, "internal_node_id": "0.0-4.0-5.0-22.0"}}, {"uniqueid": "w18229945:a81753297", "current_trial": 100, "dateTime": 1664557255168, "trialdata": {"revealed_states": [], "num_clicks_accrued": [0, 0, 0, 0, 0, 0, 0, 0, 0, 0, 0, 0, 0], "stateRewards": ["", -4, 8, -24, 24, -2, -8, 24, -24, 4, -4, -48, 48], "withholdReward": true, "trial_id": "mdp_297684722007", "block": "test3", "trialIndex": 87, "score": -29, "costs": 0, "simulationMode": [null, null, null], "rewards": [-2, -8, -24], "path": ["0", "0", "5", "6", "8"], "rt": [414, 117, 39], "actions": ["right", "right", "down"], "actionTimes": [1555, 2196, 2787], "queries": {"click": {"state": {"target": [], "time": []}, "edge": {"target": [], "time": []}}, "mouseover": {"state": {"target": [], "time": []}, "edge": {"target": [], "time": []}}, "mouseout": {"state": {"target": [], "time": []}, "edge": {"target": [], "time": []}}}, "displayed_time": "9.14", "trialTime": 9910, "trial_type": "mouselab-mdp", "trial_index": 100, "time_elapsed": 2261860, "internal_node_id": "0.0-4.0-5.0-23.0"}}, {"uniqueid": "w18229945:a81753297", "current_trial": 101, "dateTime": 1664557265432, "trialdata": {"revealed_states": [], "num_clicks_accrued": [0, 0, 0, 0, 0, 0, 0, 0, 0, 0, 0, 0, 0], "stateRewards": ["", -2, -4, -24, -48, -4, -8, -48, 24, -4, -8, -24, -48], "withholdReward": true, "trial_id": "mdp_475782454549", "block": "test3", "trialIndex": 88, "score": -55, "costs": 0, "simulationMode": [null, null, null], "rewards": [-4, -8, -48], "path": ["0", "0", "5", "6", "7"], "rt": [840, 61, 107], "actions": ["right", "right", "up"], "actionTimes": [1870, 2470, 3096], "queries": {"click": {"state": {"target": [], "time": []}, "edge": {"target": [], "time": []}}, "mouseover": {"state": {"target": [], "time": []}, "edge": {"target": [], "time": []}}, "mouseout": {"state": {"target": [], "time": []}, "edge": {"target": [], "time": []}}}, "displayed_time": "9.03", "trialTime": 9534, "trial_type": "mouselab-mdp", "trial_index": 101, "time_elapsed": 2272125, "internal_node_id": "0.0-4.0-5.0-24.0"}}, {"uniqueid": "w18229945:a81753297", "current_trial": 102, "dateTime": 1664557276798, "trialdata": {"revealed_states": [], "num_clicks_accrued": [0, 0, 0, 0, 0, 0, 0, 0, 0, 0, 0, 0, 0], "stateRewards": ["", 2, 4, 48, -48, 2, -4, 48, 24, -2, -8, -24, 48], "withholdReward": false, "trial_id": "mdp_962424406744", "block": "test3", "trialIndex": 89, "score": 42.75, "costs": -0.25, "simulationMode": [null, null, null], "rewards": [-2, -8, 48], "path": ["0", "0", "9", "10", "12"], "rt": [1940, 137, 346], "actions": ["left", "left", "down"], "actionTimes": [3177, 3833, 4698], "queries": {"click": {"state": {"target": ["9"], "time": [2447]}, "edge": {"target": [], "time": []}}, "mouseover": {"state": {"target": ["9"], "time": [1972]}, "edge": {"target": [], "time": []}}, "mouseout": {"state": {"target": ["0"], "time": [1905]}, "edge": {"target": [], "time": []}}}, "displayed_time": "10.24", "trialTime": 10623, "trial_type": "mouselab-mdp", "trial_index": 102, "time_elapsed": 2283490, "internal_node_id": "0.0-4.0-5.0-25.0"}}, {"uniqueid": "w18229945:a81753297", "current_trial": 103, "dateTime": 1664557288786, "trialdata": {"revealed_states": [], "num_clicks_accrued": [0, 0, 0, 0, 0, 0, 0, 0, 0, 0, 0, 0, 0], "stateRewards": ["", 4, -4, 48, -48, 4, -4, 24, -24, 4, 8, -24, -48], "withholdReward": true, "trial_id": "mdp_433630527224", "block": "test3", "trialIndex": 90, "score": 53, "costs": 0, "simulationMode": [null, null, null], "rewards": [4, -4, 48], "path": ["0", 