{"condition": 1, "counterbalance": 0, "assignmentId": "a45105600", "workerId": "w91959313", "hitId": "h56928407", "currenttrial": 4, "bonus": 0, "data": [{"current_trial": 0, "dateTime": 1664555075942, "trialdata": {"internal_node_id": "0.0-0.0", "success": true, "time_elapsed": 6012, "trial_index": 0, "trial_type": "fullscreen"}, "uniqueid": "w91959313:a45105600"}, {"current_trial": 1, "dateTime": 1664555109927, "trialdata": {"internal_node_id": "0.0-1.0", "rt": 33967, "time_elapsed": 40002, "trial_id": "exp_instructions_no_distractor", "trial_index": 1, "trial_type": "instructions", "view_history": [{"page_index": 0, "viewing_time": 33964}]}, "uniqueid": "w91959313:a45105600"}, {"current_trial": 2, "dateTime": 1664555113548, "trialdata": {"internal_node_id": "0.0-2.0-0.0", "success": true, "time_elapsed": 43623, "trial_index": 2, "trial_type": "fullscreen"}, "uniqueid": "w91959313:a45105600"}, {"current_trial": 3, "dateTime": 1664555280573, "trialdata": {"internal_node_id": "0.0-2.0-1.0", "rt": 167014, "time_elapsed": 210648, "trial_id": "mouselab_instructions_1", "trial_index": 3, "trial_type": "instructions", "view_history": [{"page_index": 0, "viewing_time": 74203}, {"page_index": 1, "viewing_time": 39894}, {"page_index": 2, "viewing_time": 14390}, {"page_index": 3, "viewing_time": 9598}, {"page_index": 4, "viewing_time": 28928}]}, "uniqueid": "w91959313:a45105600"}], "questiondata": {"params": {"CODE": "C6DMOQA6", "MIN_TIME": 7, "inspectCost": 0.25, "startTime": "Fri Sep 30 2022 18:40:03 GMT+0200 (South Africa Standard Time)", "bonusRate": 0.002, "variance": "2_4_24", "branching": "312"}}, "eventdata": [{"eventtype": "initialized", "interval": 0, "timestamp": 1664555067814, "value": null}, {"eventtype": "window_resize", "interval": 55, "timestamp": 1664555067869, "value": [980, 1861]}, {"eventtype": "window_resize", "interval": 507, "timestamp": 1664555068376, "value": [980, 1861]}, {"eventtype": "window_resize", "interval": 6918, "timestamp": 1664555075294, "value": [384, 833]}, {"eventtype": "window_resize", "interval": 11466, "timestamp": 1664555086760, "value": [980, 2003]}, {"eventtype": "window_resize", "interval": 218, "timestamp": 1664555086978, "value": [980, 1861]}, {"eventtype": "window_resize", "interval": 25856, "timestamp": 1664555112834, "value": [384, 833]}, {"eventtype": "focus", "interval": 4414, "timestamp": 1664555117248, "value": "off"}, {"eventtype": "focus", "interval": 6023, "timestamp": 1664555123271, "value": "on"}, {"eventtype": "window_resize", "interval": 379, "timestamp": 1664555123650, "value": [980, 1861]}, {"eventtype": "window_resize", "value": [980, 1861], "timestamp": 1664556003290, "interval": 879640}], "useragent": "Mozilla/5.0 (Linux; Android 12; SM-A135F) AppleWebKit/537.36 (KHTML, like Gecko) Chrome/103.0.0.0 Mobile Safari/537.36", "mode": "live", "id": "w91959313:a45105600", "status": "user data saved", "Beginhit": "2022-09-30 16:24:26.751336", "Beginexp": "2022-09-30 16:24:37.586722", "Endhit": null, "psiturkStatus": 2, "browser": "<redacted>", "platform": "android", "language": "en-ZA"}