{"condition": 1, "counterbalance": 0, "assignmentId": "a19164086", "workerId": "w14455240", "hitId": "h96837212", "currenttrial": 137, "bonus": 0, "data": [{"uniqueid": "w14455240:a19164086", "current_trial": 0, "dateTime": 1664556132241, "trialdata": {"success": true, "trial_type": "fullscreen", "trial_index": 0, "time_elapsed": 6666, "internal_node_id": "0.0-0.0"}}, {"uniqueid": "w14455240:a19164086", "current_trial": 1, "dateTime": 1664556472198, "trialdata": {"view_history": [{"page_index": 0, "viewing_time": 339953}], "rt": 339954, "trial_id": "exp_instructions_no_distractor", "trial_type": "instructions", "trial_index": 1, "time_elapsed": 346623, "internal_node_id": "0.0-1.0"}}, {"uniqueid": "w14455240:a19164086", "current_trial": 2, "dateTime": 1664556475504, "trialdata": {"success": true, "trial_type": "fullscreen", "trial_index": 2, "time_elapsed": 349928, "internal_node_id": "0.0-2.0-0.0"}}, {"uniqueid": "w14455240:a19164086", "current_trial": 3, "dateTime": 1664556635547, "trialdata": {"view_history": [{"page_index": 0, "viewing_time": 67176}, {"page_index": 1, "viewing_time": 40431}, {"page_index": 2, "viewing_time": 13287}, {"page_index": 3, "viewing_time": 14778}, {"page_index": 4, "viewing_time": 24371}], "rt": 160043, "trial_id": "mouselab_instructions_1", "trial_type": "instructions", "trial_index": 3, "time_elapsed": 509972, "internal_node_id": "0.0-2.0-1.0"}}, {"uniqueid": "w14455240:a19164086", "current_trial": 4, "dateTime": 1664556652747, "trialdata": {"revealed_states": [], "num_clicks_accrued": [0, 0, 0, 0, 0, 0, 0, 0, 0, 0, 0, 0, 0], "stateRewards": ["", 10, -10, -10, 10, 10, 10, 10, -10, 10, -10, 10, 10], "withholdReward": false, "trial_id": "practice_1", "block": "test", "trialIndex": 0, "score": -8, "costs": 0, "simulationMode": [null, null, null], "rewards": [10, -10, -10], "path": ["0", "0", "1", "2", "3"], "rt": [2501, 1291, 395], "actions": ["up", "up", "right"], "actionTimes": [10382, 12190, 13094], "queries": {"click": {"state": {"target": [], "time": []}, "edge": {"target": [], "time": []}}, "mouseover": {"state": {"target": ["5", "6"], "time": [8500, 8517]}, "edge": {"target": [], "time": []}}, "mouseout": {"state": {"target": ["5", "6", "5", "5", "0", "5", "6"], "time": [549, 3649, 3816, 7482, 8483, 8516, 8533]}, "edge": {"target": [], "time": []}}}, "displayed_time": "13.60", "trialTime": 16789, "trial_type": "mouselab-mdp", "trial_index": 4, "time_elapsed": 527172, "internal_node_id": "0.0-2.0-2.0-0.0"}}, {"uniqueid": "w14455240:a19164086", "current_trial": 5, "dateTime": 1664556665610, "trialdata": {"revealed_states": [], "num_clicks_accrued": [0, 0, 0, 0, 0, 0, 0, 0, 0, 0, 0, 0, 0], "stateRewards": ["", 10, -10, 10, -10, -10, -10, 10, 10, 10, 10, -10, -10], "withholdReward": false, "trial_id": "practice_2", "block": "test", "trialIndex": 1, "score": 11.5, "costs": -0.5, "simulationMode": [null, null, null], "rewards": [10, 10, -10], "path": ["0", "0", "9", "10", "11"], "rt": [3264, 824, 171], "actions": ["left", "left", "up"], "actionTimes": [6242, 7578, 8259], "queries": {"click": {"state": {"target": ["5", "9"], "time": [3569, 5033]}, "edge": {"target": [], "time": []}}, "mouseover": {"state": {"target": ["5", "6", "6", "0", "9", "0"], "time": [3204, 3872, 4421, 4637, 4787, 5287]}, "edge": {"target": [], "time": []}}, "mouseout": {"state": {"target": ["6", "5", "0", "5", "6", "6", "5", "0", "9", "0", "5"], "time": [1354, 2637, 3154, 3871, 3904, 4454, 4588, 4704, 5271, 5304, 5354]}, "edge": {"target": [], "time": []}}}, "displayed_time": "8.79", "trialTime": 12841, "trial_type": "mouselab-mdp", "trial_index": 5, "time_elapsed": 540035, "internal_node_id": "0.0-2.0-2.0-1.0"}}, {"uniqueid": "w14455240:a19164086", "current_trial": 6, "dateTime": 1664556723106, "trialdata": {"view_history": [{"page_index": 0, "viewing_time": 38112}, {"page_index": 1, "viewing_time": 15654}, {"page_index": 2, "viewing_time": 3728}], "rt": 57494, "trial_id": "mouselab_instructions_2_scarce", "trial_type": "instructions", "trial_index": 6, "time_elapsed": 597531, "internal_node_id": "0.0-2.0-3.0"}}, {"uniqueid": "w14455240:a19164086", "current_trial": 7, "dateTime": 1664556782090, "trialdata": {"rt": 58981, "response": {"Q0": "$-48 to $48", "Q1": "The cost is always $0.25.", "Q2": "The better I perform the higher my bonus will be.", "Q3": "No, the amount of cash at each node of the web may be different each time.", "Q4": "The values of the nodes walked through from start to finish.", "Q5": "No, the spider might forget to count the money on some rounds."}, "question_order": [0, 1, 2, 3, 4, 5], "correct": {"Q0": "$-48 to $48", "Q1": "The cost is always $0.25.", "Q2": "The better I perform the higher my bonus will be.", "Q3": "No, the amount of cash at each node of the web may be different each time.", "Q4": "The values of the nodes walked through from start to finish.", "Q5": "No, the spider might forget to count the money on some rounds."}, "trial_id": "mouselab_quiz_scarce", "trial_type": "survey-multi-choice", "trial_index": 7, "time_elapsed": 656515, "internal_node_id": "0.0-2.0-4.0"}}, {"uniqueid": "w14455240:a19164086", "current_trial": 8, "dateTime": 1664556796723, "trialdata": {"rt": 14628, "stimulus": "\n<h1> Get ready to start the game! </h1>\n\nThank you for reading the instructions. Get ready start with the first of 4 block(s) of this game.\n<br><br>\nIn this first block, you will complete 30 rounds of this game before moving on.\n<br><br>\nRemember, the more money the spider gets, the bigger your bonus will be!\n<br><br>\n<div style='text-align: center;'>Press <code>space</code> to begin.</div>\n\n<br><br>\n(If, at any point, the <code>space</code> key does not take you to the next page, click once on the text and try again.)", "response": " ", "trial_id": "mdp_ready_1", "trial_type": "html-keyboard-response", "trial_index": 8, "time_elapsed": 671148, "internal_node_id": "0.0-4.0-0.0"}}, {"uniqueid": "w14455240:a19164086", "current_trial": 9, "dateTime": 1664556810323, "trialdata": {"revealed_states": [], "num_clicks_accrued": [0, 0, 0, 0, 0, 0, 0, 0, 0, 0, 0, 0, 0], "stateRewards": ["", -4, 8, 24, 24, -2, 8, -48, 48, 4, -8, 48, -48], "withholdReward": true, "trial_id": "mdp_295249220524", "block": "test1", "trialIndex": 2, "score": -47.5, "costs": -0.5, "simulationMode": [null, null, null], "rewards": [4, -8, -48], "path": ["0", "0", "9", "10", "12"], "rt": [3642, 681, 304], "actions": ["left", "left", "down"], "actionTimes": [4856, 6049, 6855], "queries": {"click": {"state": {"target": ["5", "9"], "time": [2106, 3361]}, "edge": {"target": [], "time": []}}, "mouseover": {"state": {"target": ["0", "5", "0", "9"], "time": [1484, 1784, 2934, 3167]}, "edge": {"target": [], "time": []}}, "mouseout": {"state": {"target": ["0", "0", "5", "0", "9"], "time": [1000, 1684, 2417, 2984, 3585]}, "edge": {"target": [], "time": []}}}, "displayed_time": "11.21", "trialTime": 13567, "trial_type": "mouselab-mdp", "trial_index": 9, "time_elapsed": 684747, "internal_node_id": "0.0-4.0-1.0-0.0"}}, {"uniqueid": "w14455240:a19164086", "current_trial": 10, "dateTime": 1664556820499, "trialdata": {"revealed_states": [], "num_clicks_accrued": [0, 0, 0, 0, 0, 0, 0, 0, 0, 0, 0, 0, 0], "stateRewards": ["", 2, 8, 24, -48, 4, 8, 24, 48, 2, -8, -24, 24], "withholdReward": false, "trial_id": "mdp_939899431582", "block": "test1", "trialIndex": 3, "score": -25.25, "costs": -0.25, "simulationMode": [null, null, null], "rewards": [2, -8, -24], "path": ["0", "0", "9", "10", "11"], "rt": [1355, 488, 136], "actions": ["left", "left", "up"], "actionTimes": [3042, 4042, 4690], "queries": {"click": {"state": {"target": ["9"], "time": [2121]}, "edge": {"target": [], "time": []}}, "mouseover": {"state": {"target": ["9"], "time": [1920]}, "edge": {"target": [], "time": []}}, "mouseout": {"state": {"target": ["0", "9", "0", "9"], "time": [670, 1453, 1870, 2270]}, "edge": {"target": [], "time": []}}}, "displayed_time": "8.69", "trialTime": 10147, "trial_type": "mouselab-mdp", "trial_index": 10, "time_elapsed": 694924, "internal_node_id": "0.0-4.0-1.0-1.0"}}, {"uniqueid": "w14455240:a19164086", "current_trial": 11, "dateTime": 1664556831715, "trialdata": {"revealed_states": [], "num_clicks_accrued": [0, 0, 0, 0, 0, 0, 0, 0, 0, 0, 0, 0, 0], "stateRewards": ["", -2, 8, 48, 48, 4, -8, -48, 48, 2, -4, -48, 48], "withholdReward": false, "trial_id": "mdp_132958048709", "block": "test1", "trialIndex": 4, "score": 57.5, "costs": -1.5, "simulationMode": [null, null, null], "rewards": [-2, 8, 48], "path": ["0", "0", "1", "2", "4"], "rt": [6317, 210, 166], "actions": ["up", "up", "left"], "actionTimes": [8193, 8938, 9610], "queries": {"click": {"state": {"target": ["9", "1", "10", "11", "2", "4"], "time": [2706, 3497, 4133, 5011, 6331, 7069]}, "edge": {"target": [], "time": []}}, "mouseover": {"state": {"target": ["9", "9", "1", "10", "11", "2", "4"], "time": [2077, 2510, 3276, 3911, 4643, 5593, 6877]}, "edge": {"target": [], "time": []}}, "mouseout": {"state": {"target": ["9", "0", "9", "9", "9", "1", "10", "11", "2", "4", "1"], "time": [1660, 2027, 2143, 2943, 3127, 3710, 4494, 5243, 6710, 7327, 7577]}, "edge": {"target": [], "time": []}}}, "displayed_time": "10.14", "trialTime": 11186, "trial_type": "mouselab-mdp", "trial_index": 11, "time_elapsed": 706140, "internal_node_id": "0.0-4.0-1.0-2.0"}}, {"uniqueid": "w14455240:a19164086", "current_trial": 12, "dateTime": 1664556842786, "trialdata": {"revealed_states": [], "num_clicks_accrued": [0, 0, 0, 0, 0, 0, 0, 0, 0, 0, 0, 0, 0], "stateRewards": ["", 2, -4, 48, -48, 2, 4, -24, 24, -4, -8, 24, -48], "withholdReward": true, "trial_id": "mdp_238810765895", "block": "test1", "trialIndex": 5, "score": 32.5, "costs": -2.5, "simulationMode": [null, null, null], "rewards": [2, 4, 24], "path": ["0", "0", "5", "6", "8"], "rt": [6660, 7, 123], "actions": ["right", "right", "down"], "actionTimes": [7674, 8203, 8835], "queries": {"click": {"state": {"target": ["1", "2", "4", "9", "10", "11", "5", "6", "7", "8"], "time": [1387, 1850, 2227, 2756, 3137, 3460, 5309, 5723, 6040, 6518]}, "edge": {"target": [], "time": []}}, "mouseover": {"state": {"target": ["1", "2", "4", "9", "10", "11", "5", "6", "7", "8"], "time": [1245, 1678, 2029, 2579, 2962, 3379, 5162, 5479, 5912, 6362]}, "edge": {"target": [], "time": []}}, "mouseout": {"state": {"target": ["1", "0", "1", "2", "4", "9", "10", "11", "10", "9", "5", "6", "7", "6", "8"], "time": [762, 1145, 1629, 1995, 2395, 2929, 3295, 3695, 3779, 4845, 5445, 5862, 6246, 6329, 6745]}, "edge": {"target": [], "time": []}}}, "displayed_time": "10.02", "trialTime": 11042, "trial_type": "mouselab-mdp", "trial_index": 12, "time_elapsed": 717211, "internal_node_id": "0.0-4.0-1.0-3.0"}}, {"uniqueid": "w14455240:a19164086", "current_trial": 13, "dateTime": 1664556854171, "trialdata": {"revealed_states": [], "num_clicks_accrued": [0, 0, 0, 0, 0, 0, 0, 0, 0, 0, 0, 0, 0], "stateRewards": ["", 2, 8, -48, -24, 2, -4, -48, 24, 2, -4, -24, -24], "withholdReward": true, "trial_id": "mdp_954659099093", "block": "test1", "trialIndex": 6, "score": 24, "costs": -3, "simulationMode": [null, null, null], "rewards": [2, -4, 24], "path": ["0", "0", "5", "6", "8"], "rt": [6930, 89, 114], "actions": ["right", "right", "down"], "actionTimes": [7707, 8330, 8955], "queries": {"click": {"state": {"target": ["1", "2", "3", "5", "9", "10", "11", "12", "6", "7", "8", "4"], "time": [1190, 1603, 1922, 2442, 2968, 3308, 3613, 4113, 4825, 5227, 5665, 6223]}, "edge": {"target": [], "time": []}}, "mouseover": {"state": {"target": ["1", "2", "3", "5", "9", "10", "11", "12", "6", "7", "8", "4"], "time": [990, 1457, 1773, 2240, 2757, 3140, 3540, 3924, 4690, 5040, 5590, 6073]}, "edge": {"target": [], "time": []}}, "mouseout": {"state": {"target": ["0", "1", "2", "3", "5", "9", "10", "11", "10", "12", "6", "7", "7", "6", "8", "5", "1", "4", "1", "5"], "time": [890, 1373, 1740, 2107, 2607, 3107, 3474, 3773, 3890, 4340, 4990, 5257, 5457, 5540, 5840, 5907, 5957, 6340, 6374, 10373]}, "edge": {"target": [], "time": []}}}, "displayed_time": "9.78", "trialTime": 11355, "trial_type": "mouselab-mdp", "trial_index": 13, "time_elapsed": 728596, "internal_node_id": "0.0-4.0-1.0-4.0"}}, {"uniqueid": "w14455240:a19164086", "current_trial": 14, "dateTime": 1664556866458, "trialdata": {"revealed_states": [], "num_clicks_accrued": [0, 0, 0, 0, 0, 0, 0, 0, 0, 0, 0, 0, 0], "stateRewards": ["", 2, 4, 48, -48, 2, 8, -24, 48, 4, 8, 48, -48], "withholdReward": true, "trial_id": "mdp_110142964375", "block": "test1", "trialIndex": 7, "score": 62.25, "costs": -0.75, "simulationMode": [null, null, null], "rewards": [2, 8, 48], "path": ["0", "0", "5", "6", "8"], "rt": [1642, 80, 88], "actions": ["right", "right", "down"], "actionTimes": [2179, 2786, 3378], "queries": {"click": {"state": {"target": ["5", "6", "8"], "time": [862, 1159, 1490]}, "edge": {"target": [], "time": []}}, "mouseover": {"state": {"target": ["5", "6", "8"], "time": [723, 1089, 1389]}, "edge": {"target": [], "time": []}}, "mouseout": {"state": {"target": ["0", "5", "6", "8", "8"], "time": [673, 1006, 1306, 4906, 5156]}, "edge": {"target": [], "time": []}}}, "displayed_time": "9.54", "trialTime": 12258, "trial_type": "mouselab-mdp", "trial_index": 14, "time_elapsed": 740883, "internal_node_id": "0.0-4.0-1.0-5.0"}}, {"uniqueid": "w14455240:a19164086", "current_trial": 15, "dateTime": 1664556877282, "trialdata": {"revealed_states": [], "num_clicks_accrued": [0, 0, 0, 0, 0, 0, 0, 0, 0, 0, 0, 0, 0], "stateRewards": ["", -2, 8, 24, -48, -4, -8, -24, -48, -4, 8, -24, 48], "withholdReward": true, "trial_id": "mdp_464339499860", "block": "test1", "trialIndex": 8, "score": 55.5, "costs": -1.5, "simulationMode": [null, null, null], "rewards": [-4, 8, 48], "path": ["0", "0", "9", "10", "12"], "rt": [3171, 15, 34], "actions": ["left", "left", "down"], "actionTimes": [3532, 4052, 4604], "queries": {"click": {"state": {"target": ["5", "6", "8", "9", "10", "12"], "time": [860, 1232, 1559, 2126, 2434, 2739]}, "edge": {"target": [], "time": []}}, "mouseover": {"state": {"target": ["5", "6", "8", "0", "9", "10", "12", "11"], "time": [537, 1087, 1470, 1786, 1936, 2287, 2653, 3003]}, "edge": {"target": [], "time": []}}, "mouseout": {"state": {"target": ["0", "5", "6", "8", "0", "9", "10", "12", "10", "11"], "time": [503, 1020, 1420, 1703, 1820, 2254, 2587, 2870, 2954, 10303]}, "edge": {"target": [], "time": []}}}, "displayed_time": "8.36", "trialTime": 10779, "trial_type": "mouselab-mdp", "trial_index": 15, "time_elapsed": 751707, "internal_node_id": "0.0-4.0-1.0-6.0"}}, {"uniqueid": "w14455240:a19164086", "current_trial": 16, "dateTime": 1664556887243, "trialdata": {"revealed_states": [], "num_clicks_accrued": [0, 0, 0, 0, 0, 0, 0, 0, 0, 0, 0, 0, 0], "stateRewards": ["", 2, 4, -24, -24, 4, 8, -48, 48, 2, 4, -24, -48], "withholdReward": true, "trial_id": "mdp_565165082781", "block": "test1", "trialIndex": 9, "score": 63.25, "costs": -1.75, "simulationMode": [null, null, null], "rewards": [4, 8, 48], "path": ["0", "0", "5", "6", "8"], "rt": [4458, 34, 44], "actions": ["right", "right", "down"], "actionTimes": [5219, 5770, 6347], "queries": {"click": {"state": {"target": ["9", "10", "12", "11", "5", "7", "8"], "time": [1093, 1414, 1658, 2520, 3037, 3771, 4214]}, "edge": {"target": [], "time": []}}, "mouseover": {"state": {"target": ["9", "10", "12", "11", "5", "6", "7", "6", "8"], "time": [953, 1353, 1620, 2436, 2886, 3553, 3620, 3986, 4119]}, "edge": {"target": [], "time": []}}, "mouseout": {"state": {"target": ["0", "9", "10", "12", "11", "5", "6", "7", "6", "8", "1", "0"], "time": [936, 1286, 1570, 2070, 2736, 3286, 3587, 3936, 4036, 4352, 7353, 7386]}, "edge": {"target": [], "time": []}}}, "displayed_time": "8.76", "trialTime": 9923, "trial_type": "mouselab-mdp", "trial_index": 16, "time_elapsed": 761668, "internal_node_id": "0.0-4.0-1.0-7.0"}}, {"uniqueid": "w14455240:a19164086", "current_trial": 17, "dateTime": 1664556898940, "trialdata": {"revealed_states": [], "num_clicks_accrued": [0, 0, 0, 0, 0, 0, 0, 0, 0, 0, 0, 0, 0], "stateRewards": ["", -2, 8, -48, 48, -4, -8, 24, 24, -2, -4, 48, -48], "withholdReward": true, "trial_id": "mdp_867247318592", "block": "test1", "trialIndex": 10, "score": 16.5, "costs": -0.5, "simulationMode": [null, null, null], "rewards": [-4, -8, 24], "path": ["0", "0", "5", "6", "7"], "rt": [1933, 63, 8], "actions": ["right", "right", "up"], "actionTimes": [3136, 3713, 4224], "queries": {"click": {"state": {"target": ["8", "7"], "time": [1552, 2076]}, "edge": {"target": [], "time": []}}, "mouseover": {"state": {"target": ["0", "8", "6", "7", "5"], "time": [1265, 1465, 1766, 1933, 2249]}, "edge": {"target": [], "time": []}}, "mouseout": {"state": {"target": ["8", "6", "7", "5", "0", "8", "6", "7", "5"], "time": [548, 648, 815, 882, 1315, 1699, 1849, 2199, 2266]}, "edge": {"target": [], "time": []}}}, "displayed_time": "10.20", "trialTime": 11665, "trial_type": "mouselab-mdp", "trial_index": 17, "time_elapsed": 773364, "internal_node_id": "0.0-4.0-1.0-8.0"}}, {"uniqueid": "w14455240:a19164086", "current_trial": 18, "dateTime": 1664556912931, "trialdata": {"revealed_states": [], "num_clicks_accrued": [0, 0, 0, 0, 0, 0, 0, 0, 0, 0, 0, 0, 0], "stateRewards": ["", -4, -8, -24, -48, -2, -8, 24, -48, -4, -8, 24, -48], "withholdReward": false, "trial_id": "mdp_621812384092", "block": "test1", "trialIndex": 11, "score": 18, "costs": -1, "simulationMode": [null, null, null], "rewards": [-2, -8, 24], "path": ["0", "0", "5", "6", "7"], "rt": [2787, 72, 57], "actions": ["right", "right", "up"], "actionTimes": [3226, 3803, 4371], "queries": {"click": {"state": {"target": ["12", "11", "7", "8"], "time": [850, 1615, 2056, 2394]}, "edge": {"target": [], "time": []}}, "mouseover": {"state": {"target": ["9", "12", "10", "11", "1", "7", "6", "8"], "time": [564, 680, 1114, 1314, 1781, 1880, 2230, 2330]}, "edge": {"target": [], "time": []}}, "mouseout": {"state": {"target": ["0", "9", "12", "10", "11", "1", "7", "6", "8"], "time": [347, 597, 1080, 1164, 1730, 1797, 2213, 2280, 2613]}, "edge": {"target": [], "time": []}}}, "displayed_time": "9.44", "trialTime": 13955, "trial_type": "mouselab-mdp", "trial_index": 18, "time_elapsed": 787356, "internal_node_id": "0.0-4.0-1.0-9.0"}}, {"uniqueid": "w14455240:a19164086", "current_trial": 19, "dateTime": 1664556927171, "trialdata": {"revealed_states": [], "num_clicks_accrued": [0, 0, 0, 0, 0, 0, 0, 0, 0, 0, 0, 0, 0], "stateRewards": ["", -2, 8, -24, 24, -4, -8, -24, 48, -2, -8, -48, 48], "withholdReward": true, "trial_id": "mdp_238332601315", "block": "test1", "trialIndex": 12, "score": 42, "costs": -1, "simulationMode": [null, null, null], "rewards": [-2, -8, 48], "path": ["0", "0", "9", "10", "12"], "rt": [2677, 488, 169], "actions": ["left", "left", "down"], "actionTimes": [3624, 4617, 5297], "queries": {"click": {"state": {"target": ["6", "7", "8", "12"], "time": [1504, 1945, 2269, 2735]}, "edge": {"target": [], "time": []}}, "mouseover": {"state": {"target": ["0", "5", "6", "7", "8", "12"], "time": [1028, 1094, 1161, 1861, 2144, 2628]}, "edge": {"target": [], "time": []}}, "mouseout": {"state": {"target": ["0", "0", "5", "6", "7", "6", "8", "12"], "time": [845, 1061, 1128, 1744, 2061, 2128, 2428, 2911]}, "edge": {"target": [], "time": []}}}, "displayed_time": "9.95", "trialTime": 14209, "trial_type": "mouselab-mdp", "trial_index": 19, "time_elapsed": 801596, "internal_node_id": "0.0-4.0-1.0-10.0"}}, {"uniqueid": "w14455240:a19164086", "current_trial": 20, "dateTime": 1664556937803, "trialdata": {"revealed_states": [], "num_clicks_accrued": [0, 0, 0, 0, 0, 0, 0, 0, 0, 0, 0, 0, 0], "stateRewards": ["", 2, -4, 48, -24, 4, -8, -24, 48, -2, -4, 24, -48], "withholdReward": true, "trial_id": "mdp_357328205509", "block": "test1", "trialIndex": 13, "score": 48.5, "costs": -0.5, "simulationMode": [null, null, null], "rewards": [4, -8, 48], "path": ["0", "0", "5", "6", "8"], "rt": [1905, 382, 82], "actions": ["right", "right", "down"], "actionTimes": [2852, 3749, 4333], "queries": {"click": {"state": {"target": ["8", "12"], "time": [1679, 2255]}, "edge": {"target": [], "time": []}}, "mouseover": {"state": {"target": ["0", "5", "6", "8", "12"], "time": [1050, 1133, 1267, 1568, 2150]}, "edge": {"target": [], "time": []}}, "mouseout": {"state": {"target": ["0", "0", "5", "6", "8", "12"], "time": [800, 1084, 1217, 1534, 1850, 2417]}, "edge": {"target": [], "time": []}}}, "displayed_time": "9.95", "trialTime": 10597, "trial_type": "mouselab-mdp", "trial_index": 20, "time_elapsed": 812228, "internal_node_id": "0.0-4.0-1.0-11.0"}}, {"uniqueid": "w14455240:a19164086", "current_trial": 21, "dateTime": 1664556946770, "trialdata": {"revealed_states": [], "num_clicks_accrued": [0, 0, 0, 0, 0, 0, 0, 0, 0, 0, 0, 0, 0], "stateRewards": ["", 4, -4, 48, -48, 4, -4, 24, -24, 4, 8, -24, -48], "withholdReward": true, "trial_id": "mdp_433630527224", "block": "test1", "trialIndex": 14, "score": 28, "costs": -1, "simulationMode": [null, null, null], "rewards": [4, -4, 24], "path": ["0", "0", "5", "6", "7"], "rt": [3475, 502, 78], "actions": ["right", "right", "up"], "actionTimes": [4419, 5426, 6019], "queries": {"click": {"state": {"target": ["8", "7", "11", "12"], "time": [1365, 2668, 3281, 3797]}, "edge": {"target": [], "time": []}}, "mouseover": {"state": {"target": ["8", "7", "9", "9", "7", "1", "11", "10", "12"], "time": [1207, 1924, 2108, 2258, 2591, 2907, 3191, 3558, 3674]}, "edge": {"target": [], "time": []}}, "mouseout": {"state": {"target": ["8", "0", "8", "7", "9", "9", "7", "1", "11", "10", "12"], "time": [658, 1074, 1574, 2008, 2124, 2275, 2824, 2924, 3508, 3624, 8557]}, "edge": {"target": [], "time": []}}}, "displayed_time": "7.95", "trialTime": 8938, "trial_type": "mouselab-mdp", "trial_index": 21, "time_elapsed": 821195, "internal_node_id": "0.0-4.0-1.0-12.0"}}, {"uniqueid": "w14455240:a19164086", "current_trial": 22, "dateTime": 1664556957282, "trialdata": {"revealed_states": [], "num_clicks_accrued": [0, 0, 0, 0, 0, 0, 0, 0, 0, 0, 0, 0, 0], "stateRewards": ["", 4, 8, 48, -48, -4, 8, -24, -24, -4, 8, 48, 48], "withholdReward": true, "trial_id": "mdp_377640328420", "block": "test1", "trialIndex": 15, "score": 56, "costs": -1, "simulationMode": [null, null, null], "rewards": [-4, 8, 48], "path": ["0", "0", "9", "10", "11"], "rt": [2732, 93, 21], "actions": ["left", "left", "up"], "actionTimes": [3674, 4282, 4810], "queries": {"click": {"state": {"target": ["7", "8", "12", "11"], "time": [1317, 1712, 2550, 3006]}, "edge": {"target": [], "time": []}}, "mouseover": {"state": {"target": ["5", "7", "6", "8", "12", "10", "11"], "time": [1072, 1189, 1522, 1622, 2255, 2738, 2872]}, "edge": {"target": [], "time": []}}, "mouseout": {"state": {"target": ["5", "5", "7", "6", "8", "12", "10", "11", "9", "12"], "time": [488, 1105, 1489, 1572, 1872, 2721, 2822, 8388, 8672, 9372]}, "edge": {"target": [], "time": []}}}, "displayed_time": "9.94", "trialTime": 10481, "trial_type": "mouselab-mdp", "trial_index": 22, "time_elapsed": 831707, "internal_node_id": "0.0-4.0-1.0-13.0"}}, {"uniqueid": "w14455240:a19164086", "current_trial": 23, "dateTime": 1664556966995, "trialdata": {"revealed_states": [], "num_clicks_accrued": [0, 0, 0, 0, 0, 0, 0, 0, 0, 0, 0, 0, 0], "stateRewards": ["", 4, -8, 48, -24, 4, -4, -48, -48, 4, -4, 24, 24], "withholdReward": false, "trial_id": "mdp_221562928904", "block": "test1", "trialIndex": 16, "score": 28, "costs": -1, "simulationMode": [null, null, null], "rewards": [4, -4, 24], "path": ["0", "0", "9", "10", "12"], "rt": [2222, 3, 29], "actions": ["left", "left", "down"], "actionTimes": [3017, 3529, 4089], "queries": {"click": {"state": {"target": ["8", "7", "11", "12"], "time": [1191, 1609, 2114, 2375]}, "edge": {"target": [], "time": []}}, "mouseover": {"state": {"target": ["8", "6", "7", "9", "10", "11", "10", "12"], "time": [1010, 1377, 1493, 1793, 1876, 1994, 2243, 2327]}, "edge": {"target": [], "time": []}}, "mouseout": {"state": {"target": ["5", "0", "0", "8", "6", "7", "9", "10", "11", "10", "12"], "time": [560, 610, 910, 1343, 1460, 1726, 1826, 1943, 2210, 2277, 4794]}, "edge": {"target": [], "time": []}}}, "displayed_time": "8.80", "trialTime": 9681, "trial_type": "mouselab-mdp", "trial_index": 23, "time_elapsed": 841420, "internal_node_id": "0.0-4.0-1.0-14.0"}}, {"uniqueid": "w14455240:a19164086", "current_trial": 24, "dateTime": 1664556977066, "trialdata": {"revealed_states": [], "num_clicks_accrued": [0, 0, 0, 0, 0, 0, 0, 0, 0, 0, 0, 0, 0], "stateRewards": ["", -2, -4, -24, -48, -2, 8, -48, 24, 4, -4, -24, -24], "withholdReward": true, "trial_id": "mdp_915304165774", "block": "test1", "trialIndex": 17, "score": 34, "costs": -1, "simulationMode": [null, null, null], "rewards": [-2, 8, 24], "path": ["0", "0", "5", "6", "8"], "rt": [3069, 99, 113], "actions": ["right", "right", "down"], "actionTimes": [3860, 4492, 5109], "queries": {"click": {"state": {"target": ["12", "11", "7", "8"], "time": [1860, 2287, 2751, 3113]}, "edge": {"target": [], "time": []}}, "mouseover": {"state": {"target": ["0", "12", "10", "11", "7", "6", "8"], "time": [1209, 1729, 2060, 2143, 2693, 2910, 2976]}, "edge": {"target": [], "time": []}}, "mouseout": {"state": {"target": ["0", "0", "12", "10", "11", "7", "6", "8"], "time": [993, 1526, 2009, 2109, 2410, 2893, 2943, 3276]}, "edge": {"target": [], "time": []}}}, "displayed_time": "8.79", "trialTime": 10035, "trial_type": "mouselab-mdp", "trial_index": 24, "time_elapsed": 851491, "internal_node_id": "0.0-4.0-1.0-15.0"}}, {"uniqueid": "w14455240:a19164086", "current_trial": 25, "dateTime": 1664556988291, "trialdata": {"revealed_states": [], "num_clicks_accrued": [0, 0, 0, 0, 0, 0, 0, 0, 0, 0, 0, 0, 0], "stateRewards": ["", 2, 8, -24, -48, -4, 8, -48, -48, -2, -8, -24, -24], "withholdReward": false, "trial_id": "mdp_978177451072", "block": "test1", "trialIndex": 18, "score": -10, "costs": -1, "simulationMode": [null, null, null], "rewards": [2, 8, -24], "path": ["0", "0", "1", "2", "3"], "rt": [2202, 61, 47], "actions": ["up", "up", "right"], "actionTimes": [4347, 4922, 5474], "queries": {"click": {"state": {"target": ["8", "7", "11", "12"], "time": [2550, 2975, 3422, 3702]}, "edge": {"target": [], "time": []}}, "mouseover": {"state": {"target": ["0", "8", "6", "7", "9", "11", "10", "12"], "time": [2227, 2311, 2727, 2828, 3211, 3311, 3561, 3611]}, "edge": {"target": [], "time": []}}, "mouseout": {"state": {"target": ["0", "8", "0", "8", "6", "7", "9", "11", "10", "12", "12"], "time": [1177, 1211, 2261, 2711, 2777, 3111, 3227, 3544, 3577, 3927, 10194]}, "edge": {"target": [], "time": []}}}, "displayed_time": "10.14", "trialTime": 11178, "trial_type": "mouselab-mdp", "trial_index": 25, "time_elapsed": 862716, "internal_node_id": "0.0-4.0-1.0-16.0"}}, {"uniqueid": "w14455240:a19164086", "current_trial": 26, "dateTime": 1664556999595, "trialdata": {"revealed_states": [], "num_clicks_accrued": [0, 0, 0, 0, 0, 0, 0, 0, 0, 0, 0, 0, 0], "stateRewards": ["", -2, 4, -48, 24, -4, 8, 48, 24, -2, 4, -48, -24], "withholdReward": true, "trial_id": "mdp_740882974347", "block": "test1", "trialIndex": 19, "score": 56.5, "costs": -0.5, "simulationMode": [null, null, null], "rewards": [-4, 8, 48], "path": ["0", "0", "5", "6", "7"], "rt": [1602, 104, 39], "actions": ["right", "right", "up"], "actionTimes": [3282, 3889, 4442], "queries": {"click": {"state": {"target": ["7", "8"], "time": [2031, 2328]}, "edge": {"target": [], "time": []}}, "mouseover": {"state": {"target": ["7", "6", "8"], "time": [1868, 2168, 2235]}, "edge": {"target": [], "time": []}}, "mouseout": {"state": {"target": ["0", "7", "6", "8"], "time": [1785, 2152, 2202, 2552]}, "edge": {"target": [], "time": []}}}, "displayed_time": "10.68", "trialTime": 11273, "trial_type": "mouselab-mdp", "trial_index": 26, "time_elapsed": 874019, "internal_node_id": "0.0-4.0-1.0-17.0"}}, {"uniqueid": "w14455240:a19164086", "current_trial": 27, "dateTime": 1664557010139, "trialdata": {"revealed_states": [], "num_clicks_accrued": [0, 0, 0, 0, 0, 0, 0, 0, 0, 0, 0, 0, 0], "stateRewards": ["", -2, -4, -48, -48, 4, -4, 48, 24, 4, 4, 48, 48], "withholdReward": true, "trial_id": "mdp_950960813932", "block": "test1", "trialIndex": 20, "score": 52.5, "costs": -0.5, "simulationMode": [null, null, null], "rewards": [4, -4, 48], "path": ["0", "0", "5", "6", "7"], "rt": [1263, 474, 46], "actions": ["right", "right", "up"], "actionTimes": [2125, 3103, 3662], "queries": {"click": {"state": {"target": ["7", "8"], "time": [1216, 1543]}, "edge": {"target": [], "time": []}}, "mouseover": {"state": {"target": ["7", "6", "8"], "time": [1111, 1395, 1462]}, "edge": {"target": [], "time": []}}, "mouseout": {"state": {"target": ["0", "7", "6", "8", "8"], "time": [745, 1361, 1429, 1761, 7795]}, "edge": {"target": [], "time": []}}}, "displayed_time": "8.86", "trialTime": 10510, "trial_type": "mouselab-mdp", "trial_index": 27, "time_elapsed": 884564, "internal_node_id": "0.0-4.0-1.0-18.0"}}, {"uniqueid": "w14455240:a19164086", "current_trial": 28, "dateTime": 1664557018123, "trialdata": {"revealed_states": [], "num_clicks_accrued": [0, 0, 0, 0, 0, 0, 0, 0, 0, 0, 0, 0, 0], "stateRewards": ["", -2, 4, -24, 24, -4, -8, 24, -48, -4, -4, -48, -24], "withholdReward": false, "trial_id": "mdp_753137520419", "block": "test1", "trialIndex": 21, "score": 16, "costs": -1, "simulationMode": [null, null, null], "rewards": [-4, -8, 24], "path": ["0", "0", "5", "6", "7"], "rt": [2378, 408, 242], "actions": ["right", "right", "up"], "actionTimes": [3048, 3961, 4712], "queries": {"click": {"state": {"target": ["7", "8", "11", "12"], "time": [1122, 1436, 2095, 2350]}, "edge": {"target": [], "time": []}}, "mouseover": {"state": {"target": ["0", "5", "7", "6", "8", "9", "10", "11", "10", "12"], "time": [753, 820, 1020, 1269, 1336, 1836, 1870, 2003, 2220, 2286]}, "edge": {"target": [], "time": []}}, "mouseout": {"state": {"target": ["0", "0", "5", "7", "6", "8", "9", "10", "11", "10", "12"], "time": [552, 803, 887, 1236, 1303, 1620, 1853, 1953, 2203, 2253, 2603]}, "edge": {"target": [], "time": []}}}, "displayed_time": "7.67", "trialTime": 7953, "trial_type": "mouselab-mdp", "trial_index": 28, "time_elapsed": 892548, "internal_node_id": "0.0-4.0-1.0-19.0"}}, {"uniqueid": "w14455240:a19164086", "current_trial": 29, "dateTime": 1664557028306, "trialdata": {"revealed_states": [], "num_clicks_accrued": [0, 0, 0, 0, 0, 0, 0, 0, 0, 0, 0, 0, 0], "stateRewards": ["", -4, 8, 24, -48, -4, -8, -24, 24, 2, -4, -48, 24], "withholdReward": false, "trial_id": "mdp_898449441629", "block": "test1", "trialIndex": 22, "score": 16, "costs": -1, "simulationMode": [null, null, null], "rewards": [-4, -8, 24], "path": ["0", "0", "5", "6", "8"], "rt": [2227, 127, 125], "actions": ["right", "right", "down"], "actionTimes": [2859, 3491, 4139], "queries": {"click": {"state": {"target": ["7", "8", "11", "12"], "time": [982, 1287, 1775, 1994]}, "edge": {"target": [], "time": []}}, "mouseover": {"state": {"target": ["0", "5", "7", "6", "8", "9", "10", "11", "10", "12"], "time": [713, 763, 913, 1147, 1214, 1497, 1530, 1630, 1880, 1930]}, "edge": {"target": [], "time": []}}, "mouseout": {"state": {"target": ["0", "0", "5", "7", "6", "8", "9", "10", "11", "10", "12"], "time": [546, 730, 796, 1114, 1180, 1430, 1514, 1547, 1863, 1913, 6113]}, "edge": {"target": [], "time": []}}}, "displayed_time": "9.63", "trialTime": 10146, "trial_type": "mouselab-mdp", "trial_index": 29, "time_elapsed": 902731, "internal_node_id": "0.0-4.0-1.0-20.0"}}, {"uniqueid": "w14455240:a19164086", "current_trial": 30, "dateTime": 1664557038315, "trialdata": {"revealed_states": [], "num_clicks_accrued": [0, 0, 0, 0, 0, 0, 0, 0, 0, 0, 0, 0, 0], "stateRewards": ["", -4, -4, 24, -48, 2, 4, -24, -48, -2, -8, -24, 24], "withholdReward": true, "trial_id": "mdp_565569130486", "block": "test1", "trialIndex": 23, "score": 18, "costs": -1, "simulationMode": [null, null, null], "rewards": [-2, -8, 24], "path": ["0", "0", "9", "10", "12"], "rt": [2541, 34, 45], "actions": ["left", "left", "down"], "actionTimes": [3176, 3720, 4281], "queries": {"click": {"state": {"target": ["8", "7", "11", "12"], "time": [1034, 1372, 2209, 2423]}, "edge": {"target": [], "time": []}}, "mouseover": {"state": {"target": ["5", "8", "6", "7", "9", "10", "11", "10", "11", "10", "12"], "time": [836, 969, 1218, 1302, 1568, 1686, 1818, 1985, 2135, 2335, 2368]}, "edge": {"target": [], "time": []}}, "mouseout": {"state": {"target": ["5", "8", "6", "7", "9", "10", "11", "10", "11", "10", "12"], "time": [852, 1185, 1269, 1502, 1602, 1718, 1951, 2102, 2318, 2352, 7302]}, "edge": {"target": [], "time": []}}}, "displayed_time": "9.64", "trialTime": 9977, "trial_type": "mouselab-mdp", "trial_index": 30, "time_elapsed": 912740, "internal_node_id": "0.0-4.0-1.0-21.0"}}, {"uniqueid": "w14455240:a19164086", "current_trial": 31, "dateTime": 1664557048851, "trialdata": {"revealed_states": [], "num_clicks_accrued": [0, 0, 0, 0, 0, 0, 0, 0, 0, 0, 0, 0, 0], "stateRewards": ["", 4, 4, 24, 24, 4, -4, 48, 48, 4, 4, 24, -48], "withholdReward": true, "trial_id": "mdp_454251689008", "block": "test1", "trialIndex": 24, "score": 52.75, "costs": -0.25, "simulationMode": [null, null, null], "rewards": [4, -4, 48], "path": ["0", "0", "5", "6", "8"], "rt": [1675, 444, 94], "actions": ["right", "right", "down"], "actionTimes": [2527, 3504, 4104], "queries": {"click": {"state": {"target": ["8"], "time": [1130]}, "edge": {"target": [], "time": []}}, "mouseover": {"state": {"target": ["8", "6", "7", "7", "0", "5"], "time": [1043, 1326, 1410, 1643, 1726, 1976]}, "edge": {"target": [], "time": []}}, "mouseout": {"state": {"target": ["0", "8", "6", "7", "7", "0", "5", "5"], "time": [977, 1309, 1376, 1493, 1659, 1959, 2010, 7126]}, "edge": {"target": [], "time": []}}}, "displayed_time": "9.85", "trialTime": 10504, "trial_type": "mouselab-mdp", "trial_index": 31, "time_elapsed": 923276, "internal_node_id": "0.0-4.0-1.0-22.0"}}, {"uniqueid": "w14455240:a19164086", "current_trial": 32, "dateTime": 1664557059554, "trialdata": {"revealed_states": [], "num_clicks_accrued": [0, 0, 0, 0, 0, 0, 0, 0, 0, 0, 0, 0, 0], "stateRewards": ["", -4, 8, 24, 24, 2, 4, -48, 24, -2, -4, -24, -24], "withholdReward": false, "trial_id": "mdp_752328329546", "block": "test1", "trialIndex": 25, "score": 33.5, "costs": -1.5, "simulationMode": [null, null, null], "rewards": [2, 4, 24], "path": ["0", "0", "5", "6", "8"], "rt": [4264, 29, 48], "actions": ["right", "right", "down"], "actionTimes": [4783, 5320, 5872], "queries": {"click": {"state": {"target": ["8", "7", "12", "11", "4", "3"], "time": [1126, 1574, 2208, 2798, 3622, 4151]}, "edge": {"target": [], "time": []}}, "mouseover": {"state": {"target": ["0", "8", "6", "7", "9", "10", "12", "10", "11", "11", "4", "2", "2", "4", "2", "3", "3"], "time": [640, 1007, 1340, 1457, 1874, 2057, 2140, 2340, 2390, 2674, 3057, 3307, 3407, 3507, 3757, 3790, 4007]}, "edge": {"target": [], "time": []}}, "mouseout": {"state": {"target": ["0", "0", "8", "6", "7", "9", "10", "12", "10", "11", "11", "4", "2", "2", "4", "2", "3", "3", "1", "0"], "time": [390, 657, 1307, 1407, 1757, 1990, 2107, 2307, 2373, 2440, 2957, 3074, 3340, 3457, 3740, 3774, 3824, 9757, 9857, 9893]}, "edge": {"target": [], "time": []}}}, "displayed_time": "8.52", "trialTime": 10671, "trial_type": "mouselab-mdp", "trial_index": 32, "time_elapsed": 933979, "internal_node_id": "0.0-4.0-1.0-23.0"}}, {"uniqueid": "w14455240:a19164086", "current_trial": 33, "dateTime": 1664557069850, "trialdata": {"revealed_states": [], "num_clicks_accrued": [0, 0, 0, 0, 0, 0, 0, 0, 0, 0, 0, 0, 0], "stateRewards": ["", 4, 4, -48, -48, 4, 4, -24, -24, -4, 8, -48, 24], "withholdReward": true, "trial_id": "mdp_669785455541", "block": "test1", "trialIndex": 26, "score": 32, "costs": -1, "simulationMode": [null, null, null], "rewards": [-4, 8, 24], "path": ["0", "0", "9", "10", "12"], "rt": [2278, 84, 130], "actions": ["left", "left", "down"], "actionTimes": [3099, 3698, 4362], "queries": {"click": {"state": {"target": ["7", "8", "12", "11"], "time": [1191, 1544, 2066, 2411]}, "edge": {"target": [], "time": []}}, "mouseover": {"state": {"target": ["0", "5", "7", "6", "8", "10", "12", "10", "11"], "time": [915, 1015, 1098, 1398, 1464, 1798, 1931, 2214, 2281]}, "edge": {"target": [], "time": []}}, "mouseout": {"state": {"target": ["0", "5", "7", "6", "8", "10", "12", "10", "11", "1", "6", "5"], "time": [965, 1031, 1364, 1431, 1714, 1864, 2198, 2248, 6981, 7014, 7331, 7381]}, "edge": {"target": [], "time": []}}}, "displayed_time": "9.82", "trialTime": 10258, "trial_type": "mouselab-mdp", "trial_index": 33, "time_elapsed": 944275, "internal_node_id": "0.0-4.0-1.0-24.0"}}, {"uniqueid": "w14455240:a19164086", "current_trial": 34, "dateTime": 1664557078865, "trialdata": {"revealed_states": [], "num_clicks_accrued": [0, 0, 0, 0, 0, 0, 0, 0, 0, 0, 0, 0, 0], "stateRewards": ["", -4, -4, 24, -24, 4, 4, 24, 48, 4, -4, 48, -48], "withholdReward": true, "trial_id": "mdp_522385334882", "block": "test1", "trialIndex": 27, "score": 60.5, "costs": -0.5, "simulationMode": [null, null, null], "rewards": [4, 4, 48], "path": ["0", "0", "5", "6", "8"], "rt": [1495, 47, 47], "actions": ["right", "right", "down"], "actionTimes": [1945, 2497, 3065], "queries": {"click": {"state": {"target": ["8", "7"], "time": [872, 1299]}, "edge": {"target": [], "time": []}}, "mouseover": {"state": {"target": ["0", "8", "6", "7", "9"], "time": [618, 768, 1101, 1201, 1501]}, "edge": {"target": [], "time": []}}, "mouseout": {"state": {"target": ["0", "0", "8", "6", "7", "9"], "time": [601, 651, 1067, 1151, 1434, 6951]}, "edge": {"target": [], "time": []}}}, "displayed_time": "8.45", "trialTime": 8976, "trial_type": "mouselab-mdp", "trial_index": 34, "time_elapsed": 953290, "internal_node_id": "0.0-4.0-1.0-25.0"}}, {"uniqueid": "w14455240:a19164086", "current_trial": 35, "dateTime": 1664557088345, "trialdata": {"revealed_states": [], "num_clicks_accrued": [0, 0, 0, 0, 0, 0, 0, 0, 0, 0, 0, 0, 0], "stateRewards": ["", 2, 4, -48, -24, -4, 4, -24, 24, -2, -8, -24, 24], "withholdReward": true, "trial_id": "mdp_640720803523", "block": "test1", "trialIndex": 28, "score": 28.5, "costs": -0.5, "simulationMode": [null, null, null], "rewards": [-4, 4, 24], "path": ["0", "0", "5", "6", "8"], "rt": [1456, 123, 368], "actions": ["right", "right", "down"], "actionTimes": [2001, 2641, 3536], "queries": {"click": {"state": {"target": ["8", "7"], "time": [891, 1317]}, "edge": {"target": [], "time": []}}, "mouseover": {"state": {"target": ["8", "6", "7", "9", "10"], "time": [751, 1134, 1234, 1518, 1634]}, "edge": {"target": [], "time": []}}, "mouseout": {"state": {"target": ["0", "0", "8", "6", "7", "9", "10"], "time": [134, 652, 1084, 1168, 1451, 1552, 8201]}, "edge": {"target": [], "time": []}}}, "displayed_time": "8.55", "trialTime": 9440, "trial_type": "mouselab-mdp", "trial_index": 35, "time_elapsed": 962770, "internal_node_id": "0.0-4.0-1.0-26.0"}}, {"uniqueid": "w14455240:a19164086", "current_trial": 36, "dateTime": 1664557098569, "trialdata": {"revealed_states": [], "num_clicks_accrued": [0, 0, 0, 0, 0, 0, 0, 0, 0, 0, 0, 0, 0], "stateRewards": ["", 4, -4, 24, 48, 4, 8, -24, -24, -2, 4, 48, 48], "withholdReward": true, "trial_id": "mdp_624998450453", "block": "test1", "trialIndex": 29, "score": 54, "costs": -1, "simulationMode": [null, null, null], "rewards": [-2, 4, 48], "path": ["0", "0", "9", "10", "11"], "rt": [2841, 260, 269], "actions": ["left", "left", "up"], "actionTimes": [3713, 4481, 5273], "queries": {"click": {"state": {"target": ["8", "7", "12", "11"], "time": [1594, 2031, 2659, 3084]}, "edge": {"target": [], "time": []}}, "mouseover": {"state": {"target": ["8", "8", "6", "7", "9", "12", "12", "10", "11"], "time": [1354, 1521, 1788, 1888, 2204, 2271, 2537, 2837, 3005]}, "edge": {"target": [], "time": []}}, "mouseout": {"state": {"target": ["0", "8", "8", "6", "7", "9", "12", "12", "10", "11", "0"], "time": [988, 1421, 1754, 1854, 2154, 2221, 2404, 2804, 2888, 9004, 9038]}, "edge": {"target": [], "time": []}}}, "displayed_time": "9.87", "trialTime": 10184, "trial_type": "mouselab-mdp", "trial_index": 36, "time_elapsed": 972994, "internal_node_id": "0.0-4.0-1.0-27.0"}}, {"uniqueid": "w14455240:a19164086", "current_trial": 37, "dateTime": 1664557106938, "trialdata": {"revealed_states": [], "num_clicks_accrued": [0, 0, 0, 0, 0, 0, 0, 0, 0, 0, 0, 0, 0], "stateRewards": ["", -4, 4, -24, 24, 2, 4, -24, 48, -4, 8, -48, 48], "withholdReward": true, "trial_id": "mdp_422109108860", "block": "test1", "trialIndex": 30, "score": 56.5, "costs": -0.5, "simulationMode": [null, null, null], "rewards": [-4, 8, 48], "path": ["0", "0", "9", "10", "12"], "rt": [1489, 66, 594], "actions": ["left", "left", "down"], "actionTimes": [2526, 3102, 4230], "queries": {"click": {"state": {"target": ["12", "11"], "time": [1577, 1996]}, "edge": {"target": [], "time": []}}, "mouseover": {"state": {"target": ["12", "10", "11"], "time": [1452, 1752, 1902]}, "edge": {"target": [], "time": []}}, "mouseout": {"state": {"target": ["0", "12", "10", "11", "9", "0"], "time": [1135, 1719, 1819, 5186, 5369, 5419]}, "edge": {"target": [], "time": []}}}, "displayed_time": "8.04", "trialTime": 8334, "trial_type": "mouselab-mdp", "trial_index": 37, "time_elapsed": 981363, "internal_node_id": "0.0-4.0-1.0-28.0"}}, {"uniqueid": "w14455240:a19164086", "current_trial": 38, "dateTime": 1664557116514, "trialdata": {"revealed_states": [], "num_clicks_accrued": [0, 0, 0, 0, 0, 0, 0, 0, 0, 0, 0, 0, 0], "stateRewards": ["", 2, 4, 48, -24, 2, -8, -24, -24, 2, -8, -24, -48], "withholdReward": true, "trial_id": "mdp_274832552938", "block": "test1", "trialIndex": 31, "score": -14, "costs": -1, "simulationMode": [null, null, null], "rewards": [2, 4, -24], "path": ["0", "0", "1", "2", "4"], "rt": [2352, 185, 36], "actions": ["up", "up", "left"], "actionTimes": [3386, 4083, 4650], "queries": {"click": {"state": {"target": ["12", "11", "8", "7"], "time": [1371, 1740, 2341, 2721]}, "edge": {"target": [], "time": []}}, "mouseover": {"state": {"target": ["12", "10", "11", "9", "0", "8", "8", "6", "7"], "time": [1248, 1565, 1698, 1914, 1931, 1998, 2247, 2481, 2548]}, "edge": {"target": [], "time": []}}, "mouseout": {"state": {"target": ["0", "12", "10", "11", "9", "0", "8", "8", "6", "7", "8", "3", "0"], "time": [1148, 1531, 1614, 1864, 1931, 1948, 2014, 2464, 2514, 5898, 6198, 7264, 7431]}, "edge": {"target": [], "time": []}}}, "displayed_time": "9.04", "trialTime": 9539, "trial_type": "mouselab-mdp", "trial_index": 38, "time_elapsed": 990939, "internal_node_id": "0.0-4.0-1.0-29.0"}}, {"uniqueid": "w14455240:a19164086", "current_trial": 39, "dateTime": 1664557122978, "trialdata": {"rt": 6462, "stimulus": "<h1> End of block! </h1>\n\nYou have reached the end of the block 1/4. If you need a short break, feel free to take one now before moving on.\n\n<br><br>\nIn the next block, you will complete another 30 rounds of this game.\n\n<br><br>\n<div style='text-align: center;'>Press <code>space</code> to begin.</div>\n<br><br>\n<div style='text-align: center;'>(If the experiment doesn't continue, try clicking on the text and then pressing <code>space</code>.)</div>", "response": " ", "trial_id": "mdp_ready_2", "trial_type": "html-keyboard-response", "trial_index": 39, "time_elapsed": 997403, "internal_node_id": "0.0-4.0-2.0"}}, {"uniqueid": "w14455240:a19164086", "current_trial": 40, "dateTime": 1664557134138, "trialdata": {"revealed_states": [], "num_clicks_accrued": [0, 0, 0, 0, 0, 0, 0, 0, 0, 0, 0, 0, 0], "stateRewards": ["", -2, 8, -48, -24, -2, 8, 48, -48, -4, 8, 24, 48], "withholdReward": true, "trial_id": "mdp_160707003673", "block": "test2", "trialIndex": 32, "score": 56.5, "costs": -0.5, "simulationMode": [null, null, null], "rewards": [-4, 8, 48], "path": ["0", "0", "9", "10", "12"], "rt": [1756, 77, 140], "actions": ["left", "left", "down"], "actionTimes": [3261, 3853, 4500], "queries": {"click": {"state": {"target": ["12", "11"], "time": [2262, 2711]}, "edge": {"target": [], "time": []}}, "mouseover": {"state": {"target": ["9", "12", "10", "11"], "time": [1660, 2060, 2443, 2593]}, "edge": {"target": [], "time": []}}, "mouseout": {"state": {"target": ["1", "0", "9", "12", "10", "11", "0"], "time": [1142, 1360, 1693, 2410, 2527, 9160, 11093]}, "edge": {"target": [], "time": []}}}, "displayed_time": "10.51", "trialTime": 11125, "trial_type": "mouselab-mdp", "trial_index": 40, "time_elapsed": 1008563, "internal_node_id": "0.0-4.0-3.0-0.0"}}, {"uniqueid": "w14455240:a19164086", "current_trial": 41, "dateTime": 1664557144105, "trialdata": {"revealed_states": [], "num_clicks_accrued": [0, 0, 0, 0, 0, 0, 0, 0, 0, 0, 0, 0, 0], "stateRewards": ["", -4, 8, 24, -24, 4, 8, -24, -48, 2, 4, 24, -24], "withholdReward": false, "trial_id": "mdp_782187007008", "block": "test2", "trialIndex": 33, "score": 34, "costs": -1, "simulationMode": [null, null, null], "rewards": [2, 4, 24], "path": ["0", "0", "9", "10", "11"], "rt": [2880, 38, 113], "actions": ["left", "left", "up"], "actionTimes": [3438, 4006, 4630], "queries": {"click": {"state": {"target": ["8", "12", "11", "7"], "time": [918, 1900, 2335, 2809]}, "edge": {"target": [], "time": []}}, "mouseover": {"state": {"target": ["5", "8", "12", "12", "10", "11", "1", "7"], "time": [684, 801, 1617, 1817, 2085, 2168, 2501, 2568]}, "edge": {"target": [], "time": []}}, "mouseout": {"state": {"target": ["0", "5", "8", "12", "12", "10", "11", "1", "7", "6"], "time": [451, 718, 1084, 1684, 2051, 2134, 2451, 2518, 5701, 5718]}, "edge": {"target": [], "time": []}}}, "displayed_time": "8.56", "trialTime": 9933, "trial_type": "mouselab-mdp", "trial_index": 41, "time_elapsed": 1018530, "internal_node_id": "0.0-4.0-3.0-1.0"}}, {"uniqueid": "w14455240:a19164086", "current_trial": 42, "dateTime": 1664557153258, "trialdata": {"revealed_states": [], "num_clicks_accrued": [0, 0, 0, 0, 0, 0, 0, 0, 0, 0, 0, 0, 0], "stateRewards": ["", 2, -4, 48, -48, 2, 4, -24, 24, -4, -8, 24, -48], "withholdReward": true, "trial_id": "mdp_238810765895", "block": "test2", "trialIndex": 34, "score": 34, "costs": -1, "simulationMode": [null, null, null], "rewards": [2, 4, 24], "path": ["0", "0", "5", "6", "8"], "rt": [2357, 56, 592], "actions": ["right", "right", "down"], "actionTimes": [3056, 3624, 4744], "queries": {"click": {"state": {"target": ["12", "11", "7", "8"], "time": [1043, 1437, 1873, 2216]}, "edge": {"target": [], "time": []}}, "mouseover": {"state": {"target": ["12", "10", "11", "7", "6", "8"], "time": [901, 1268, 1385, 1685, 2035, 2101]}, "edge": {"target": [], "time": []}}, "mouseout": {"state": {"target": ["0", "12", "10", "11", "7", "6", "8"], "time": [835, 1236, 1335, 1568, 2002, 2068, 2401]}, "edge": {"target": [], "time": []}}}, "displayed_time": "8.70", "trialTime": 9120, "trial_type": "mouselab-mdp", "trial_index": 42, "time_elapsed": 1027683, "internal_node_id": "0.0-4.0-3.0-2.0"}}, {"uniqueid": "w14455240:a19164086", "current_trial": 43, "dateTime": 1664557163794, "trialdata": {"revealed_states": [], "num_clicks_accrued": [0, 0, 0, 0, 0, 0, 0, 0, 0, 0, 0, 0, 0], "stateRewards": ["", 2, 8, -24, -48, -4, 8, -48, -48, -2, -8, -24, -24], "withholdReward": true, "trial_id": "mdp_978177451072", "block": "test2", "trialIndex": 35, "score": -30.5, "costs": -1.5, "simulationMode": [null, null, null], "rewards": [-2, -8, -24], "path": ["0", "0", "9", "10", "12"], "rt": [4935, 120, 24], "actions": ["left", "left", "down"], "actionTimes": [5878, 6502, 7038], "queries": {"click": {"state": {"target": ["12", "11", "7", "8", "3", "4"], "time": [1690, 2145, 2645, 2982, 3865, 4309]}, "edge": {"target": [], "time": []}}, "mouseover": {"state": {"target": ["12", "10", "11", "1", "7", "6", "8", "2", "3", "2", "4"], "time": [1564, 1931, 2014, 2331, 2548, 2797, 2864, 3647, 3764, 4031, 4231]}, "edge": {"target": [], "time": []}}, "mouseout": {"state": {"target": ["0", "12", "10", "11", "1", "7", "6", "8", "2", "3", "2", "4", "0"], "time": [1064, 1897, 1981, 2281, 2347, 2781, 2831, 3297, 3697, 3997, 4097, 8531, 10298]}, "edge": {"target": [], "time": []}}}, "displayed_time": "9.94", "trialTime": 10501, "trial_type": "mouselab-mdp", "trial_index": 43, "time_elapsed": 1038218, "internal_node_id": "0.0-4.0-3.0-3.0"}}, {"uniqueid": "w14455240:a19164086", "current_trial": 44, "dateTime": 1664557173658, "trialdata": {"revealed_states": [], "num_clicks_accrued": [0, 0, 0, 0, 0, 0, 0, 0, 0, 0, 0, 0, 0], "stateRewards": ["", 4, 8, 24, 24, 2, -4, 48, -24, -4, 8, -24, 24], "withholdReward": true, "trial_id": "mdp_932292142091", "block": "test2", "trialIndex": 36, "score": 50, "costs": -1, "simulationMode": [null, null, null], "rewards": [2, -4, 48], "path": ["0", "0", "5", "6", "7"], "rt": [2277, 54, 528], "actions": ["right", "right", "up"], "actionTimes": [2771, 3339, 4380], "queries": {"click": {"state": {"target": ["12", "11", "7", "8"], "time": [822, 1308, 1810, 2123]}, "edge": {"target": [], "time": []}}, "mouseover": {"state": {"target": ["9", "12", "10", "11", "9", "0", "5", "7", "6", "8"], "time": [635, 718, 1035, 1168, 1501, 1535, 1601, 1718, 1951, 2035]}, "edge": {"target": [], "time": []}}, "mouseout": {"state": {"target": ["0", "9", "12", "10", "11", "9", "0", "5", "7", "6", "8"], "time": [351, 652, 1002, 1118, 1451, 1518, 1568, 1651, 1935, 2001, 2352]}, "edge": {"target": [], "time": []}}}, "displayed_time": "9.50", "trialTime": 9819, "trial_type": "mouselab-mdp", "trial_index": 44, "time_elapsed": 1048083, "internal_node_id": "0.0-4.0-3.0-4.0"}}, {"uniqueid": "w14455240:a19164086", "current_trial": 45, "dateTime": 1664557183522, "trialdata": {"revealed_states": [], "num_clicks_accrued": [0, 0, 0, 0, 0, 0, 0, 0, 0, 0, 0, 0, 0], "stateRewards": ["", 2, -8, 24, 24, 2, 4, -48, -48, 4, 4, -24, 48], "withholdReward": false, "trial_id": "mdp_985707010949", "block": "test2", "trialIndex": 37, "score": 59.5, "costs": -1.5, "simulationMode": [null, null, null], "rewards": [4, 4, 48], "path": ["0", "0", "9", "10", "12"], "rt": [2782, 41, 194], "actions": ["left", "left", "down"], "actionTimes": [3854, 4422, 5125], "queries": {"click": {"state": {"target": ["8", "7", "11", "12", "4", "3"], "time": [1345, 1723, 2206, 2470, 2967, 3208]}, "edge": {"target": [], "time": []}}, "mouseover": {"state": {"target": ["8", "6", "7", "9", "11", "10", "12", "4", "2", "3", "10"], "time": [1297, 1531, 1614, 1931, 2114, 2331, 2398, 2814, 3097, 3181, 3398]}, "edge": {"target": [], "time": []}}, "mouseout": {"state": {"target": ["8", "0", "8", "6", "7", "9", "11", "10", "12", "4", "2", "3", "10", "10", "9"], "time": [748, 1164, 1481, 1581, 1848, 1997, 2314, 2365, 2598, 3081, 3131, 3295, 3414, 6398, 6431]}, "edge": {"target": [], "time": []}}}, "displayed_time": "9.07", "trialTime": 9830, "trial_type": "mouselab-mdp", "trial_index": 45, "time_elapsed": 1057947, "internal_node_id": "0.0-4.0-3.0-5.0"}}, {"uniqueid": "w14455240:a19164086", "current_trial": 46, "dateTime": 1664557193401, "trialdata": {"revealed_states": [], "num_clicks_accrued": [0, 0, 0, 0, 0, 0, 0, 0, 0, 0, 0, 0, 0], "stateRewards": ["", -4, -8, 48, 24, 4, -8, 24, -48, -2, -8, 24, -48], "withholdReward": true, "trial_id": "mdp_952038635544", "block": "test2", "trialIndex": 38, "score": 39.5, "costs": -1.5, "simulationMode": [null, null, null], "rewards": [-4, -8, 48], "path": ["0", "0", "1", "2", "3"], "rt": [3596, 20, 7], "actions": ["up", "up", "right"], "actionTimes": [3900, 4436, 4956], "queries": {"click": {"state": {"target": ["12", "11", "7", "8", "3", "4"], "time": [859, 1183, 1643, 1893, 2561, 3312]}, "edge": {"target": [], "time": []}}, "mouseover": {"state": {"target": ["0", "9", "12", "10", "11", "7", "6", "8", "3", "2", "4", "4", "4"], "time": [482, 516, 750, 1032, 1133, 1533, 1766, 1816, 2466, 2683, 2716, 2932, 3184]}, "edge": {"target": [], "time": []}}, "mouseout": {"state": {"target": ["0", "0", "9", "12", "10", "11", "7", "6", "8", "3", "2", "4", "4", "4"], "time": [249, 499, 549, 999, 1083, 1316, 1749, 1799, 2082, 2666, 2700, 2749, 3016, 3482]}, "edge": {"target": [], "time": []}}}, "displayed_time": "9.31", "trialTime": 9844, "trial_type": "mouselab-mdp", "trial_index": 46, "time_elapsed": 1067826, "internal_node_id": "0.0-4.0-3.0-6.0"}}, {"uniqueid": "w14455240:a19164086", "current_trial": 47, "dateTime": 1664557203546, "trialdata": {"revealed_states": [], "num_clicks_accrued": [0, 0, 0, 0, 0, 0, 0, 0, 0, 0, 0, 0, 0], "stateRewards": ["", 2, 4, -48, -24, 2, 8, 24, 48, -2, 4, 48, -48], "withholdReward": true, "trial_id": "mdp_551894842204", "block": "test2", "trialIndex": 39, "score": 62.5, "costs": -0.5, "simulationMode": [null, null, null], "rewards": [2, 8, 48], "path": ["0", "0", "5", "6", "8"], "rt": [1386, 68, 29], "actions": ["right", "right", "down"], "actionTimes": [2014, 2589, 3150], "queries": {"click": {"state": {"target": ["8", "7"], "time": [898, 1486]}, "edge": {"target": [], "time": []}}, "mouseover": {"state": {"target": ["8", "6", "7", "7"], "time": [787, 1074, 1137, 1370]}, "edge": {"target": [], "time": []}}, "mouseout": {"state": {"target": ["0", "8", "6", "7", "7"], "time": [737, 1056, 1104, 1171, 1637]}, "edge": {"target": [], "time": []}}}, "displayed_time": "9.63", "trialTime": 10110, "trial_type": "mouselab-mdp", "trial_index": 47, "time_elapsed": 1077971, "internal_node_id": "0.0-4.0-3.0-7.0"}}, {"uniqueid": "w14455240:a19164086", "current_trial": 48, "dateTime": 1664557213754, "trialdata": {"revealed_states": [], "num_clicks_accrued": [0, 0, 0, 0, 0, 0, 0, 0, 0, 0, 0, 0, 0], "stateRewards": ["", 2, 8, -24, -48, 2, 4, -24, 48, 2, -8, 48, -24], "withholdReward": false, "trial_id": "mdp_791659307216", "block": "test2", "trialIndex": 40, "score": 58.75, "costs": -0.25, "simulationMode": [null, null, null], "rewards": [2, 4, 48], "path": ["0", "0", "5", "6", "8"], "rt": [1353, 56, 419], "actions": ["right", "right", "down"], "actionTimes": [1973, 2533, 3462], "queries": {"click": {"state": {"target": ["8"], "time": [900]}, "edge": {"target": [], "time": []}}, "mouseover": {"state": {"target": ["8", "7", "7"], "time": [859, 1259, 1476]}, "edge": {"target": [], "time": []}}, "mouseout": {"state": {"target": ["0", "8", "7", "7", "5", "6"], "time": [726, 1159, 1309, 1510, 7143, 7176]}, "edge": {"target": [], "time": []}}}, "displayed_time": "9.62", "trialTime": 10173, "trial_type": "mouselab-mdp", "trial_index": 48, "time_elapsed": 1088179, "internal_node_id": "0.0-4.0-3.0-8.0"}}, {"uniqueid": "w14455240:a19164086", "current_trial": 49, "dateTime": 1664557223561, "trialdata": {"revealed_states": [], "num_clicks_accrued": [0, 0, 0, 0, 0, 0, 0, 0, 0, 0, 0, 0, 0], "stateRewards": ["", -2, 4, -48, -48, -4, -8, 48, -48, 2, 4, 48, -48], "withholdReward": true, "trial_id": "mdp_258647270500", "block": "test2", "trialIndex": 41, "score": 40.5, "costs": -0.5, "simulationMode": [null, null, null], "rewards": [-4, -8, 48], "path": ["0", "0", "5", "6", "7"], "rt": [1723, 48, 44], "actions": ["right", "right", "up"], "actionTimes": [2099, 2668, 3244], "queries": {"click": {"state": {"target": ["8", "7"], "time": [663, 1075]}, "edge": {"target": [], "time": []}}, "mouseover": {"state": {"target": ["0", "8", "6", "7", "9", "11"], "time": [467, 550, 899, 1000, 1300, 1483]}, "edge": {"target": [], "time": []}}, "mouseout": {"state": {"target": ["0", "0", "8", "6", "7", "9", "11", "10", "10", "12"], "time": [283, 483, 866, 966, 1216, 1333, 1716, 4516, 5200, 5966]}, "edge": {"target": [], "time": []}}}, "displayed_time": "9.38", "trialTime": 9771, "trial_type": "mouselab-mdp", "trial_index": 49, "time_elapsed": 1097986, "internal_node_id": "0.0-4.0-3.0-9.0"}}, {"uniqueid": "w14455240:a19164086", "current_trial": 50, "dateTime": 1664557232586, "trialdata": {"revealed_states": [], "num_clicks_accrued": [0, 0, 0, 0, 0, 0, 0, 0, 0, 0, 0, 0, 0], "stateRewards": ["", 4, -8, -24, 24, 2, -4, 24, 24, 2, -4, 48, 48], "withholdReward": true, "trial_id": "mdp_457607480918", "block": "test2", "trialIndex": 42, "score": 26.5, "costs": -0.5, "simulationMode": [null, null, null], "rewards": [2, -4, 24], "path": ["0", "0", "5", "6", "7"], "rt": [1361, 159, 45], "actions": ["right", "right", "up"], "actionTimes": [1795, 2466, 3018], "queries": {"click": {"state": {"target": ["8", "7"], "time": [736, 1093]}, "edge": {"target": [], "time": []}}, "mouseover": {"state": {"target": ["8", "6", "7"], "time": [624, 940, 1024]}, "edge": {"target": [], "time": []}}, "mouseout": {"state": {"target": ["0", "8", "6", "7", "5"], "time": [524, 907, 974, 1274, 6925]}, "edge": {"target": [], "time": []}}}, "displayed_time": "8.43", "trialTime": 8987, "trial_type": "mouselab-mdp", "trial_index": 50, "time_elapsed": 1107011, "internal_node_id": "0.0-4.0-3.0-10.0"}}, {"uniqueid": "w14455240:a19164086", "current_trial": 51, "dateTime": 1664557243370, "trialdata": {"revealed_states": [], "num_clicks_accrued": [0, 0, 0, 0, 0, 0, 0, 0, 0, 0, 0, 0, 0], "stateRewards": ["", 2, -4, 48, 24, 2, 8, 24, 24, -2, 4, 24, 24], "withholdReward": false, "trial_id": "mdp_813974524300", "block": "test2", "trialIndex": 43, "score": 49.5, "costs": -1.5, "simulationMode": [null, null, null], "rewards": [2, -4, 48], "path": ["0", "0", "1", "2", "3"], "rt": [4079, 481, 74], "actions": ["up", "up", "right"], "actionTimes": [6129, 7112, 7689], "queries": {"click": {"state": {"target": ["8", "7", "11", "12", "4", "3"], "time": [2657, 3153, 3724, 4063, 4765, 5147]}, "edge": {"target": [], "time": []}}, "mouseover": {"state": {"target": ["8", "6", "7", "9", "11", "10", "12", "9", "4", "2", "3"], "time": [2481, 2864, 3048, 3364, 3598, 3864, 3931, 4415, 4681, 4914, 4998]}, "edge": {"target": [], "time": []}}, "mouseout": {"state": {"target": ["5", "7", "0", "8", "6", "7", "9", "11", "10", "12", "9", "4", "2", "3", "5", "5"], "time": [1148, 1681, 2148, 2831, 2948, 3281, 3381, 3848, 3898, 4365, 4431, 4898, 4948, 5314, 9114, 9214]}, "edge": {"target": [], "time": []}}}, "displayed_time": "10.05", "trialTime": 10745, "trial_type": "mouselab-mdp", "trial_index": 51, "time_elapsed": 1117795, "internal_node_id": "0.0-4.0-3.0-11.0"}}, {"uniqueid": "w14455240:a19164086", "current_trial": 52, "dateTime": 1664557252090, "trialdata": {"revealed_states": [], "num_clicks_accrued": [0, 0, 0, 0, 0, 0, 0, 0, 0, 0, 0, 0, 0], "stateRewards": ["", -4, 8, -24, 48, 2, -8, 24, 48, 2, -8, -24, -48], "withholdReward": true, "trial_id": "mdp_493778446445", "block": "test2", "trialIndex": 44, "score": 46.5, "costs": -0.5, "simulationMode": [null, null, null], "rewards": [2, -8, 48], "path": ["0", "0", "5", "6", "8"], "rt": [1370, 26, 5], "actions": ["right", "right", "down"], "actionTimes": [1722, 2257, 2770], "queries": {"click": {"state": {"target": ["8", "7"], "time": [719, 1087]}, "edge": {"target": [], "time": []}}, "mouseover": {"state": {"target": ["8", "6", "7"], "time": [598, 898, 998]}, "edge": {"target": [], "time": []}}, "mouseout": {"state": {"target": ["0", "8", "6", "7", "0"], "time": [448, 864, 965, 1248, 3281]}, "edge": {"target": [], "time": []}}}, "displayed_time": "8.35", "trialTime": 8682, "trial_type": "mouselab-mdp", "trial_index": 52, "time_elapsed": 1126515, "internal_node_id": "0.0-4.0-3.0-12.0"}}, {"uniqueid": "w14455240:a19164086", "current_trial": 53, "dateTime": 1664557262202, "trialdata": {"revealed_states": [], "num_clicks_accrued": [0, 0, 0, 0, 0, 0, 0, 0, 0, 0, 0, 0, 0], "stateRewards": ["", -2, -4, -48, -48, 4, -4, 48, 24, 4, 4, 48, 48], "withholdReward": true, "trial_id": "mdp_950960813932", "block": "test2", "trialIndex": 45, "score": 52.25, "costs": -0.75, "simulationMode": [null, null, null], "rewards": [4, -4, 48], "path": ["0", "0", "5", "6", "7"], "rt": [1779, 2, 3], "actions": ["right", "right", "up"], "actionTimes": [2236, 2767, 3284], "queries": {"click": {"state": {"target": ["8", "7", "3"], "time": [733, 1151, 1633]}, "edge": {"target": [], "time": []}}, "mouseover": {"state": {"target": ["5", "8", "6", "7", "3"], "time": [564, 698, 947, 1047, 1464]}, "edge": {"target": [], "time": []}}, "mouseout": {"state": {"target": ["0", "5", "8", "6", "7", "3", "0"], "time": [547, 580, 897, 1014, 1348, 1848, 9147]}, "edge": {"target": [], "time": []}}}, "displayed_time": "9.46", "trialTime": 10075, "trial_type": "mouselab-mdp", "trial_index": 53, "time_elapsed": 1136626, "internal_node_id": "0.0-4.0-3.0-13.0"}}, {"uniqueid": "w14455240:a19164086", "current_trial": 54, "dateTime": 1664557271930, "trialdata": {"revealed_states": [], "num_clicks_accrued": [0, 0, 0, 0, 0, 0, 0, 0, 0, 0, 0, 0, 0], "stateRewards": ["", 4, 4, -48, -24, -2, -4, 48, 24, -4, 4, 24, -48], "withholdReward": true, "trial_id": "mdp_617383046444", "block": "test2", "trialIndex": 46, "score": 46.5, "costs": -0.5, "simulationMode": [null, null, null], "rewards": [-2, -4, 48], "path": ["0", "0", "5", "6", "7"], "rt": [1415, 37, 29], "actions": ["right", "right", "up"], "actionTimes": [1800, 2344, 2903], "queries": {"click": {"state": {"target": ["7", "8"], "time": [779, 1140]}, "edge": {"target": [], "time": []}}, "mouseover": {"state": {"target": ["5", "7", "6", "8"], "time": [540, 690, 957, 1040]}, "edge": {"target": [], "time": []}}, "mouseout": {"state": {"target": ["0", "5", "7", "6", "8"], "time": [523, 607, 940, 990, 4740]}, "edge": {"target": [], "time": []}}}, "displayed_time": "9.39", "trialTime": 9680, "trial_type": "mouselab-mdp", "trial_index": 54, "time_elapsed": 1146355, "internal_node_id": "0.0-4.0-3.0-14.0"}}, {"uniqueid": "w14455240:a19164086", "current_trial": 55, "dateTime": 1664557283326, "trialdata": {"revealed_states": [], "num_clicks_accrued": [0, 0, 0, 0, 0, 0, 0, 0, 0, 0, 0, 0, 0], "stateRewards": ["", -4, -8, -24, 24, 2, 8, 24, 48, 2, 4, 24, -48], "withholdReward": false, "trial_id": "mdp_122352383932", "block": "test2", "trialIndex": 47, "score": 62.75, "costs": -0.25, "simulationMode": [null, null, null], "rewards": [2, 8, 48], "path": ["0", "0", "5", "6", "8"], "rt": [1141, 142, 83], "actions": ["right", "right", "down"], "actionTimes": [1664, 2328, 2920], "queries": {"click": {"state": {"target": ["8"], "time": [793]}, "edge": {"target": [], "time": []}}, "mouseover": {"state": {"target": ["0", "8", "6", "7"], "time": [603, 687, 953, 1020]}, "edge": {"target": [], "time": []}}, "mouseout": {"state": {"target": ["0", "0", "8", "6", "7", "0"], "time": [453, 620, 936, 1004, 10353, 11287]}, "edge": {"target": [], "time": []}}}, "displayed_time": "8.52", "trialTime": 11355, "trial_type": "mouselab-mdp", "trial_index": 55, "time_elapsed": 1157751, "internal_node_id": "0.0-4.0-3.0-15.0"}}, {"uniqueid": "w14455240:a19164086", "current_trial": 56, "dateTime": 1664557294226, "trialdata": {"revealed_states": [], "num_clicks_accrued": [0, 0, 0, 0, 0, 0, 0, 0, 0, 0, 0, 0, 0], "stateRewards": ["", 2, -4, 48, -24, 4, -8, -24, 48, -2, -4, 24, -48], "withholdReward": true, "trial_id": "mdp_357328205509", "block": "test2", "trialIndex": 48, "score": 48.5, "costs": -0.5, "simulationMode": [null, null, null], "rewards": [4, -8, 48], "path": ["0", "0", "5", "6", "8"], "rt": [1702, 238, 167], "actions": ["right", "right", "down"], "actionTimes": [3226, 3995, 4691], "queries": {"click": {"state": {"target": ["8", "7"], "time": [1793, 2135]}, "edge": {"target": [], "time": []}}, "mouseover": {"state": {"target": ["0", "8", "6", "7"], "time": [1590, 1690, 1956, 2039]}, "edge": {"target": [], "time": []}}, "mouseout": {"state": {"target": ["8", "8", "0", "0", "8", "6", "7"], "time": [890, 1190, 1423, 1607, 1923, 1989, 2306]}, "edge": {"target": [], "time": []}}}, "displayed_time": "9.53", "trialTime": 10859, "trial_type": "mouselab-mdp", "trial_index": 56, "time_elapsed": 1168651, "internal_node_id": "0.0-4.0-3.0-16.0"}}, {"uniqueid": "w14455240:a19164086", "current_trial": 57, "dateTime": 1664557306210, "trialdata": {"revealed_states": [], "num_clicks_accrued": [0, 0, 0, 0, 0, 0, 0, 0, 0, 0, 0, 0, 0], "stateRewards": ["", -2, -4, -48, 48, -4, 4, -48, 24, -4, -8, 24, 48], "withholdReward": true, "trial_id": "mdp_264482284450", "block": "test2", "trialIndex": 49, "score": 40.25, "costs": -0.75, "simulationMode": [null, null, null], "rewards": [-4, -8, 48], "path": ["0", "0", "9", "10", "12"], "rt": [2935, 407, 331], "actions": ["left", "left", "down"], "actionTimes": [4321, 5249, 6090], "queries": {"click": {"state": {"target": ["8", "7", "12"], "time": [1858, 2235, 3347]}, "edge": {"target": [], "time": []}}, "mouseover": {"state": {"target": ["8", "6", "7", "5", "0", "9", "12", "12", "10", "12", "10", "11"], "time": [1542, 2042, 2125, 2459, 2508, 2575, 2808, 3042, 3142, 3258, 3508, 3559]}, "edge": {"target": [], "time": []}}, "mouseout": {"state": {"target": ["5", "0", "8", "6", "7", "5", "0", "9", "12", "12", "10", "12", "10", "11", "9", "0", "5", "5", "0", "1", "0"], "time": [908, 1475, 2009, 2076, 2408, 2476, 2558, 2608, 2842, 3092, 3209, 3492, 3542, 9475, 9692, 9858, 9892, 10125, 10476, 10692, 11508]}, "edge": {"target": [], "time": []}}}, "displayed_time": "11.39", "trialTime": 11945, "trial_type": "mouselab-mdp", "trial_index": 57, "time_elapsed": 1180635, "internal_node_id": "0.0-4.0-3.0-17.0"}}, {"uniqueid": "w14455240:a19164086", "current_trial": 58, "dateTime": 1664557315290, "trialdata": {"revealed_states": [], "num_clicks_accrued": [0, 0, 0, 0, 0, 0, 0, 0, 0, 0, 0, 0, 0], "stateRewards": ["", 2, -8, -24, 48, 4, -8, -24, -24, 2, 8, -24, 24], "withholdReward": true, "trial_id": "mdp_480787552818", "block": "test2", "trialIndex": 50, "score": 45.5, "costs": -1.5, "simulationMode": [null, null, null], "rewards": [2, -8, 48], "path": ["0", "0", "1", "2", "4"], "rt": [3643, 130, 311], "actions": ["up", "up", "left"], "actionTimes": [4043, 4707, 5538], "queries": {"click": {"state": {"target": ["8", "7", "12", "11", "4", "3"], "time": [767, 1197, 1585, 1931, 3094, 3377]}, "edge": {"target": [], "time": []}}, "mouseover": {"state": {"target": ["5", "8", "6", "7", "0", "12", "10", "11", "4", "2", "3"], "time": [543, 743, 1009, 1110, 1377, 1493, 1793, 1893, 2993, 3243, 3310]}, "edge": {"target": [], "time": []}}, "mouseout": {"state": {"target": ["0", "5", "8", "6", "7", "0", "12", "10", "11", "4", "2", "3", "5"], "time": [243, 593, 943, 1060, 1310, 1393, 1743, 1843, 2410, 3210, 3260, 3627, 8127]}, "edge": {"target": [], "time": []}}}, "displayed_time": "8.40", "trialTime": 9043, "trial_type": "mouselab-mdp", "trial_index": 58, "time_elapsed": 1189715, "internal_node_id": "0.0-4.0-3.0-18.0"}}, {"uniqueid": "w14455240:a19164086", "current_trial": 59, "dateTime": 1664557325450, "trialdata": {"revealed_states": [], "num_clicks_accrued": [0, 0, 0, 0, 0, 0, 0, 0, 0, 0, 0, 0, 0], "stateRewards": ["", 2, 4, -48, 48, -4, 8, -48, -24, -4, -4, 48, 48], "withholdReward": true, "trial_id": "mdp_613582696541", "block": "test2", "trialIndex": 51, "score": 58.25, "costs": -0.75, "simulationMode": [null, null, null], "rewards": [2, 4, 48], "path": ["0", "0", "1", "2", "4"], "rt": [2380, 44, 163], "actions": ["up", "up", "left"], "actionTimes": [3182, 3727, 4413], "queries": {"click": {"state": {"target": ["8", "7", "4"], "time": [1286, 1661, 2250]}, "edge": {"target": [], "time": []}}, "mouseover": {"state": {"target": ["8", "6", "7", "2", "4", "2", "3"], "time": [1199, 1482, 1582, 2016, 2166, 2400, 2433]}, "edge": {"target": [], "time": []}}, "mouseout": {"state": {"target": ["0", "8", "6", "7", "2", "4", "2", "3", "5"], "time": [932, 1466, 1532, 1816, 2116, 2383, 2416, 6083, 6149]}, "edge": {"target": [], "time": []}}}, "displayed_time": "9.80", "trialTime": 10126, "trial_type": "mouselab-mdp", "trial_index": 59, "time_elapsed": 1199875, "internal_node_id": "0.0-4.0-3.0-19.0"}}, {"uniqueid": "w14455240:a19164086", "current_trial": 60, "dateTime": 1664557334706, "trialdata": {"revealed_states": [], "num_clicks_accrued": [0, 0, 0, 0, 0, 0, 0, 0, 0, 0, 0, 0, 0], "stateRewards": ["", 2, -8, 48, -24, -4, -8, -24, 48, -2, 4, 24, -48], "withholdReward": true, "trial_id": "mdp_186932504904", "block": "test2", "trialIndex": 52, "score": 40.75, "costs": -0.25, "simulationMode": [null, null, null], "rewards": [-4, -8, 48], "path": ["0", "0", "5", "6", "8"], "rt": [1212, 81, 114], "actions": ["right", "right", "down"], "actionTimes": [1826, 2434, 3049], "queries": {"click": {"state": {"target": ["8"], "time": [890]}, "edge": {"target": [], "time": []}}, "mouseover": {"state": {"target": ["8"], "time": [752]}, "edge": {"target": [], "time": []}}, "mouseout": {"state": {"target": ["0", "8"], "time": [485, 1252]}, "edge": {"target": [], "time": []}}}, "displayed_time": "8.62", "trialTime": 9217, "trial_type": "mouselab-mdp", "trial_index": 60, "time_elapsed": 1209130, "internal_node_id": "0.0-4.0-3.0-20.0"}}, {"uniqueid": "w14455240:a19164086", "current_trial": 61, "dateTime": 1664557345225, "trialdata": {"revealed_states": [], "num_clicks_accrued": [0, 0, 0, 0, 0, 0, 0, 0, 0, 0, 0, 0, 0], "stateRewards": ["", -4, 4, 48, 24, -4, 4, -24, 48, -2, -8, 24, -48], "withholdReward": true, "trial_id": "mdp_261501605436", "block": "test2", "trialIndex": 53, "score": 52.75, "costs": -0.25, "simulationMode": [null, null, null], "rewards": [-4, 4, 48], "path": ["0", "0", "5", "6", "8"], "rt": [1079, 13, 406], "actions": ["right", "right", "down"], "actionTimes": [1515, 2035, 2962], "queries": {"click": {"state": {"target": ["8"], "time": [700]}, "edge": {"target": [], "time": []}}, "mouseover": {"state": {"target": ["8", "6"], "time": [605, 889]}, "edge": {"target": [], "time": []}}, "mouseout": {"state": {"target": ["0", "8", "6"], "time": [539, 856, 972]}, "edge": {"target": [], "time": []}}}, "displayed_time": "9.44", "trialTime": 10474, "trial_type": "mouselab-mdp", "trial_index": 61, "time_elapsed": 1219650, "internal_node_id": "0.0-4.0-3.0-21.0"}}, {"uniqueid": "w14455240:a19164086", "current_trial": 62, "dateTime": 1664557356106, "trialdata": {"revealed_states": [], "num_clicks_accrued": [0, 0, 0, 0, 0, 0, 0, 0, 0, 0, 0, 0, 0], "stateRewards": ["", -2, -8, 48, 24, -2, 8, -48, -24, -2, 4, -48, 48], "withholdReward": false, "trial_id": "mdp_295220852217", "block": "test2", "trialIndex": 54, "score": 42, "costs": -1, "simulationMode": [null, null, null], "rewards": [-2, -8, 48], "path": ["0", "0", "1", "2", "3"], "rt": [2507, 143, 189], "actions": ["up", "up", "right"], "actionTimes": [3128, 3784, 4480], "queries": {"click": {"state": {"target": ["8", "7", "4", "3"], "time": [888, 1355, 1827, 2158]}, "edge": {"target": [], "time": []}}, "mouseover": {"state": {"target": ["8", "6", "7", "1", "4", "3", "1"], "time": [791, 1157, 1257, 1590, 1740, 2024, 2391]}, "edge": {"target": [], "time": []}}, "mouseout": {"state": {"target": ["0", "8", "6", "7", "1", "4", "3", "1", "5", "8"], "time": [724, 1141, 1207, 1524, 1607, 1974, 2358, 2407, 10074, 10107]}, "edge": {"target": [], "time": []}}}, "displayed_time": "9.62", "trialTime": 10840, "trial_type": "mouselab-mdp", "trial_index": 62, "time_elapsed": 1230531, "internal_node_id": "0.0-4.0-3.0-22.0"}}, {"uniqueid": "w14455240:a19164086", "current_trial": 63, "dateTime": 1664557367418, "trialdata": {"revealed_states": [], "num_clicks_accrued": [0, 0, 0, 0, 0, 0, 0, 0, 0, 0, 0, 0, 0], "stateRewards": ["", -4, -8, -48, 24, -4, -4, -24, -48, 2, -8, -24, -48], "withholdReward": true, "trial_id": "mdp_628181832088", "block": "test2", "trialIndex": 55, "score": 15.25, "costs": -1.75, "simulationMode": [null, null, null], "rewards": [-4, -8, 24], "path": ["0", "0", "1", "2", "4"], "rt": [4063, 97, 65], "actions": ["up", "up", "left"], "actionTimes": [6173, 6790, 7358], "queries": {"click": {"state": {"target": ["8", "7", "4", "3", "11", "12", "2"], "time": [2357, 2700, 3184, 3464, 4154, 4509, 5391]}, "edge": {"target": [], "time": []}}, "mouseover": {"state": {"target": ["8", "6", "7", "2", "4", "2", "3", "11", "11", "10", "12", "9", "2"], "time": [2258, 2525, 2592, 2959, 3076, 3310, 3358, 3725, 4009, 4342, 4392, 5042, 5292]}, "edge": {"target": [], "time": []}}, "mouseout": {"state": {"target": ["0", "8", "6", "7", "2", "4", "2", "3", "11", "11", "10", "12", "9", "2", "0"], "time": [2191, 2508, 2575, 2859, 3009, 3309, 3342, 3642, 3759, 4309, 4359, 4975, 5075, 5575, 10775]}, "edge": {"target": [], "time": []}}}, "displayed_time": "10.11", "trialTime": 11270, "trial_type": "mouselab-mdp", "trial_index": 63, "time_elapsed": 1241843, "internal_node_id": "0.0-4.0-3.0-23.0"}}, {"uniqueid": "w14455240:a19164086", "current_trial": 64, "dateTime": 1664557376626, "trialdata": {"revealed_states": [], "num_clicks_accrued": [0, 0, 0, 0, 0, 0, 0, 0, 0, 0, 0, 0, 0], "stateRewards": ["", 2, 8, 48, -24, -4, 4, 48, 24, -2, 8, 24, 24], "withholdReward": true, "trial_id": "mdp_123436106791", "block": "test2", "trialIndex": 56, "score": 52.5, "costs": -0.5, "simulationMode": [null, null, null], "rewards": [-4, 4, 48], "path": ["0", "0", "5", "6", "7"], "rt": [1885, 9, 76], "actions": ["right", "right", "up"], "actionTimes": [2268, 2804, 3388], "queries": {"click": {"state": {"target": ["8", "7"], "time": [930, 1267]}, "edge": {"target": [], "time": []}}, "mouseover": {"state": {"target": ["8", "6", "7"], "time": [828, 1111, 1178]}, "edge": {"target": [], "time": []}}, "mouseout": {"state": {"target": ["0", "8", "6", "7", "7", "5"], "time": [494, 1078, 1144, 1478, 4495, 4528]}, "edge": {"target": [], "time": []}}}, "displayed_time": "8.38", "trialTime": 9163, "trial_type": "mouselab-mdp", "trial_index": 64, "time_elapsed": 1251051, "internal_node_id": "0.0-4.0-3.0-24.0"}}, {"uniqueid": "w14455240:a19164086", "current_trial": 65, "dateTime": 1664557385892, "trialdata": {"revealed_states": [], "num_clicks_accrued": [0, 0, 0, 0, 0, 0, 0, 0, 0, 0, 0, 0, 0], "stateRewards": ["", 2, 4, 48, -48, 2, 4, 24, -24, 2, -4, -24, -48], "withholdReward": true, "trial_id": "mdp_706591889062", "block": "test2", "trialIndex": 57, "score": 58, "costs": -1, "simulationMode": [null, null, null], "rewards": [2, 4, 48], "path": ["0", "0", "1", "2", "3"], "rt": [2223, 48, 82], "actions": ["up", "up", "right"], "actionTimes": [2697, 3249, 3834], "queries": {"click": {"state": {"target": ["8", "7", "3", "4"], "time": [817, 1222, 1667, 1992]}, "edge": {"target": [], "time": []}}, "mouseover": {"state": {"target": ["8", "6", "7", "3", "2", "4"], "time": [702, 1052, 1135, 1518, 1818, 1885]}, "edge": {"target": [], "time": []}}, "mouseout": {"state": {"target": ["0", "8", "6", "7", "3", "2", "4", "9"], "time": [585, 1018, 1102, 1401, 1802, 1852, 2252, 5302]}, "edge": {"target": [], "time": []}}}, "displayed_time": "8.48", "trialTime": 9220, "trial_type": "mouselab-mdp", "trial_index": 65, "time_elapsed": 1260317, "internal_node_id": "0.0-4.0-3.0-25.0"}}, {"uniqueid": "w14455240:a19164086", "current_trial": 66, "dateTime": 1664557396186, "trialdata": {"revealed_states": [], "num_clicks_accrued": [0, 0, 0, 0, 0, 0, 0, 0, 0, 0, 0, 0, 0], "stateRewards": ["", 4, 8, -48, 24, -2, 8, -48, -48, -4, 4, 48, -48], "withholdReward": false, "trial_id": "mdp_693807815190", "block": "test2", "trialIndex": 58, "score": 51.5, "costs": -1.5, "simulationMode": [null, null, null], "rewards": [-4, 4, 48], "path": ["0", "0", "9", "10", "11"], "rt": [3069, 218, 252], "actions": ["left", "left", "up"], "actionTimes": [3579, 4307, 5091], "queries": {"click": {"state": {"target": ["8", "7", "3", "4", "11", "12"], "time": [1060, 1460, 1828, 2159, 2536, 2853]}, "edge": {"target": [], "time": []}}, "mouseover": {"state": {"target": ["8", "8", "6", "7", "3", "2", "4", "11", "10", "12"], "time": [672, 922, 1289, 1405, 1705, 2005, 2088, 2406, 2705, 2755]}, "edge": {"target": [], "time": []}}, "mouseout": {"state": {"target": ["0", "8", "8", "6", "7", "3", "2", "4", "11", "10", "12"], "time": [422, 738, 1255, 1339, 1622, 1972, 2038, 2356, 2672, 2739, 8555]}, "edge": {"target": [], "time": []}}}, "displayed_time": "9.51", "trialTime": 10251, "trial_type": "mouselab-mdp", "trial_index": 66, "time_elapsed": 1270611, "internal_node_id": "0.0-4.0-3.0-26.0"}}, {"uniqueid": "w14455240:a19164086", "current_trial": 67, "dateTime": 1664557406386, "trialdata": {"revealed_states": [], "num_clicks_accrued": [0, 0, 0, 0, 0, 0, 0, 0, 0, 0, 0, 0, 0], "stateRewards": ["", -2, 4, -48, 24, -4, 8, 48, 24, -2, 4, -48, -24], "withholdReward": true, "trial_id": "mdp_740882974347", "block": "test2", "trialIndex": 59, "score": 56.5, "costs": -0.5, "simulationMode": [null, null, null], "rewards": [-4, 8, 48], "path": ["0", "0", "5", "6", "7"], "rt": [2004, 41, 43], "actions": ["right", "right", "up"], "actionTimes": [3719, 4272, 4824], "queries": {"click": {"state": {"target": ["8", "7"], "time": [2000, 2690]}, "edge": {"target": [], "time": []}}, "mouseover": {"state": {"target": ["8", "6", "7", "7", "3"], "time": [1864, 2198, 2248, 2581, 3031]}, "edge": {"target": [], "time": []}}, "mouseout": {"state": {"target": ["8", "0", "0", "8", "6", "7", "7", "3", "0"], "time": [1231, 1331, 1797, 2164, 2231, 2331, 2931, 3147, 7348]}, "edge": {"target": [], "time": []}}}, "displayed_time": "9.72", "trialTime": 10160, "trial_type": "mouselab-mdp", "trial_index": 67, "time_elapsed": 1280811, "internal_node_id": "0.0-4.0-3.0-27.0"}}, {"uniqueid": "w14455240:a19164086", "current_trial": 68, "dateTime": 1664557416483, "trialdata": {"revealed_states": [], "num_clicks_accrued": [0, 0, 0, 0, 0, 0, 0, 0, 0, 0, 0, 0, 0], "stateRewards": ["", -4, 8, -48, -48, -4, 4, -24, -48, 2, -4, -24, 24], "withholdReward": false, "trial_id": "mdp_183773275291", "block": "test2", "trialIndex": 60, "score": 25.5, "costs": -1.5, "simulationMode": [null, null, null], "rewards": [2, -4, 24], "path": ["0", "0", "9", "10", "12"], "rt": [3255, 140, 33], "actions": ["left", "left", "down"], "actionTimes": [3836, 4484, 5043], "queries": {"click": {"state": {"target": ["8", "7", "3", "4", "11", "12"], "time": [880, 1285, 1660, 2012, 2376, 2894]}, "edge": {"target": [], "time": []}}, "mouseover": {"state": {"target": ["8", "6", "7", "3", "2", "4", "11", "10", "12"], "time": [744, 1110, 1177, 1543, 1827, 1877, 2277, 2661, 2744]}, "edge": {"target": [], "time": []}}, "mouseout": {"state": {"target": ["0", "8", "6", "7", "3", "2", "4", "11", "10", "12", "12"], "time": [677, 1077, 1144, 1460, 1793, 1860, 2194, 2627, 2710, 3144, 9244]}, "edge": {"target": [], "time": []}}}, "displayed_time": "8.58", "trialTime": 10053, "trial_type": "mouselab-mdp", "trial_index": 68, "time_elapsed": 1290908, "internal_node_id": "0.0-4.0-3.0-28.0"}}, {"uniqueid": "w14455240:a19164086", "current_trial": 69, "dateTime": 1664557428730, "trialdata": {"revealed_states": [], "num_clicks_accrued": [0, 0, 0, 0, 0, 0, 0, 0, 0, 0, 0, 0, 0], "stateRewards": ["", -2, 8, -48, 48, -4, -8, 24, 24, -2, -4, 48, -48], "withholdReward": true, "trial_id": "mdp_867247318592", "block": "test2", "trialIndex": 61, "score": 58, "costs": -1, "simulationMode": [null, null, null], "rewards": [-2, 8, 48], "path": ["0", "0", "1", "2", "4"], "rt": [2668, 105, 55], "actions": ["up", "up", "left"], "actionTimes": [3039, 3648, 4215], "queries": {"click": {"state": {"target": ["8", "7", "3", "4"], "time": [722, 1159, 1665, 1980]}, "edge": {"target": [], "time": []}}, "mouseover": {"state": {"target": ["8", "6", "7", "3", "2", "4", "11"], "time": [609, 992, 1093, 1609, 1826, 1860, 2343]}, "edge": {"target": [], "time": []}}, "mouseout": {"state": {"target": ["0", "8", "6", "7", "3", "2", "4", "11", "0"], "time": [493, 943, 1043, 1376, 1810, 1843, 2176, 2643, 11759]}, "edge": {"target": [], "time": []}}}, "displayed_time": "9.37", "trialTime": 12199, "trial_type": "mouselab-mdp", "trial_index": 69, "time_elapsed": 1303155, "internal_node_id": "0.0-4.0-3.0-29.0"}}, {"uniqueid": "w14455240:a19164086", "current_trial": 70, "dateTime": 1664557430307, "trialdata": {"rt": 1574, "stimulus": "<h1> End of block! </h1>\n\nYou have reached the end of the block 2/4. If you need a short break, feel free to take one now before moving on.\n\n<br><br>\nIn the next block, you will complete another 30 rounds of this game.\n\n<br><br>\n<div style='text-align: center;'>Press <code>space</code> to begin.</div>\n<br><br>\n<div style='text-align: center;'>(If the experiment doesn't continue, try clicking on the text and then pressing <code>space</code>.)</div>", "response": " ", "trial_id": "mdp_ready_3", "trial_type": "html-keyboard-response", "trial_index": 70, "time_elapsed": 1304732, "internal_node_id": "0.0-4.0-4.0"}}, {"uniqueid": "w14455240:a19164086", "current_trial": 71, "dateTime": 1664557440473, "trialdata": {"revealed_states": [], "num_clicks_accrued": [0, 0, 0, 0, 0, 0, 0, 0, 0, 0, 0, 0, 0], "stateRewards": ["", -4, -4, 24, -48, 2, 4, -24, -48, -2, -8, -24, 24], "withholdReward": true, "trial_id": "mdp_565569130486", "block": "test3", "trialIndex": 62, "score": 19.5, "costs": -1.5, "simulationMode": [null, null, null], "rewards": [-4, -4, 24], "path": ["0", "0", "1", "2", "3"], "rt": [4055, 71, 33], "actions": ["up", "up", "right"], "actionTimes": [4608, 5199, 5744], "queries": {"click": {"state": {"target": ["8", "7", "3", "4", "11", "12"], "time": [1774, 2146, 2609, 3056, 3534, 3865]}, "edge": {"target": [], "time": []}}, "mouseover": {"state": {"target": ["8", "0", "8", "8", "6", "7", "3", "2", "4", "11", "11", "10", "12"], "time": [861, 1078, 1411, 1661, 1994, 2061, 2394, 2778, 2928, 3344, 3428, 3661, 3727]}, "edge": {"target": [], "time": []}}, "mouseout": {"state": {"target": ["0", "0", "8", "0", "8", "8", "6", "7", "3", "2", "4", "11", "11", "10", "12"], "time": [161, 728, 945, 1344, 1445, 1961, 2028, 2311, 2745, 2811, 3244, 3378, 3644, 3694, 4194]}, "edge": {"target": [], "time": []}}}, "displayed_time": "8.55", "trialTime": 10127, "trial_type": "mouselab-mdp", "trial_index": 71, "time_elapsed": 1314898, "internal_node_id": "0.0-4.0-5.0-0.0"}}, {"uniqueid": "w14455240:a19164086", "current_trial": 72, "dateTime": 1664557450546, "trialdata": {"revealed_states": [], "num_clicks_accrued": [0, 0, 0, 0, 0, 0, 0, 0, 0, 0, 0, 0, 0], "stateRewards": ["", 2, 4, -48, -24, 2, 8, 24, 48, -2, 4, 48, -48], "withholdReward": false, "trial_id": "mdp_551894842204", "block": "test3", "trialIndex": 63, "score": 62.5, "costs": -0.5, "simulationMode": [null, null, null], "rewards": [2, 8, 48], "path": ["0", "0", "5", "6", "8"], "rt": [1578, 75, 19], "actions": ["right", "right", "down"], "actionTimes": [1980, 2564, 3092], "queries": {"click": {"state": {"target": ["8", "7"], "time": [830, 1343]}, "edge": {"target": [], "time": []}}, "mouseover": {"state": {"target": ["0", "8", "6", "7"], "time": [489, 706, 1022, 1189]}, "edge": {"target": [], "time": []}}, "mouseout": {"state": {"target": ["0", "0", "8", "6", "7", "5", "0"], "time": [305, 505, 972, 1106, 4339, 4389, 4423]}, "edge": {"target": [], "time": []}}}, "displayed_time": "9.40", "trialTime": 10027, "trial_type": "mouselab-mdp", "trial_index": 72, "time_elapsed": 1324971, "internal_node_id": "0.0-4.0-5.0-1.0"}}, {"uniqueid": "w14455240:a19164086", "current_trial": 73, "dateTime": 1664557463178, "trialdata": {"revealed_states": [], "num_clicks_accrued": [0, 0, 0, 0, 0, 0, 0, 0, 0, 0, 0, 0, 0], "stateRewards": ["", 4, -8, -48, 48, -2, 8, -48, 48, -2, -4, 24, -48], "withholdReward": true, "trial_id": "mdp_400558136089", "block": "test3", "trialIndex": 64, "score": 58.5, "costs": -0.5, "simulationMode": [null, null, null], "rewards": [-2, 8, 48], "path": ["0", "0", "5", "6", "8"], "rt": [1699, 509, 300], "actions": ["right", "right", "down"], "actionTimes": [2004, 3044, 3851], "queries": {"click": {"state": {"target": ["8", "7"], "time": [933, 1302]}, "edge": {"target": [], "time": []}}, "mouseover": {"state": {"target": ["0", "8", "8", "6", "7"], "time": [418, 535, 784, 1151, 1234]}, "edge": {"target": [], "time": []}}, "mouseout": {"state": {"target": ["0", "0", "8", "8", "6", "7", "7"], "time": [151, 451, 584, 1118, 1184, 1584, 1651]}, "edge": {"target": [], "time": []}}}, "displayed_time": "10.31", "trialTime": 12571, "trial_type": "mouselab-mdp", "trial_index": 73, "time_elapsed": 1337602, "internal_node_id": "0.0-4.0-5.0-2.0"}}, {"uniqueid": "w14455240:a19164086", "current_trial": 74, "dateTime": 1664557473306, "trialdata": {"revealed_states": [], "num_clicks_accrued": [0, 0, 0, 0, 0, 0, 0, 0, 0, 0, 0, 0, 0], "stateRewards": ["", 4, -8, -48, -24, 2, -8, -48, 48, -4, 8, 48, -48], "withholdReward": true, "trial_id": "mdp_605757196263", "block": "test3", "trialIndex": 65, "score": 46.75, "costs": -0.25, "simulationMode": [null, null, null], "rewards": [2, -8, 48], "path": ["0", "0", "5", "6", "8"], "rt": [1530, 51, 187], "actions": ["right", "right", "down"], "actionTimes": [1856, 2416, 3135], "queries": {"click": {"state": {"target": ["8"], "time": [737]}, "edge": {"target": [], "time": []}}, "mouseover": {"state": {"target": ["8", "6", "7"], "time": [581, 948, 1031]}, "edge": {"target": [], "time": []}}, "mouseout": {"state": {"target": ["0", "8", "6", "7", "5"], "time": [481, 914, 981, 1398, 9548]}, "edge": {"target": [], "time": []}}}, "displayed_time": "9.33", "trialTime": 10080, "trial_type": "mouselab-mdp", "trial_index": 74, "time_elapsed": 1347731, "internal_node_id": "0.0-4.0-5.0-3.0"}}, {"uniqueid": "w14455240:a19164086", "current_trial": 75, "dateTime": 1664557484890, "trialdata": {"revealed_states": [], "num_clicks_accrued": [0, 0, 0, 0, 0, 0, 0, 0, 0, 0, 0, 0, 0], "stateRewards": ["", 4, 8, -24, 48, -2, -4, 24, -24, -2, 4, 24, 24], "withholdReward": true, "trial_id": "mdp_948713805479", "block": "test3", "trialIndex": 66, "score": 63.75, "costs": -1.25, "simulationMode": [null, null, null], "rewards": [4, 8, 48], "path": ["0", "0", "1", "2", "4"], "rt": [3606, 132, 170], "actions": ["up", "up", "left"], "actionTimes": [3921, 4561, 5233], "queries": {"click": {"state": {"target": ["8", "7", "3", "4", "11"], "time": [1687, 2090, 2529, 2846, 3280]}, "edge": {"target": [], "time": []}}, "mouseover": {"state": {"target": ["0", "0", "0", "8", "8", "6", "7", "3", "2", "4", "11"], "time": [412, 762, 1029, 1362, 1579, 1912, 2029, 2378, 2696, 2745, 3079]}, "edge": {"target": [], "time": []}}, "mouseout": {"state": {"target": ["0", "0", "0", "0", "8", "8", "6", "7", "3", "2", "4", "11", "0"], "time": [291, 528, 796, 1295, 1412, 1862, 1979, 2262, 2679, 2729, 3029, 9679, 10812]}, "edge": {"target": [], "time": []}}}, "displayed_time": "9.32", "trialTime": 11545, "trial_type": "mouselab-mdp", "trial_index": 75, "time_elapsed": 1359315, "internal_node_id": "0.0-4.0-5.0-4.0"}}, {"uniqueid": "w14455240:a19164086", "current_trial": 76, "dateTime": 1664557493561, "trialdata": {"revealed_states": [], "num_clicks_accrued": [0, 0, 0, 0, 0, 0, 0, 0, 0, 0, 0, 0, 0], "stateRewards": ["", -4, 8, -48, -48, -2, -8, -24, -48, 2, -4, -48, 24], "withholdReward": true, "trial_id": "mdp_743906784415", "block": "test3", "trialIndex": 67, "score": 25.5, "costs": -1.5, "simulationMode": [null, null, null], "rewards": [2, -4, 24], "path": ["0", "0", "9", "10", "12"], "rt": [4914, 38, 32], "actions": ["left", "left", "down"], "actionTimes": [5235, 5794, 6339], "queries": {"click": {"state": {"target": ["8", "7", "3", "4", "11", "12"], "time": [2156, 2573, 3144, 3587, 3951, 4359]}, "edge": {"target": [], "time": []}}, "mouseover": {"state": {"target": ["8", "0", "0", "8", "6", "7", "3", "2", "4", "11", "10", "12"], "time": [656, 1189, 1656, 1989, 2322, 2439, 2823, 3340, 3506, 3856, 4173, 4239]}, "edge": {"target": [], "time": []}}, "mouseout": {"state": {"target": ["0", "8", "0", "0", "8", "6", "7", "3", "2", "4", "11", "10", "12"], "time": [423, 1123, 1206, 1906, 2306, 2356, 2739, 3306, 3423, 3789, 4139, 4223, 7339]}, "edge": {"target": [], "time": []}}}, "displayed_time": "8.32", "trialTime": 8610, "trial_type": "mouselab-mdp", "trial_index": 76, "time_elapsed": 1367986, "internal_node_id": "0.0-4.0-5.0-5.0"}}, {"uniqueid": "w14455240:a19164086", "current_trial": 77, "dateTime": 1664557501929, "trialdata": {"revealed_states": [], "num_clicks_accrued": [0, 0, 0, 0, 0, 0, 0, 0, 0, 0, 0, 0, 0], "stateRewards": ["", 2, -8, 48, -24, 2, -4, 24, 48, 4, -4, 48, -24], "withholdReward": true, "trial_id": "mdp_656500928756", "block": "test3", "trialIndex": 68, "score": 50.5, "costs": -0.5, "simulationMode": [null, null, null], "rewards": [2, -4, 48], "path": ["0", "0", "5", "6", "8"], "rt": [1476, 99, 770], "actions": ["right", "right", "down"], "actionTimes": [2076, 2676, 3964], "queries": {"click": {"state": {"target": ["8", "7"], "time": [1010, 1464]}, "edge": {"target": [], "time": []}}, "mouseover": {"state": {"target": ["0", "5", "8", "6", "7"], "time": [694, 727, 877, 1161, 1327]}, "edge": {"target": [], "time": []}}, "mouseout": {"state": {"target": ["5", "0", "5", "8", "6", "7", "6", "5", "0"], "time": [394, 710, 761, 1144, 1210, 1644, 4860, 5177, 7761]}, "edge": {"target": [], "time": []}}}, "displayed_time": "7.60", "trialTime": 8316, "trial_type": "mouselab-mdp", "trial_index": 77, "time_elapsed": 1376354, "internal_node_id": "0.0-4.0-5.0-6.0"}}, {"uniqueid": "w14455240:a19164086", "current_trial": 78, "dateTime": 1664557510953, "trialdata": {"revealed_states": [], "num_clicks_accrued": [0, 0, 0, 0, 0, 0, 0, 0, 0, 0, 0, 0, 0], "stateRewards": ["", 4, -4, 24, 48, 4, 8, -24, -24, -2, 4, 48, 48], "withholdReward": false, "trial_id": "mdp_624998450453", "block": "test3", "trialIndex": 69, "score": 53.75, "costs": -1.25, "simulationMode": [null, null, null], "rewards": [-2, 4, 48], "path": ["0", "0", "9", "10", "11"], "rt": [3059, 15, 34], "actions": ["left", "left", "up"], "actionTimes": [3385, 3921, 4473], "queries": {"click": {"state": {"target": ["8", "7", "3", "4", "11"], "time": [898, 1373, 1797, 2179, 2584]}, "edge": {"target": [], "time": []}}, "mouseover": {"state": {"target": ["0", "8", "8", "6", "7", "3", "2", "4", "11", "10"], "time": [539, 622, 789, 1106, 1322, 1655, 1972, 2039, 2389, 2722]}, "edge": {"target": [], "time": []}}, "mouseout": {"state": {"target": ["0", "0", "8", "8", "6", "7", "3", "2", "4", "11", "10", "9"], "time": [155, 556, 639, 1072, 1205, 1555, 1955, 2005, 2339, 2706, 5339, 5389]}, "edge": {"target": [], "time": []}}}, "displayed_time": "8.33", "trialTime": 8985, "trial_type": "mouselab-mdp", "trial_index": 78, "time_elapsed": 1385378, "internal_node_id": "0.0-4.0-5.0-7.0"}}, {"uniqueid": "w14455240:a19164086", "current_trial": 79, "dateTime": 1664557520499, "trialdata": {"revealed_states": [], "num_clicks_accrued": [0, 0, 0, 0, 0, 0, 0, 0, 0, 0, 0, 0, 0], "stateRewards": ["", -4, -8, 24, -48, 2, 4, -48, -48, 2, -8, 24, 48], "withholdReward": true, "trial_id": "mdp_111262146724", "block": "test3", "trialIndex": 70, "score": 44.75, "costs": -2.25, "simulationMode": [null, null, null], "rewards": [2, -8, 48], "path": ["0", "0", "9", "10", "12"], "rt": [5580, 3, 41], "actions": ["left", "left", "down"], "actionTimes": [5838, 6353, 6903], "queries": {"click": {"state": {"target": ["1", "3", "4", "11", "12", "8", "7", "10", "9"], "time": [864, 1259, 1587, 1999, 2644, 3215, 4312, 4950, 5180]}, "edge": {"target": [], "time": []}}, "mouseover": {"state": {"target": ["1", "3", "2", "4", "11", "10", "12", "8", "8", "6", "7", "0", "5", "7", "9", "10", "9"], "time": [778, 1162, 1395, 1496, 1878, 2145, 2628, 2928, 3128, 3345, 3395, 3762, 3828, 4245, 4612, 4779, 5095]}, "edge": {"target": [], "time": []}}, "mouseout": {"state": {"target": ["0", "1", "3", "2", "4", "11", "10", "12", "8", "8", "6", "7", "0", "5", "7", "9", "10", "9"], "time": [240, 1078, 1361, 1462, 1778, 2112, 2178, 2812, 2945, 3329, 3379, 3429, 3795, 3845, 4479, 4662, 5062, 5395]}, "edge": {"target": [], "time": []}}}, "displayed_time": "9.26", "trialTime": 9503, "trial_type": "mouselab-mdp", "trial_index": 79, "time_elapsed": 1394924, "internal_node_id": "0.0-4.0-5.0-8.0"}}, {"uniqueid": "w14455240:a19164086", "current_trial": 80, "dateTime": 1664557529330, "trialdata": {"revealed_states": [], "num_clicks_accrued": [0, 0, 0, 0, 0, 0, 0, 0, 0, 0, 0, 0, 0], "stateRewards": ["", 4, 4, 24, -24, -4, -8, 48, -24, 4, 4, 48, 24], "withholdReward": true, "trial_id": "mdp_822446942217", "block": "test3", "trialIndex": 71, "score": 40.25, "costs": -0.75, "simulationMode": [null, null, null], "rewards": [-4, -8, 48], "path": ["0", "0", "5", "6", "7"], "rt": [2302, 380, 103], "actions": ["right", "right", "up"], "actionTimes": [2734, 3623, 4245], "queries": {"click": {"state": {"target": ["8", "7", "3"], "time": [1119, 1532, 2012]}, "edge": {"target": [], "time": []}}, "mouseover": {"state": {"target": ["0", "8", "6", "7", "3"], "time": [575, 976, 1292, 1392, 1725]}, "edge": {"target": [], "time": []}}, "mouseout": {"state": {"target": ["0", "0", "8", "6", "7", "3", "0", "0"], "time": [292, 592, 1275, 1342, 1676, 2175, 6809, 8242]}, "edge": {"target": [], "time": []}}}, "displayed_time": "8.43", "trialTime": 8782, "trial_type": "mouselab-mdp", "trial_index": 80, "time_elapsed": 1403755, "internal_node_id": "0.0-4.0-5.0-9.0"}}, {"uniqueid": "w14455240:a19164086", "current_trial": 81, "dateTime": 1664557538466, "trialdata": {"revealed_states": [], "num_clicks_accrued": [0, 0, 0, 0, 0, 0, 0, 0, 0, 0, 0, 0, 0], "stateRewards": ["", 2, -8, 24, -24, -2, 8, -48, -48, 2, -8, -24, -48], "withholdReward": false, "trial_id": "mdp_744278669205", "block": "test3", "trialIndex": 72, "score": 21.5, "costs": -1.5, "simulationMode": [null, null, null], "rewards": [2, -8, 24], "path": ["0", "0", "1", "2", "3"], "rt": [4146, 181, 33], "actions": ["up", "up", "right"], "actionTimes": [4471, 5168, 5703], "queries": {"click": {"state": {"target": ["8", "7", "3", "4", "11", "12"], "time": [1101, 1729, 2058, 2649, 3194, 3535]}, "edge": {"target": [], "time": []}}, "mouseover": {"state": {"target": ["0", "5", "8", "8", "6", "7", "3", "2", "4", "4", "11", "11", "10", "12"], "time": [553, 603, 703, 953, 1287, 1603, 1937, 2236, 2287, 2537, 2837, 3071, 3353, 3436]}, "edge": {"target": [], "time": []}}, "mouseout": {"state": {"target": ["0", "0", "5", "8", "8", "6", "7", "3", "2", "4", "4", "11", "11", "10", "12"], "time": [120, 570, 620, 753, 1253, 1320, 1903, 2220, 2270, 2320, 2804, 2870, 3320, 3386, 3837]}, "edge": {"target": [], "time": []}}}, "displayed_time": "8.33", "trialTime": 9096, "trial_type": "mouselab-mdp", "trial_index": 81, "time_elapsed": 1412891, "internal_node_id": "0.0-4.0-5.0-10.0"}}, {"uniqueid": "w14455240:a19164086", "current_trial": 82, "dateTime": 1664557548441, "trialdata": {"revealed_states": [], "num_clicks_accrued": [0, 0, 0, 0, 0, 0, 0, 0, 0, 0, 0, 0, 0], "stateRewards": ["", 2, 8, 24, 24, 2, -8, -24, -48, 2, 8, -48, 48], "withholdReward": false, "trial_id": "mdp_745175888812", "block": "test3", "trialIndex": 73, "score": 61.5, "costs": -1.5, "simulationMode": [null, null, null], "rewards": [2, 8, 48], "path": ["0", "0", "9", "10", "12"], "rt": [4430, 57, 49], "actions": ["left", "left", "down"], "actionTimes": [4826, 5385, 5961], "queries": {"click": {"state": {"target": ["8", "7", "3", "4", "11", "12"], "time": [1029, 1463, 1872, 2755, 3214, 3589]}, "edge": {"target": [], "time": []}}, "mouseover": {"state": {"target": ["8", "6", "7", "3", "2", "4", "4", "11", "10", "12"], "time": [611, 1211, 1361, 1778, 2028, 2079, 2528, 3095, 3378, 3461]}, "edge": {"target": [], "time": []}}, "mouseout": {"state": {"target": ["0", "8", "6", "7", "3", "2", "4", "4", "11", "10", "12"], "time": [528, 1195, 1261, 1628, 2012, 2062, 2329, 2911, 3344, 3428, 3895]}, "edge": {"target": [], "time": []}}}, "displayed_time": "9.40", "trialTime": 9929, "trial_type": "mouselab-mdp", "trial_index": 82, "time_elapsed": 1422866, "internal_node_id": "0.0-4.0-5.0-11.0"}}, {"uniqueid": "w14455240:a19164086", "current_trial": 83, "dateTime": 1664557557569, "trialdata": {"revealed_states": [], "num_clicks_accrued": [0, 0, 0, 0, 0, 0, 0, 0, 0, 0, 0, 0, 0], "stateRewards": ["", -2, 8, -24, 24, -4, -8, -24, 48, -2, -8, -48, 48], "withholdReward": true, "trial_id": "mdp_238332601315", "block": "test3", "trialIndex": 74, "score": 40.5, "costs": -0.5, "simulationMode": [null, null, null], "rewards": [-4, -8, 48], "path": ["0", "0", "5", "6", "8"], "rt": [1406, 38, 32], "actions": ["right", "right", "down"], "actionTimes": [1919, 2463, 3007], "queries": {"click": {"state": {"target": ["8", "7"], "time": [866, 1324]}, "edge": {"target": [], "time": []}}, "mouseover": {"state": {"target": ["8", "6", "7"], "time": [725, 1058, 1125]}, "edge": {"target": [], "time": []}}, "mouseout": {"state": {"target": ["0", "8", "6", "7", "7", "6"], "time": [658, 1041, 1091, 1541, 4159, 4225]}, "edge": {"target": [], "time": []}}}, "displayed_time": "8.52", "trialTime": 9087, "trial_type": "mouselab-mdp", "trial_index": 83, "time_elapsed": 1431994, "internal_node_id": "0.0-4.0-5.0-12.0"}}, {"uniqueid": "w14455240:a19164086", "current_trial": 84, "dateTime": 1664557567019, "trialdata": {"revealed_states": [], "num_clicks_accrued": [0, 0, 0, 0, 0, 0, 0, 0, 0, 0, 0, 0, 0], "stateRewards": ["", -4, 8, -24, -48, 2, 8, -48, -24, -2, -4, 48, -48], "withholdReward": true, "trial_id": "mdp_599927291428", "block": "test3", "trialIndex": 75, "score": 45.5, "costs": -1.5, "simulationMode": [null, null, null], "rewards": [-2, -4, 48], "path": ["0", "0", "9", "10", "11"], "rt": [3197, 91, 42], "actions": ["left", "left", "up"], "actionTimes": [3491, 4083, 4635], "queries": {"click": {"state": {"target": ["8", "7", "3", "4", "11", "12"], "time": [781, 1175, 1545, 1865, 2173, 2828]}, "edge": {"target": [], "time": []}}, "mouseover": {"state": {"target": ["8", "6", "7", "3", "2", "4", "11", "10", "12", "12"], "time": [692, 992, 1076, 1409, 1725, 1792, 2059, 2326, 2392, 2675]}, "edge": {"target": [], "time": []}}, "mouseout": {"state": {"target": ["0", "0", "8", "6", "7", "3", "2", "4", "11", "10", "12", "12", "0"], "time": [5, 542, 959, 1026, 1326, 1675, 1759, 2042, 2288, 2359, 2442, 7792, 9076]}, "edge": {"target": [], "time": []}}}, "displayed_time": "8.30", "trialTime": 9404, "trial_type": "mouselab-mdp", "trial_index": 84, "time_elapsed": 1441444, "internal_node_id": "0.0-4.0-5.0-13.0"}}, {"uniqueid": "w14455240:a19164086", "current_trial": 85, "dateTime": 1664557576858, "trialdata": {"revealed_states": [], "num_clicks_accrued": [0, 0, 0, 0, 0, 0, 0, 0, 0, 0, 0, 0, 0], "stateRewards": ["", 4, -4, 48, -48, -4, -4, 48, -48, 4, 4, -48, -24], "withholdReward": false, "trial_id": "mdp_490058671112", "block": "test3", "trialIndex": 76, "score": 44.5, "costs": -0.5, "simulationMode": [null, null, null], "rewards": [-4, -4, 48], "path": ["0", "0", "5", "6", "7"], "rt": [2085, 48, 474], "actions": ["right", "right", "up"], "actionTimes": [2484, 3044, 4020], "queries": {"click": {"state": {"target": ["8", "7"], "time": [761, 1210]}, "edge": {"target": [], "time": []}}, "mouseover": {"state": {"target": ["8", "7", "3"], "time": [595, 1095, 1462]}, "edge": {"target": [], "time": []}}, "mouseout": {"state": {"target": ["0", "8", "7", "3", "3"], "time": [545, 945, 1378, 1929, 5429]}, "edge": {"target": [], "time": []}}}, "displayed_time": "9.40", "trialTime": 9796, "trial_type": "mouselab-mdp", "trial_index": 85, "time_elapsed": 1451283, "internal_node_id": "0.0-4.0-5.0-14.0"}}, {"uniqueid": "w14455240:a19164086", "current_trial": 86, "dateTime": 1664557586642, "trialdata": {"revealed_states": [], "num_clicks_accrued": [0, 0, 0, 0, 0, 0, 0, 0, 0, 0, 0, 0, 0], "stateRewards": ["", 2, -4, 24, -24, 2, -8, 48, 48, 4, -4, 24, 48], "withholdReward": true, "trial_id": "mdp_947836623875", "block": "test3", "trialIndex": 77, "score": 46.75, "costs": -0.25, "simulationMode": [null, null, null], "rewards": [2, -8, 48], "path": ["0", "0", "5", "6", "8"], "rt": [1509, 83, 188], "actions": ["right", "right", "down"], "actionTimes": [1981, 2573, 3278], "queries": {"click": {"state": {"target": ["8"], "time": [819]}, "edge": {"target": [], "time": []}}, "mouseover": {"state": {"target": ["8", "6", "7", "7"], "time": [689, 1023, 1090, 1473]}, "edge": {"target": [], "time": []}}, "mouseout": {"state": {"target": ["0", "8", "6", "7", "7", "7", "5"], "time": [589, 990, 1057, 1173, 1573, 4373, 4406]}, "edge": {"target": [], "time": []}}}, "displayed_time": "9.47", "trialTime": 9741, "trial_type": "mouselab-mdp", "trial_index": 86, "time_elapsed": 1461067, "internal_node_id": "0.0-4.0-5.0-15.0"}}, {"uniqueid": "w14455240:a19164086", "current_