{"condition": 0, "counterbalance": 0, "assignmentId": "a19506073", "workerId": "w57180820", "hitId": "h71026138", "currenttrial": 965, "bonus": 0, "data": [{"uniqueid": "w57180820:a19506073", "current_trial": 0, "dateTime": 1664557551613, "trialdata": {"success": true, "trial_type": "fullscreen", "trial_index": 0, "time_elapsed": 6942, "internal_node_id": "0.0-0.0"}}, {"uniqueid": "w57180820:a19506073", "current_trial": 1, "dateTime": 1664557579913, "trialdata": {"view_history": [{"page_index": 0, "viewing_time": 28296}], "rt": 28297, "trial_id": "exp_instructions_distractor", "trial_type": "instructions", "trial_index": 1, "time_elapsed": 35242, "internal_node_id": "0.0-1.0"}}, {"uniqueid": "w57180820:a19506073", "current_trial": 2, "dateTime": 1664557625571, "trialdata": {"view_history": [{"page_index": 0, "viewing_time": 45656}], "rt": 45656, "trial_id": "color_game_instructions", "trial_type": "instructions", "trial_index": 2, "time_elapsed": 80900, "internal_node_id": "0.0-2.0"}}, {"uniqueid": "w57180820:a19506073", "current_trial": 3, "dateTime": 1664557636941, "trialdata": {"rt": 11368, "stimulus": "<h1> Get ready to start the game! </h1>\n\nThank you for reading the instructions. Get ready start with the first of 5 block(s) of this game.\n<br><br>\nIn this first block, you will complete 90 rounds of this game before moving on.\n<br><br>\nRemember, the better you perform, the bigger your bonus will be!\n<br><br>\n<div style='text-align: center;'>Press <code>space</code> to begin.</div>", "response": " ", "trial_id": "stroop_1_ready_1", "trial_type": "html-keyboard-response", "trial_index": 3, "time_elapsed": 92270, "internal_node_id": "0.0-3.0"}}, {"uniqueid": "w57180820:a19506073", "current_trial": 4, "dateTime": 1664557639012, "trialdata": {"rt": 2066, "stimulus": "<p id='stroop-text' class='stroop-blue'>RED</p>", "response": "b", "stimulus-type": "incongruent", "word": "red", "color": "blue", "correct_response": "b", "trial_id": "stroop-trial-1-incongruent-7", "trial_type": "html-keyboard-response", "trial_index": 4, "time_elapsed": 94341, "internal_node_id": "0.0-4.0-0.0"}}, {"uniqueid": "w57180820:a19506073", "current_trial": 5, "dateTime": 1664557640476, "trialdata": {"rt": 949, "stimulus": "<p id='stroop-text' class='stroop-red'>RED</p>", "response": "r", "stimulus-type": "congruent", "word": "red", "color": "red", "correct_response": "r", "trial_id": "stroop-trial-1-congruent-12", "trial_type": "html-keyboard-response", "trial_index": 5, "time_elapsed": 95805, "internal_node_id": "0.0-4.0-1.0"}}, {"uniqueid": "w57180820:a19506073", "current_trial": 6, "dateTime": 1664557641972, "trialdata": {"rt": 990, "stimulus": "<p id='stroop-text' class='stroop-green'>MONKEY</p>", "response": "g", "stimulus-type": "unrelated", "word": "MONKEY", "color": "green", "correct_response": "g", "trial_id": "stroop-trial-1-unrelated-4", "trial_type": "html-keyboard-response", "trial_index": 6, "time_elapsed": 97301, "internal_node_id": "0.0-4.0-2.0"}}, {"uniqueid": "w57180820:a19506073", "current_trial": 7, "dateTime": 1664557643540, "trialdata": {"rt": 1061, "stimulus": "<p id='stroop-text' class='stroop-yellow'>RED</p>", "response": "y", "stimulus-type": "incongruent", "word": "red", "color": "yellow", "correct_response": "y", "trial_id": "stroop-trial-1-incongruent-13", "trial_type": "html-keyboard-response", "trial_index": 7, "time_elapsed": 98869, "internal_node_id": "0.0-4.0-3.0"}}, {"uniqueid": "w57180820:a19506073", "current_trial": 8, "dateTime": 1664557644676, "trialdata": {"rt": 631, "stimulus": "<p id='stroop-text' class='stroop-yellow'>CHAIR</p>", "response": "y", "stimulus-type": "unrelated", "word": "CHAIR", "color": "yellow", "correct_response": "y", "trial_id": "stroop-trial-1-unrelated-20", "trial_type": "html-keyboard-response", "trial_index": 8, "time_elapsed": 100005, "internal_node_id": "0.0-4.0-4.0"}}, {"uniqueid": "w57180820:a19506073", "current_trial": 9, "dateTime": 1664557645652, "trialdata": {"rt": 472, "stimulus": "<p id='stroop-text' class='stroop-yellow'>YELLOW</p>", "response": "y", "stimulus-type": "congruent", "word": "yellow", "color": "yellow", "correct_response": "y", "trial_id": "stroop-trial-1-congruent-22", "trial_type": "html-keyboard-response", "trial_index": 9, "time_elapsed": 100981, "internal_node_id": "0.0-4.0-5.0"}}, {"uniqueid": "w57180820:a19506073", "current_trial": 10, "dateTime": 1664557646884, "trialdata": {"rt": 729, "stimulus": "<p id='stroop-text' class='stroop-blue'>GREEN</p>", "response": "g", "stimulus-type": "incongruent", "word": "green", "color": "blue", "correct_response": "b", "trial_id": "stroop-trial-1-incongruent-30", "trial_type": "html-keyboard-response", "trial_index": 10, "time_elapsed": 102213, "internal_node_id": "0.0-4.0-6.0"}}, {"uniqueid": "w57180820:a19506073", "current_trial": 11, "dateTime": 1664557648309, "trialdata": {"rt": 909, "stimulus": "<p id='stroop-text' class='stroop-red'>MONKEY</p>", "response": "r", "stimulus-type": "unrelated", "word": "MONKEY", "color": "red", "correct_response": "r", "trial_id": "stroop-trial-1-unrelated-2", "trial_type": "html-keyboard-response", "trial_index": 11, "time_elapsed": 103637, "internal_node_id": "0.0-4.0-7.0"}}, {"uniqueid": "w57180820:a19506073", "current_trial": 12, "dateTime": 1664557649988, "trialdata": {"rt": 1167, "stimulus": "<p id='stroop-text' class='stroop-blue'>WINDOW</p>", "response": "b", "stimulus-type": "unrelated", "word": "WINDOW", "color": "blue", "correct_response": "b", "trial_id": "stroop-trial-1-unrelated-7", "trial_type": "html-keyboard-response", "trial_index": 12, "time_elapsed": 105317, "internal_node_id": "0.0-4.0-8.0"}}, {"uniqueid": "w57180820:a19506073", "current_trial": 13, "dateTime": 1664557651292, "trialdata": {"rt": 796, "stimulus": "<p id='stroop-text' class='stroop-red'>FORK</p>", "response": "r", "stimulus-type": "unrelated", "word": "FORK", "color": "red", "correct_response": "r", "trial_id": "stroop-trial-1-unrelated-8", "trial_type": "html-keyboard-response", "trial_index": 13, "time_elapsed": 106621, "internal_node_id": "0.0-4.0-9.0"}}, {"uniqueid": "w57180820:a19506073", "current_trial": 14, "dateTime": 1664557652572, "trialdata": {"rt": 767, "stimulus": "<p id='stroop-text' class='stroop-red'>MONKEY</p>", "response": "r", "stimulus-type": "unrelated", "word": "MONKEY", "color": "red", "correct_response": "r", "trial_id": "stroop-trial-1-unrelated-16", "trial_type": "html-keyboard-response", "trial_index": 14, "time_elapsed": 107901, "internal_node_id": "0.0-4.0-10.0"}}, {"uniqueid": "w57180820:a19506073", "current_trial": 15, "dateTime": 1664557653668, "trialdata": {"rt": 584, "stimulus": "<p id='stroop-text' class='stroop-yellow'>YELLOW</p>", "response": "y", "stimulus-type": "congruent", "word": "yellow", "color": "yellow", "correct_response": "y", "trial_id": "stroop-trial-1-congruent-23", "trial_type": "html-keyboard-response", "trial_index": 15, "time_elapsed": 108997, "internal_node_id": "0.0-4.0-11.0"}}, {"uniqueid": "w57180820:a19506073", "current_trial": 16, "dateTime": 1664557655261, "trialdata": {"rt": 1088, "stimulus": "<p id='stroop-text' class='stroop-green'>BOTTLE</p>", "response": "g", "stimulus-type": "unrelated", "word": "BOTTLE", "color": "green", "correct_response": "g", "trial_id": "stroop-trial-1-unrelated-22", "trial_type": "html-keyboard-response", "trial_index": 16, "time_elapsed": 110589, "internal_node_id": "0.0-4.0-12.0"}}, {"uniqueid": "w57180820:a19506073", "current_trial": 17, "dateTime": 1664557656324, "trialdata": {"rt": 555, "stimulus": "<p id='stroop-text' class='stroop-green'>GREEN</p>", "response": "g", "stimulus-type": "congruent", "word": "green", "color": "green", "correct_response": "g", "trial_id": "stroop-trial-1-congruent-20", "trial_type": "html-keyboard-response", "trial_index": 17, "time_elapsed": 111653, "internal_node_id": "0.0-4.0-13.0"}}, {"uniqueid": "w57180820:a19506073", "current_trial": 18, "dateTime": 1664557657404, "trialdata": {"rt": 579, "stimulus": "<p id='stroop-text' class='stroop-red'>WINDOW</p>", "response": "r", "stimulus-type": "unrelated", "word": "WINDOW", "color": "red", "correct_response": "r", "trial_id": "stroop-trial-1-unrelated-30", "trial_type": "html-keyboard-response", "trial_index": 18, "time_elapsed": 112733, "internal_node_id": "0.0-4.0-14.0"}}, {"uniqueid": "w57180820:a19506073", "current_trial": 19, "dateTime": 1664557658476, "trialdata": {"rt": 563, "stimulus": "<p id='stroop-text' class='stroop-blue'>BOTTLE</p>", "response": "b", "stimulus-type": "unrelated", "word": "BOTTLE", "color": "blue", "correct_response": "b", "trial_id": "stroop-trial-1-unrelated-12", "trial_type": "html-keyboard-response", "trial_index": 19, "time_elapsed": 113805, "internal_node_id": "0.0-4.0-15.0"}}, {"uniqueid": "w57180820:a19506073", "current_trial": 20, "dateTime": 1664557659973, "trialdata": {"rt": 993, "stimulus": "<p id='stroop-text' class='stroop-yellow'>YELLOW</p>", "response": "y", "stimulus-type": "congruent", "word": "yellow", "color": "yellow", "correct_response": "y", "trial_id": "stroop-trial-1-congruent-24", "trial_type": "html-keyboard-response", "trial_index": 20, "time_elapsed": 115301, "internal_node_id": "0.0-4.0-16.0"}}, {"uniqueid": "w57180820:a19506073", "current_trial": 21, "dateTime": 1664557660940, "trialdata": {"rt": 461, "stimulus": "<p id='stroop-text' class='stroop-red'>RED</p>", "response": "r", "stimulus-type": "congruent", "word": "red", "color": "red", "correct_response": "r", "trial_id": "stroop-trial-1-congruent-21", "trial_type": "html-keyboard-response", "trial_index": 21, "time_elapsed": 116269, "internal_node_id": "0.0-4.0-17.0"}}, {"uniqueid": "w57180820:a19506073", "current_trial": 22, "dateTime": 1664557662156, "trialdata": {"rt": 701, "stimulus": "<p id='stroop-text' class='stroop-yellow'>RED</p>", "response": "y", "stimulus-type": "incongruent", "word": "red", "color": "yellow", "correct_response": "y", "trial_id": "stroop-trial-1-incongruent-28", "trial_type": "html-keyboard-response", "trial_index": 22, "time_elapsed": 117485, "internal_node_id": "0.0-4.0-18.0"}}, {"uniqueid": "w57180820:a19506073", "current_trial": 23, "dateTime": 1664557663156, "trialdata": {"rt": 488, "stimulus": "<p id='stroop-text' class='stroop-yellow'>YELLOW</p>", "response": "y", "stimulus-type": "congruent", "word": "yellow", "color": "yellow", "correct_response": "y", "trial_id": "stroop-trial-1-congruent-6", "trial_type": "html-keyboard-response", "trial_index": 23, "time_elapsed": 118485, "internal_node_id": "0.0-4.0-19.0"}}, {"uniqueid": "w57180820:a19506073", "current_trial": 24, "dateTime": 1664557664588, "trialdata": {"rt": 929, "stimulus": "<p id='stroop-text' class='stroop-blue'>BLUE</p>", "response": "b", "stimulus-type": "congruent", "word": "blue", "color": "blue", "correct_response": "b", "trial_id": "stroop-trial-1-congruent-26", "trial_type": "html-keyboard-response", "trial_index": 24, "time_elapsed": 119917, "internal_node_id": "0.0-4.0-20.0"}}, {"uniqueid": "w57180820:a19506073", "current_trial": 25, "dateTime": 1664557665692, "trialdata": {"rt": 595, "stimulus": "<p id='stroop-text' class='stroop-green'>SHIP</p>", "response": "g", "stimulus-type": "unrelated", "word": "SHIP", "color": "green", "correct_response": "g", "trial_id": "stroop-trial-1-unrelated-13", "trial_type": "html-keyboard-response", "trial_index": 25, "time_elapsed": 121021, "internal_node_id": "0.0-4.0-21.0"}}, {"uniqueid": "w57180820:a19506073", "current_trial": 26, "dateTime": 1664557666780, "trialdata": {"rt": 579, "stimulus": "<p id='stroop-text' class='stroop-yellow'>BOAT</p>", "response": "y", "stimulus-type": "unrelated", "word": "BOAT", "color": "yellow", "correct_response": "y", "trial_id": "stroop-trial-1-unrelated-1", "trial_type": "html-keyboard-response", "trial_index": 26, "time_elapsed": 122109, "internal_node_id": "0.0-4.0-22.0"}}, {"uniqueid": "w57180820:a19506073", "current_trial": 27, "dateTime": 1664557667812, "trialdata": {"rt": 524, "stimulus": "<p id='stroop-text' class='stroop-green'>GREEN</p>", "response": "g", "stimulus-type": "congruent", "word": "green", "color": "green", "correct_response": "g", "trial_id": "stroop-trial-1-congruent-9", "trial_type": "html-keyboard-response", "trial_index": 27, "time_elapsed": 123141, "internal_node_id": "0.0-4.0-23.0"}}, {"uniqueid": "w57180820:a19506073", "current_trial": 28, "dateTime": 1664557668788, "trialdata": {"rt": 462, "stimulus": "<p id='stroop-text' class='stroop-green'>GREEN</p>", "response": "g", "stimulus-type": "congruent", "word": "green", "color": "green", "correct_response": "g", "trial_id": "stroop-trial-1-congruent-7", "trial_type": "html-keyboard-response", "trial_index": 28, "time_elapsed": 124117, "internal_node_id": "0.0-4.0-24.0"}}, {"uniqueid": "w57180820:a19506073", "current_trial": 29, "dateTime": 1664557669844, "trialdata": {"rt": 544, "stimulus": "<p id='stroop-text' class='stroop-yellow'>RED</p>", "response": "y", "stimulus-type": "incongruent", "word": "red", "color": "yellow", "correct_response": "y", "trial_id": "stroop-trial-1-incongruent-2", "trial_type": "html-keyboard-response", "trial_index": 29, "time_elapsed": 125173, "internal_node_id": "0.0-4.0-25.0"}}, {"uniqueid": "w57180820:a19506073", "current_trial": 30, "dateTime": 1664557670892, "trialdata": {"rt": 541, "stimulus": "<p id='stroop-text' class='stroop-blue'>RED</p>", "response": "b", "stimulus-type": "incongruent", "word": "red", "color": "blue", "correct_response": "b", "trial_id": "stroop-trial-1-incongruent-4", "trial_type": "html-keyboard-response", "trial_index": 30, "time_elapsed": 126221, "internal_node_id": "0.0-4.0-26.0"}}, {"uniqueid": "w57180820:a19506073", "current_trial": 31, "dateTime": 1664557671980, "trialdata": {"rt": 575, "stimulus": "<p id='stroop-text' class='stroop-green'>BOTTLE</p>", "response": "g", "stimulus-type": "unrelated", "word": "BOTTLE", "color": "green", "correct_response": "g", "trial_id": "stroop-trial-1-unrelated-29", "trial_type": "html-keyboard-response", "trial_index": 31, "time_elapsed": 127309, "internal_node_id": "0.0-4.0-27.0"}}, {"uniqueid": "w57180820:a19506073", "current_trial": 32, "dateTime": 1664557673420, "trialdata": {"rt": 931, "stimulus": "<p id='stroop-text' class='stroop-blue'>GREEN</p>", "response": "b", "stimulus-type": "incongruent", "word": "green", "color": "blue", "correct_response": "b", "trial_id": "stroop-trial-1-incongruent-24", "trial_type": "html-keyboard-response", "trial_index": 32, "time_elapsed": 128749, "internal_node_id": "0.0-4.0-28.0"}}, {"uniqueid": "w57180820:a19506073", "current_trial": 33, "dateTime": 1664557674557, "trialdata": {"rt": 630, "stimulus": "<p id='stroop-text' class='stroop-green'>GREEN</p>", "response": "g", "stimulus-type": "congruent", "word": "green", "color": "green", "correct_response": "g", "trial_id": "stroop-trial-1-congruent-2", "trial_type": "html-keyboard-response", "trial_index": 33, "time_elapsed": 129886, "internal_node_id": "0.0-4.0-29.0"}}, {"uniqueid": "w57180820:a19506073", "current_trial": 34, "dateTime": 1664557675726, "trialdata": {"rt": 653, "stimulus": "<p id='stroop-text' class='stroop-green'>YELLOW</p>", "response": "y", "stimulus-type": "incongruent", "word": "yellow", "color": "green", "correct_response": "g", "trial_id": "stroop-trial-1-incongruent-17", "trial_type": "html-keyboard-response", "trial_index": 34, "time_elapsed": 131054, "internal_node_id": "0.0-4.0-30.0"}}, {"uniqueid": "w57180820:a19506073", "current_trial": 35, "dateTime": 1664557677124, "trialdata": {"rt": 887, "stimulus": "<p id='stroop-text' class='stroop-green'>GREEN</p>", "response": "g", "stimulus-type": "congruent", "word": "green", "color": "green", "correct_response": "g", "trial_id": "stroop-trial-1-congruent-13", "trial_type": "html-keyboard-response", "trial_index": 35, "time_elapsed": 132453, "internal_node_id": "0.0-4.0-31.0"}}, {"uniqueid": "w57180820:a19506073", "current_trial": 36, "dateTime": 1664557678309, "trialdata": {"rt": 669, "stimulus": "<p id='stroop-text' class='stroop-red'>BOTTLE</p>", "response": "r", "stimulus-type": "unrelated", "word": "BOTTLE", "color": "red", "correct_response": "r", "trial_id": "stroop-trial-1-unrelated-9", "trial_type": "html-keyboard-response", "trial_index": 36, "time_elapsed": 133637, "internal_node_id": "0.0-4.0-32.0"}}, {"uniqueid": "w57180820:a19506073", "current_trial": 37, "dateTime": 1664557679356, "trialdata": {"rt": 539, "stimulus": "<p id='stroop-text' class='stroop-blue'>GREEN</p>", "response": "b", "stimulus-type": "incongruent", "word": "green", "color": "blue", "correct_response": "b", "trial_id": "stroop-trial-1-incongruent-14", "trial_type": "html-keyboard-response", "trial_index": 37, "time_elapsed": 134685, "internal_node_id": "0.0-4.0-33.0"}}, {"uniqueid": "w57180820:a19506073", "current_trial": 38, "dateTime": 1664557680300, "trialdata": {"rt": 431, "stimulus": "<p id='stroop-text' class='stroop-blue'>BLUE</p>", "response": "b", "stimulus-type": "congruent", "word": "blue", "color": "blue", "correct_response": "b", "trial_id": "stroop-trial-1-congruent-30", "trial_type": "html-keyboard-response", "trial_index": 38, "time_elapsed": 135629, "internal_node_id": "0.0-4.0-34.0"}}, {"uniqueid": "w57180820:a19506073", "current_trial": 39, "dateTime": 1664557681525, "trialdata": {"rt": 714, "stimulus": "<p id='stroop-text' class='stroop-green'>GREEN</p>", "response": "g", "stimulus-type": "congruent", "word": "green", "color": "green", "correct_response": "g", "trial_id": "stroop-trial-1-congruent-10", "trial_type": "html-keyboard-response", "trial_index": 39, "time_elapsed": 136853, "internal_node_id": "0.0-4.0-35.0"}}, {"uniqueid": "w57180820:a19506073", "current_trial": 40, "dateTime": 1664557682700, "trialdata": {"rt": 662, "stimulus": "<p id='stroop-text' class='stroop-blue'>YELLOW</p>", "response": "y", "stimulus-type": "incongruent", "word": "yellow", "color": "blue", "correct_response": "b", "trial_id": "stroop-trial-1-incongruent-15", "trial_type": "html-keyboard-response", "trial_index": 40, "time_elapsed": 138029, "internal_node_id": "0.0-4.0-36.0"}}, {"uniqueid": "w57180820:a19506073", "current_trial": 41, "dateTime": 1664557685044, "trialdata": {"rt": 1829, "stimulus": "<p id='stroop-text' class='stroop-yellow'>FORK</p>", "response": "y", "stimulus-type": "unrelated", "word": "FORK", "color": "yellow", "correct_response": "y", "trial_id": "stroop-trial-1-unrelated-24", "trial_type": "html-keyboard-response", "trial_index": 41, "time_elapsed": 140373, "internal_node_id": "0.0-4.0-37.0"}}, {"uniqueid": "w57180820:a19506073", "current_trial": 42, "dateTime": 1664557686340, "trialdata": {"rt": 784, "stimulus": "<p id='stroop-text' class='stroop-blue'>BLUE</p>", "response": "b", "stimulus-type": "congruent", "word": "blue", "color": "blue", "correct_response": "b", "trial_id": "stroop-trial-1-congruent-17", "trial_type": "html-keyboard-response", "trial_index": 42, "time_elapsed": 141669, "internal_node_id": "0.0-4.0-38.0"}}, {"uniqueid": "w57180820:a19506073", "current_trial": 43, "dateTime": 1664557687444, "trialdata": {"rt": 597, "stimulus": "<p id='stroop-text' class='stroop-red'>BOAT</p>", "response": "r", "stimulus-type": "unrelated", "word": "BOAT", "color": "red", "correct_response": "r", "trial_id": "stroop-trial-1-unrelated-27", "trial_type": "html-keyboard-response", "trial_index": 43, "time_elapsed": 142773, "internal_node_id": "0.0-4.0-39.0"}}, {"uniqueid": "w57180820:a19506073", "current_trial": 44, "dateTime": 1664557688404, "trialdata": {"rt": 454, "stimulus": "<p id='stroop-text' class='stroop-red'>GREEN</p>", "response": "r", "stimulus-type": "incongruent", "word": "green", "color": "red", "correct_response": "r", "trial_id": "stroop-trial-1-incongruent-1", "trial_type": "html-keyboard-response", "trial_index": 44, "time_elapsed": 143733, "internal_node_id": "0.0-4.0-40.0"}}, {"uniqueid": "w57180820:a19506073", "current_trial": 45, "dateTime": 1664557689949, "trialdata": {"rt": 1040, "stimulus": "<p id='stroop-text' class='stroop-blue'>BRAIN</p>", "response": "b", "stimulus-type": "unrelated", "word": "BRAIN", "color": "blue", "correct_response": "b", "trial_id": "stroop-trial-1-unrelated-18", "trial_type": "html-keyboard-response", "trial_index": 45, "time_elapsed": 145277, "internal_node_id": "0.0-4.0-41.0"}}, {"uniqueid": "w57180820:a19506073", "current_trial": 46, "dateTime": 1664557690956, "trialdata": {"rt": 499, "stimulus": "<p id='stroop-text' class='stroop-green'>GREEN</p>", "response": "g", "stimulus-type": "congruent", "word": "green", "color": "green", "correct_response": "g", "trial_id": "stroop-trial-1-congruent-28", "trial_type": "html-keyboard-response", "trial_index": 46, "time_elapsed": 146285, "internal_node_id": "0.0-4.0-42.0"}}, {"uniqueid": "w57180820:a19506073", "current_trial": 47, "dateTime": 1664557692812, "trialdata": {"rt": 1349, "stimulus": "<p id='stroop-text' class='stroop-red'>YELLOW</p>", "response": "r", "stimulus-type": "incongruent", "word": "yellow", "color": "red", "correct_response": "r", "trial_id": "stroop-trial-1-incongruent-22", "trial_type": "html-keyboard-response", "trial_index": 47, "time_elapsed": 148141, "internal_node_id": "0.0-4.0-43.0"}}, {"uniqueid": "w57180820:a19506073", "current_trial": 48, "dateTime": 1664557694333, "trialdata": {"rt": 1014, "stimulus": "<p id='stroop-text' class='stroop-yellow'>GREEN</p>", "response": "y", "stimulus-type": "incongruent", "word": "green", "color": "yellow", "correct_response": "y", "trial_id": "stroop-trial-1-incongruent-9", "trial_type": "html-keyboard-response", "trial_index": 48, "time_elapsed": 149661, "internal_node_id": "0.0-4.0-44.0"}}, {"uniqueid": "w57180820:a19506073", "current_trial": 49, "dateTime": 1664557695284, "trialdata": {"rt": 449, "stimulus": "<p id='stroop-text' class='stroop-green'>GREEN</p>", "response": "g", "stimulus-type": "congruent", "word": "green", "color": "green", "correct_response": "g", "trial_id": "stroop-trial-1-congruent-4", "trial_type": "html-keyboard-response", "trial_index": 49, "time_elapsed": 150613, "internal_node_id": "0.0-4.0-45.0"}}, {"uniqueid": "w57180820:a19506073", "current_trial": 50, "dateTime": 1664557696452, "trialdata": {"rt": 659, "stimulus": "<p id='stroop-text' class='stroop-green'>YELLOW</p>", "response": "y", "stimulus-type": "incongruent", "word": "yellow", "color": "green", "correct_response": "g", "trial_id": "stroop-trial-1-incongruent-10", "trial_type": "html-keyboard-response", "trial_index": 50, "time_elapsed": 151781, "internal_node_id": "0.0-4.0-46.0"}}, {"uniqueid": "w57180820:a19506073", "current_trial": 51, "dateTime": 1664557698004, "trialdata": {"rt": 1047, "stimulus": "<p id='stroop-text' class='stroop-green'>DOG</p>", "response": "b", "stimulus-type": "unrelated", "word": "DOG", "color": "green", "correct_response": "g", "trial_id": "stroop-trial-1-unrelated-14", "trial_type": "html-keyboard-response", "trial_index": 51, "time_elapsed": 153333, "internal_node_id": "0.0-4.0-47.0"}}, {"uniqueid": "w57180820:a19506073", "current_trial": 52, "dateTime": 1664557700221, "trialdata": {"rt": 1713, "stimulus": "<p id='stroop-text' class='stroop-green'>BLUE</p>", "response": "g", "stimulus-type": "incongruent", "word": "blue", "color": "green", "correct_response": "g", "trial_id": "stroop-trial-1-incongruent-25", "trial_type": "html-keyboard-response", "trial_index": 52, "time_elapsed": 155550, "internal_node_id": "0.0-4.0-48.0"}}, {"uniqueid": "w57180820:a19506073", "current_trial": 53, "dateTime": 1664557701164, "trialdata": {"rt": 435, "stimulus": "<p id='stroop-text' class='stroop-green'>GREEN</p>", "response": "g", "stimulus-type": "congruent", "word": "green", "color": "green", "correct_response": "g", "trial_id": "stroop-trial-1-congruent-18", "trial_type": "html-keyboard-response", "trial_index": 53, "time_elapsed": 156493, "internal_node_id": "0.0-4.0-49.0"}}, {"uniqueid": "w57180820:a19506073", "current_trial": 54, "dateTime": 1664557702196, "trialdata": {"rt": 523, "stimulus": "<p id='stroop-text' class='stroop-red'>RED</p>", "response": "r", "stimulus-type": "congruent", "word": "red", "color": "red", "correct_response": "r", "trial_id": "stroop-trial-1-congruent-14", "trial_type": "html-keyboard-response", "trial_index": 54, "time_elapsed": 157525, "internal_node_id": "0.0-4.0-50.0"}}, {"uniqueid": "w57180820:a19506073", "current_trial": 55, "dateTime": 1664557703156, "trialdata": {"rt": 443, "stimulus": "<p id='stroop-text' class='stroop-red'>DOG</p>", "response": "r", "stimulus-type": "unrelated", "word": "DOG", "color": "red", "correct_response": "r", "trial_id": "stroop-trial-1-unrelated-26", "trial_type": "html-keyboard-response", "trial_index": 55, "time_elapsed": 158485, "internal_node_id": "0.0-4.0-51.0"}}, {"uniqueid": "w57180820:a19506073", "current_trial": 56, "dateTime": 1664557705052, "trialdata": {"rt": 1379, "stimulus": "<p id='stroop-text' class='stroop-green'>YELLOW</p>", "response": "g", "stimulus-type": "incongruent", "word": "yellow", "color": "green", "correct_response": "g", "trial_id": "stroop-trial-1-incongruent-20", "trial_type": "html-keyboard-response", "trial_index": 56, "time_elapsed": 160381, "internal_node_id": "0.0-4.0-52.0"}}, {"uniqueid": "w57180820:a19506073", "current_trial": 57, "dateTime": 1664557706060, "trialdata": {"rt": 506, "stimulus": "<p id='stroop-text' class='stroop-yellow'>YELLOW</p>", "response": "y", "stimulus-type": "congruent", "word": "yellow", "color": "yellow", "correct_response": "y", "trial_id": "stroop-trial-1-congruent-27", "trial_type": "html-keyboard-response", "trial_index": 57, "time_elapsed": 161389, "internal_node_id": "0.0-4.0-53.0"}}, {"uniqueid": "w57180820:a19506073", "current_trial": 58, "dateTime": 1664557708069, "trialdata": {"rt": 1492, "stimulus": "<p id='stroop-text' class='stroop-yellow'>BLUE</p>", "response": "g", "stimulus-type": "incongruent", "word": "blue", "color": "yellow", "correct_response": "y", "trial_id": "stroop-trial-1-incongruent-26", "trial_type": "html-keyboard-response", "trial_index": 58, "time_elapsed": 163397, "internal_node_id": "0.0-4.0-54.0"}}, {"uniqueid": "w57180820:a19506073", "current_trial": 59, "dateTime": 1664557709724, "trialdata": {"rt": 1150, "stimulus": "<p id='stroop-text' class='stroop-red'>YELLOW</p>", "response": "r", "stimulus-type": "incongruent", "word": "yellow", "color": "red", "correct_response": "r", "trial_id": "stroop-trial-1-incongruent-12", "trial_type": "html-keyboard-response", "trial_index": 59, "time_elapsed": 165053, "internal_node_id": "0.0-4.0-55.0"}}, {"uniqueid": "w57180820:a19506073", "current_trial": 60, "dateTime": 1664557711084, "trialdata": {"rt": 851, "stimulus": "<p id='stroop-text' class='stroop-yellow'>YELLOW</p>", "response": "y", "stimulus-type": "congruent", "word": "yellow", "color": "yellow", "correct_response": "y", "trial_id": "stroop-trial-1-congruent-25", "trial_type": "html-keyboard-response", "trial_index": 60, "time_elapsed": 166413, "internal_node_id": "0.0-4.0-56.0"}}, {"uniqueid": "w57180820:a19506073", "current_trial": 61, "dateTime": 1664557712180, "trialdata": {"rt": 587, "stimulus": "<p id='stroop-text' class='stroop-yellow'>FORK</p>", "response": "y", "stimulus-type": "unrelated", "word": "FORK", "color": "yellow", "correct_response": "y", "trial_id": "stroop-trial-1-unrelated-5", "trial_type": "html-keyboard-response", "trial_index": 61, "time_elapsed": 167509, "internal_node_id": "0.0-4.0-57.0"}}, {"uniqueid": "w57180820:a19506073", "current_trial": 62, "dateTime": 1664557713548, "trialdata": {"rt": 853, "stimulus": "<p id='stroop-text' class='stroop-red'>BLUE</p>", "response": "r", "stimulus-type": "incongruent", "word": "blue", "color": "red", "correct_response": "r", "trial_id": "stroop-trial-1-incongruent-27", "trial_type": "html-keyboard-response", "trial_index": 62, "time_elapsed": 168877, "internal_node_id": "0.0-4.0-58.0"}}, {"uniqueid": "w57180820:a19506073", "current_trial": 63, "dateTime": 1664557714716, "trialdata": {"rt": 663, "stimulus": "<p id='stroop-text' class='stroop-blue'>MONKEY</p>", "response": "b", "stimulus-type": "unrelated", "word": "MONKEY", "color": "blue", "correct_response": "b", "trial_id": "stroop-trial-1-unrelated-28", "trial_type": "html-keyboard-response", "trial_index": 63, "time_elapsed": 170045, "internal_node_id": "0.0-4.0-59.0"}}, {"uniqueid": "w57180820:a19506073", "current_trial": 64, "dateTime": 1664557715980, "trialdata": {"rt": 760, "stimulus": "<p id='stroop-text' class='stroop-red'>STONE</p>", "response": "r", "stimulus-type": "unrelated", "word": "STONE", "color": "red", "correct_response": "r", "trial_id": "stroop-trial-1-unrelated-11", "trial_type": "html-keyboard-response", "trial_index": 64, "time_elapsed": 171309, "internal_node_id": "0.0-4.0-60.0"}}, {"uniqueid": "w57180820:a19506073", "current_trial": 65, "dateTime": 1664557717524, "trialdata": {"rt": 1042, "stimulus": "<p id='stroop-text' class='stroop-yellow'>BRAIN</p>", "response": "y", "stimulus-type": "unrelated", "word": "BRAIN", "color": "yellow", "correct_response": "y", "trial_id": "stroop-trial-1-unrelated-23", "trial_type": "html-keyboard-response", "trial_index": 65, "time_elapsed": 172853, "internal_node_id": "0.0-4.0-61.0"}}, {"uniqueid": "w57180820:a19506073", "current_trial": 66, "dateTime": 1664557720188, "trialdata": {"rt": 2159, "stimulus": "<p id='stroop-text' class='stroop-blue'>GREEN</p>", "response": "b", "stimulus-type": "incongruent", "word": "green", "color": "blue", "correct_response": "b", "trial_id": "stroop-trial-1-incongruent-5", "trial_type": "html-keyboard-response", "trial_index": 66, "time_elapsed": 175517, "internal_node_id": "0.0-4.0-62.0"}}, {"uniqueid": "w57180820:a19506073", "current_trial": 67, "dateTime": 1664557721388, "trialdata": {"rt": 692, "stimulus": "<p id='stroop-text' class='stroop-yellow'>RED</p>", "response": "y", "stimulus-type": "incongruent", "word": "red", "color": "yellow", "correct_response": "y", "trial_id": "stroop-trial-1-incongruent-11", "trial_type": "html-keyboard-response", "trial_index": 67, "time_elapsed": 176717, "internal_node_id": "0.0-4.0-63.0"}}, {"uniqueid": "w57180820:a19506073", "current_trial": 68, "dateTime": 1664557723268, "trialdata": {"rt": 1365, "stimulus": "<p id='stroop-text' class='stroop-green'>GREEN</p>", "response": "g", "stimulus-type": "congruent", "word": "green", "color": "green", "correct_response": "g", "trial_id": "stroop-trial-1-congruent-1", "trial_type": "html-keyboard-response", "trial_index": 68, "time_elapsed": 178597, "internal_node_id": "0.0-4.0-64.0"}}, {"uniqueid": "w57180820:a19506073", "current_trial": 69, "dateTime": 1664557726076, "trialdata": {"rt": 2293, "stimulus": "<p id='stroop-text' class='stroop-red'>BLUE</p>", "response": "r", "stimulus-type": "incongruent", "word": "blue", "color": "red", "correct_response": "r", "trial_id": "stroop-trial-1-incongruent-3", "trial_type": "html-keyboard-response", "trial_index": 69, "time_elapsed": 181405, "internal_node_id": "0.0-4.0-65.0"}}, {"uniqueid": "w57180820:a19506073", "current_trial": 70, "dateTime": 1664557727132, "trialdata": {"rt": 539, "stimulus": "<p id='stroop-text' class='stroop-red'>BLUE</p>", "response": "r", "stimulus-type": "incongruent", "word": "blue", "color": "red", "correct_response": "r", "trial_id": "stroop-trial-1-incongruent-18", "trial_type": "html-keyboard-response", "trial_index": 70, "time_elapsed": 182461, "internal_node_id": "0.0-4.0-66.0"}}, {"uniqueid": "w57180820:a19506073", "current_trial": 71, "dateTime": 1664557728708, "trialdata": {"rt": 1062, "stimulus": "<p id='stroop-text' class='stroop-green'>BOAT</p>", "response": "g", "stimulus-type": "unrelated", "word": "BOAT", "color": "green", "correct_response": "g", "trial_id": "stroop-trial-1-unrelated-6", "trial_type": "html-keyboard-response", "trial_index": 71, "time_elapsed": 184037, "internal_node_id": "0.0-4.0-67.0"}}, {"uniqueid": "w57180820:a19506073", "current_trial": 72, "dateTime": 1664557730284, "trialdata": {"rt": 1074, "stimulus": "<p id='stroop-text' class='stroop-red'>RED</p>", "response": "r", "stimulus-type": "congruent", "word": "red", "color": "red", "correct_response": "r", "trial_id": "stroop-trial-1-congruent-29", "trial_type": "html-keyboard-response", "trial_index": 72, "time_elapsed": 185613, "internal_node_id": "0.0-4.0-68.0"}}, {"uniqueid": "w57180820:a19506073", "current_trial": 73, "dateTime": 1664557731789, "trialdata": {"rt": 994, "stimulus": "<p id='stroop-text' class='stroop-green'>FORK</p>", "response": "g", "stimulus-type": "unrelated", "word": "FORK", "color": "green", "correct_response": "g", "trial_id": "stroop-trial-1-unrelated-3", "trial_type": "html-keyboard-response", "trial_index": 73, "time_elapsed": 187117, "internal_node_id": "0.0-4.0-69.0"}}, {"uniqueid": "w57180820:a19506073", "current_trial": 74, "dateTime": 1664557733252, "trialdata": {"rt": 958, "stimulus": "<p id='stroop-text' class='stroop-red'>MONKEY</p>", "response": "r", "stimulus-type": "unrelated", "word": "MONKEY", "color": "red", "correct_response": "r", "trial_id": "stroop-trial-1-unrelated-15", "trial_type": "html-keyboard-response", "trial_index": 74, "time_elapsed": 188581, "internal_node_id": "0.0-4.0-70.0"}}, {"uniqueid": "w57180820:a19506073", "current_trial": 75, "dateTime": 1664557734332, "trialdata": {"rt": 570, "stimulus": "<p id='stroop-text' class='stroop-yellow'>YELLOW</p>", "response": "y", "stimulus-type": "congruent", "word": "yellow", "color": "yellow", "correct_response": "y", "trial_id": "stroop-trial-1-congruent-19", "trial_type": "html-keyboard-response", "trial_index": 75, "time_elapsed": 189661, "internal_node_id": "0.0-4.0-71.0"}}, {"uniqueid": "w57180820:a19506073", "current_trial": 76, "dateTime": 1664557736820, "trialdata": {"rt": 1974, "stimulus": "<p id='stroop-text' class='stroop-red'>GREEN</p>", "response": "r", "stimulus-type": "incongruent", "word": "green", "color": "red", "correct_response": "r", "trial_id": "stroop-trial-1-incongruent-21", "trial_type": "html-keyboard-response", "trial_index": 76, "time_elapsed": 192149, "internal_node_id": "0.0-4.0-72.0"}}, {"uniqueid": "w57180820:a19506073", "current_trial": 77, "dateTime": 1664557737932, "trialdata": {"rt": 597, "stimulus": "<p id='stroop-text' class='stroop-blue'>BLUE</p>", "response": "b", "stimulus-type": "congruent", "word": "blue", "color": "blue", "correct_response": "b", "trial_id": "stroop-trial-1-congruent-8", "trial_type": "html-keyboard-response", "trial_index": 77, "time_elapsed": 193261, "internal_node_id": "0.0-4.0-73.0"}}, {"uniqueid": "w57180820:a19506073", "current_trial": 78, "dateTime": 1664557739525, "trialdata": {"rt": 1087, "stimulus": "<p id='stroop-text' class='stroop-green'>BLUE</p>", "response": "g", "stimulus-type": "incongruent", "word": "blue", "color": "green", "correct_response": "g", "trial_id": "stroop-trial-1-incongruent-16", "trial_type": "html-keyboard-response", "trial_index": 78, "time_elapsed": 194854, "internal_node_id": "0.0-4.0-74.0"}}, {"uniqueid": "w57180820:a19506073", "current_trial": 79, "dateTime": 1664557740932, "trialdata": {"rt": 896, "stimulus": "<p id='stroop-text' class='stroop-red'>RED</p>", "response": "r", "stimulus-type": "congruent", "word": "red", "color": "red", "correct_response": "r", "trial_id": "stroop-trial-1-congruent-15", "trial_type": "html-keyboard-response", "trial_index": 79, "time_elapsed": 196261, "internal_node_id": "0.0-4.0-75.0"}}, {"uniqueid": "w57180820:a19506073", "current_trial": 80, "dateTime": 1664557742140, "trialdata": {"rt": 697, "stimulus": "<p id='stroop-text' class='stroop-yellow'>BOAT</p>", "response": "y", "stimulus-type": "unrelated", "word": "BOAT", "color": "yellow", "correct_response": "y", "trial_id": "stroop-trial-1-unrelated-19", "trial_type": "html-keyboard-response", "trial_index": 80, "time_elapsed": 197469, "internal_node_id": "0.0-4.0-76.0"}}, {"uniqueid": "w57180820:a19506073", "current_trial": 81, "dateTime": 1664557743668, "trialdata": {"rt": 1011, "stimulus": "<p id='stroop-text' class='stroop-red'>RED</p>", "response": "r", "stimulus-type": "congruent", "word": "red", "color": "red", "correct_response": "r", "trial_id": "stroop-trial-1-congruent-11", "trial_type": "html-keyboard-response", "trial_index": 81, "time_elapsed": 198997, "internal_node_id": "0.0-4.0-77.0"}}, {"uniqueid": "w57180820:a19506073", "current_trial": 82, "dateTime": 1664557745604, "trialdata": {"rt": 1431, "stimulus": "<p id='stroop-text' class='stroop-red'>BLUE</p>", "response": "r", "stimulus-type": "incongruent", "word": "blue", "color": "red", "correct_response": "r", "trial_id": "stroop-trial-1-incongruent-6", "trial_type": "html-keyboard-response", "trial_index": 82, "time_elapsed": 200933, "internal_node_id": "0.0-4.0-78.0"}}, {"uniqueid": "w57180820:a19506073", "current_trial": 83, "dateTime": 1664557747740, "trialdata": {"rt": 1621, "stimulus": "<p id='stroop-text' class='stroop-green'>BOTTLE</p>", "response": "g", "stimulus-type": "unrelated", "word": "BOTTLE", "color": "green", "correct_response": "g", "trial_id": "stroop-trial-1-unrelated-25", "trial_type": "html-keyboard-response", "trial_index": 83, "time_elapsed": 203069, "internal_node_id": "0.0-4.0-79.0"}}, {"uniqueid": "w57180820:a19506073", "current_trial": 84, "dateTime": 1664557749596, "trialdata": {"rt": 1350, "stimulus": "<p id='stroop-text' class='stroop-yellow'>RED</p>", "response": "y", "stimulus-type": "incongruent", "word": "red", "color": "yellow", "correct_response": "y", "trial_id": "stroop-trial-1-incongruent-8", "trial_type": "html-keyboard-response", "trial_index": 84, "time_elapsed": 204925, "internal_node_id": "0.0-4.0-80.0"}}, {"uniqueid": "w57180820:a19506073", "current_trial": 85, "dateTime": 1664557751156, "trialdata": {"rt": 1057, "stimulus": "<p id='stroop-text' class='stroop-blue'>BOAT</p>", "response": "b", "stimulus-type": "unrelated", "word": "BOAT", "color": "blue", "correct_response": "b", "trial_id": "stroop-trial-1-unrelated-17", "trial_type": "html-keyboard-response", "trial_index": 85, "time_elapsed": 206485, "internal_node_id": "0.0-4.0-81.0"}}, {"uniqueid": "w57180820:a19506073", "current_trial": 86, "dateTime": 1664557752292, "trialdata": {"rt": 632, "stimulus": "<p id='stroop-text' class='stroop-green'>GREEN</p>", "response": "g", "stimulus-type": "congruent", "word": "green", "color": "green", "correct_response": "g", "trial_id": "stroop-trial-1-congruent-3", "trial_type": "html-keyboard-response", "trial_index": 86, "time_elapsed": 207621, "internal_node_id": "0.0-4.0-82.0"}}, {"uniqueid": "w57180820:a19506073", "current_trial": 87, "dateTime": 1664557753620, "trialdata": {"rt": 826, "stimulus": "<p id='stroop-text' class='stroop-green'>RED</p>", "response": "r", "stimulus-type": "incongruent", "word": "red", "color": "green", "correct_response": "g", "trial_id": "stroop-trial-1-incongruent-19", "trial_type": "html-keyboard-response", "trial_index": 87, "time_elapsed": 208949, "internal_node_id": "0.0-4.0-83.0"}}, {"uniqueid": "w57180820:a19506073", "current_trial": 88, "dateTime": 1664557755269, "trialdata": {"rt": 1134, "stimulus": "<p id='stroop-text' class='stroop-green'>FORK</p>", "response": "g", "stimulus-type": "unrelated", "word": "FORK", "color": "green", "correct_response": "g", "trial_id": "stroop-trial-1-unrelated-21", "trial_type": "html-keyboard-response", "trial_index": 88, "time_elapsed": 210598, "internal_node_id": "0.0-4.0-84.0"}}, {"uniqueid": "w57180820:a19506073", "current_trial": 89, "dateTime": 1664557756412, "trialdata": {"rt": 633, "stimulus": "<p id='stroop-text' class='stroop-red'>SHIP</p>", "response": "r", "stimulus-type": "unrelated", "word": "SHIP", "color": "red", "correct_response": "r", "trial_id": "stroop-trial-1-unrelated-10", "trial_type": "html-keyboard-response", "trial_index": 89, "time_elapsed": 211741, "internal_node_id": "0.0-4.0-85.0"}}, {"uniqueid": "w57180820:a19506073", "current_trial": 90, "dateTime": 1664557757580, "trialdata": {"rt": 651, "stimulus": "<p id='stroop-text' class='stroop-red'>RED</p>", "response": "r", "stimulus-type": "congruent", "word": "red", "color": "red", "correct_response": "r", "trial_id": "stroop-trial-1-congruent-5", "trial_type": "html-keyboard-response", "trial_index": 90, "time_elapsed": 212909, "internal_node_id": "0.0-4.0-86.0"}}, {"uniqueid": "w57180820:a19506073", "current_trial": 91, "dateTime": 1664557759284, "trialdata": {"rt": 1191, "stimulus": "<p id='stroop-text' class='stroop-yellow'>BLUE</p>", "response": "y", "stimulus-type": "incongruent", "word": "blue", "color": "yellow", "correct_response": "y", "trial_id": "stroop-trial-1-incongruent-23", "trial_type": "html-keyboard-response", "trial_index": 91, "time_elapsed": 214613, "internal_node_id": "0.0-4.0-87.0"}}, {"uniqueid": "w57180820:a19506073", "current_trial": 92, "dateTime": 1664557760708, "trialdata": {"rt": 909, "stimulus": "<p id='stroop-text' class='stroop-blue'>YELLOW</p>", "response": "y", "stimulus-type": "incongruent", "word": "yellow", "color": "blue", "correct_response": "b", "trial_id": "stroop-trial-1-incongruent-29", "trial_type": "html-keyboard-response", "trial_index": 92, "time_elapsed": 216037, "internal_node_id": "0.0-4.0-88.0"}}, {"uniqueid": "w57180820:a19506073", "current_trial": 93, "dateTime": 1664557762276, "trialdata": {"rt": 1056, "stimulus": "<p id='stroop-text' class='stroop-green'>GREEN</p>", "response": "g", "stimulus-type": "congruent", "word": "green", "color": "green", "correct_response": "g", "trial_id": "stroop-trial-1-congruent-16", "trial_type": "html-keyboard-response", "trial_index": 93, "time_elapsed": 217605, "internal_node_id": "0.0-4.0-89.0"}}, {"uniqueid": "w57180820:a19506073", "current_trial": 94, "dateTime": 1664557811597, "trialdata": {"rt": 48808, "stimulus": "  <h1> End of block! </h1>\n\n  You have reached the end of the block 1/5. If you need a short break, feel free to take one now before moving on.\n\n  <br><br>\n  In the next block, you will complete another 90 rounds of this game.\n\n  <br><br>\n  <div style='text-align: center;'>Press <code>space</code> to begin.</div>\n  <br><br>\n<div style='text-align: center;'>(If the experiment doesn't continue, try clicking on the text and then pressing <code>space</code>.)</div>", "response": " ", "trial_id": "stroop_1_ready_2", "trial_type": "html-keyboard-response", "trial_index": 94, "time_elapsed": 266926, "internal_node_id": "0.0-5.0"}}, {"uniqueid": "w57180820:a19506073", "current_trial": 95, "dateTime": 1664557813148, "trialdata": {"rt": 1550, "stimulus": "<p id='stroop-text' class='stroop-green'>GREEN</p>", "response": "g", "stimulus-type": "congruent", "word": "green", "color": "green", "correct_response": "g", "trial_id": "stroop-trial-1-congruent-29", "trial_type": "html-keyboard-response", "trial_index": 95, "time_elapsed": 268477, "internal_node_id": "0.0-6.0-0.0"}}, {"uniqueid": "w57180820:a19506073", "current_trial": 96, "dateTime": 1664557814877, "trialdata": {"rt": 1216, "stimulus": "<p id='stroop-text' class='stroop-yellow'>RED</p>", "response": "y", "stimulus-type": "incongruent", "word": "red", "color": "yellow", "correct_response": "y", "trial_id": "stroop-trial-1-incongruent-26", "trial_type": "html-keyboard-response", "trial_index": 96, "time_elapsed": 270205, "internal_node_id": "0.0-6.0-1.0"}}, {"uniqueid": "w57180820:a19506073", "current_trial": 97, "dateTime": 1664557816060, "trialdata": {"rt": 680, "stimulus": "<p id='stroop-text' class='stroop-blue'>WINDOW</p>", "response": "b", "stimulus-type": "unrelated", "word": "WINDOW", "color": "blue", "correct_response": "b", "trial_id": "stroop-trial-1-unrelated-7", "trial_type": "html-keyboard-response", "trial_index": 97, "time_elapsed": 271389, "internal_node_id": "0.0-6.0-2.0"}}, {"uniqueid": "w57180820:a19506073", "current_trial": 98, "dateTime": 1664557817676, "trialdata": {"rt": 1099, "stimulus": "<p id='stroop-text' class='stroop-red'>YELLOW</p>", "response": "r", "stimulus-type": "incongruent", "word": "yellow", "color": "red", "correct_response": "r", "trial_id": "stroop-trial-1-incongruent-21", "trial_type": "html-keyboard-response", "trial_index": 98, "time_elapsed": 273005, "internal_node_id": "0.0-6.0-3.0"}}, {"uniqueid": "w57180820:a19506073", "current_trial": 99, "dateTime": 1664557818644, "trialdata": {"rt": 453, "stimulus": "<p id='stroop-text' class='stroop-red'>RED</p>", "response": "r", "stimulus-type": "congruent", "word": "red", "color": "red", "correct_response": "r", "trial_id": "stroop-trial-1-congruent-10", "trial_type": "html-keyboard-response", "trial_index": 99, "time_elapsed": 273973, "internal_node_id": "0.0-6.0-4.0"}}, {"uniqueid": "w57180820:a19506073", "current_trial": 100, "dateTime": 1664557819644, "trialdata": {"rt": 494, "stimulus": "<p id='stroop-text' class='stroop-yellow'>YELLOW</p>", "response": "y", "stimulus-type": "congruent", "word": "yellow", "color": "yellow", "correct_response": "y", "trial_id": "stroop-trial-1-congruent-12", "trial_type": "html-keyboard-response", "trial_index": 100, "time_elapsed": 274973, "internal_node_id": "0.0-6.0-5.0"}}, {"uniqueid": "w57180820:a19506073", "current_trial": 101, "dateTime": 1664557820580, "trialdata": {"rt": 425, "stimulus": "<p id='stroop-text' class='stroop-yellow'>YELLOW</p>", "response": "y", "stimulus-type": "congruent", "word": "yellow", "color": "yellow", "correct_response": "y", "trial_id": "stroop-trial-1-congruent-23", "trial_type": "html-keyboard-response", "trial_index": 101, "time_elapsed": 275909, "internal_node_id": "0.0-6.0-6.0"}}, {"uniqueid": "w57180820:a19506073", "current_trial": 102, "dateTime": 1664557821452, "trialdata": {"rt": 355, "stimulus": "<p id='stroop-text' class='stroop-yellow'>YELLOW</p>", "response": "y", "stimulus-type": "congruent", "word": "yellow", "color": "yellow", "correct_response": "y", "trial_id": "stroop-trial-1-congruent-5", "trial_type": "html-keyboard-response", "trial_index": 102, "time_elapsed": 276781, "internal_node_id": "0.0-6.0-7.0"}}, {"uniqueid": "w57180820:a19506073", "current_trial": 103, "dateTime": 1664557822716, "trialdata": {"rt": 756, "stimulus": "<p id='stroop-text' class='stroop-yellow'>RED</p>", "response": "r", "stimulus-type": "incongruent", "word": "red", "color": "yellow", "correct_response": "y", "trial_id": "stroop-trial-1-incongruent-1", "trial_type": "html-keyboard-response", "trial_index": 103, "time_elapsed": 278045, "internal_node_id": "0.0-6.0-8.0"}}, {"uniqueid": "w57180820:a19506073", "current_trial": 104, "dateTime": 1664557823908, "trialdata": {"rt": 685, "stimulus": "<p id='stroop-text' class='stroop-yellow'>BRIDGE</p>", "response": "y", "stimulus-type": "unrelated", "word": "BRIDGE", "color": "yellow", "correct_response": "y", "trial_id": "stroop-trial-1-unrelated-20", "trial_type": "html-keyboard-response", "trial_index": 104, "time_elapsed": 279237, "internal_node_id": "0.0-6.0-9.0"}}, {"uniqueid": "w57180820:a19506073", "current_trial": 105, "dateTime": 1664557825188, "trialdata": {"rt": 766, "stimulus": "<p id='stroop-text' class='stroop-red'>MONKEY</p>", "response": "r", "stimulus-type": "unrelated", "word": "MONKEY", "color": "red", "correct_response": "r", "trial_id": "stroop-trial-1-unrelated-3", "trial_type": "html-keyboard-response", "trial_index": 105, "time_elapsed": 280517, "internal_node_id": "0.0-6.0-10.0"}}, {"uniqueid": "w57180820:a19506073", "current_trial": 106, "dateTime": 1664557826460, "trialdata": {"rt": 766, "stimulus": "<p id='stroop-text' class='stroop-green'>BRIDGE</p>", "response": "g", "stimulus-type": "unrelated", "word": "BRIDGE", "color": "green", "correct_response": "g", "trial_id": "stroop-trial-1-unrelated-15", "trial_type": "html-keyboard-response", "trial_index": 106, "time_elapsed": 281789, "internal_node_id": "0.0-6.0-11.0"}}, {"uniqueid": "w57180820:a19506073", "current_trial": 107, "dateTime": 1664557827340, "trialdata": {"rt": 376, "stimulus": "<p id='stroop-text' class='stroop-green'>YELLOW</p>", "response": "g", "stimulus-type": "incongruent", "word": "yellow", "color": "green", "correct_response": "g", "trial_id": "stroop-trial-1-incongruent-16", "trial_type": "html-keyboard-response", "trial_index": 107, "time_elapsed": 282669, "internal_node_id": "0.0-6.0-12.0"}}, {"uniqueid": "w57180820:a19506073", "current_trial": 108, "dateTime": 1664557829300, "trialdata": {"rt": 1445, "stimulus": "<p id='stroop-text' class='stroop-yellow'>GREEN</p>", "response": "y", "stimulus-type": "incongruent", "word": "green", "color": "yellow", "correct_response": "y", "trial_id": "stroop-trial-1-incongruent-28", "trial_type": "html-keyboard-response", "trial_index": 108, "time_elapsed": 284629, "internal_node_id": "0.0-6.0-13.0"}}, {"uniqueid": "w57180820:a19506073", "current_trial": 109, "dateTime": 1664557830828, "trialdata": {"rt": 1019, "stimulus": "<p id='stroop-text' class='stroop-green'>WINDOW</p>", "response": "g", "stimulus-type": "unrelated", "word": "WINDOW", "color": "green", "correct_response": "g", "trial_id": "stroop-trial-1-unrelated-16", "trial_type": "html-keyboard-response", "trial_index": 109, "time_elapsed": 286157, "internal_node_id": "0.0-6.0-14.0"}}, {"uniqueid": "w57180820:a19506073", "current_trial": 110, "dateTime": 1664557832292, "trialdata": {"rt": 951, "stimulus": "<p id='stroop-text' class='stroop-red'>RED</p>", "response": "r", "stimulus-type": "congruent", "word": "red", "color": "red", "correct_response": "r", "trial_id": "stroop-trial-1-congruent-28", "trial_type": "html-keyboard-response", "trial_index": 110, "time_elapsed": 287621, "internal_node_id": "0.0-6.0-15.0"}}, {"uniqueid": "w57180820:a19506073", "current_trial": 111, "dateTime": 1664557833660, "trialdata": {"rt": 865, "stimulus": "<p id='stroop-text' class='stroop-green'>GREEN</p>", "response": "g", "stimulus-type": "congruent", "word": "green", "color": "green", "correct_response": "g", "trial_id": "stroop-trial-1-congruent-21", "trial_type": "html-keyboard-response", "trial_index": 111, "time_elapsed": 288989, "internal_node_id": "0.0-6.0-16.0"}}, {"uniqueid": "w57180820:a19506073", "current_trial": 112, "dateTime": 1664557834820, "trialdata": {"rt": 650, "stimulus": "<p id='stroop-text' class='stroop-yellow'>YELLOW</p>", "response": "y", "stimulus-type": "congruent", "word": "yellow", "color": "yellow", "correct_response": "y", "trial_id": "stroop-trial-1-congruent-11", "trial_type": "html-keyboard-response", "trial_index": 112, "time_elapsed": 290149, "internal_node_id": "0.0-6.0-17.0"}}, {"uniqueid": "w57180820:a19506073", "current_trial": 113, "dateTime": 1664557836116, "trialdata": {"rt": 782, "stimulus": "<p id='stroop-text' class='stroop-green'>DOG</p>", "response": "g", "stimulus-type": "unrelated", "word": "DOG", "color": "green", "correct_response": "g", "trial_id": "stroop-trial-1-unrelated-19", "trial_type": "html-keyboard-response", "trial_index": 113, "time_elapsed": 291445, "internal_node_id": "0.0-6.0-18.0"}}, {"uniqueid": "w57180820:a19506073", "current_trial": 114, "dateTime": 1664557837356, "trialdata": {"rt": 732, "stimulus": "<p id='stroop-text' class='stroop-green'>RED</p>", "response": "g", "stimulus-type": "incongruent", "word": "red", "color": "green", "correct_response": "g", "trial_id": "stroop-trial-1-incongruent-29", "trial_type": "html-keyboard-response", "trial_index": 114, "time_elapsed": 292685, "internal_node_id": "0.0-6.0-19.0"}}, {"uniqueid": "w57180820:a19506073", "current_trial": 115, "dateTime": 1664557839604, "trialdata": {"rt": 1741, "stimulus": "<p id='stroop-text' class='stroop-blue'>GREEN</p>", "response": "b", "stimulus-type": "incongruent", "word": "green", "color": "blue", "correct_response": "b", "trial_id": "stroop-trial-1-incongruent-14", "trial_type": "html-keyboard-response", "trial_index": 115, "time_elapsed": 294933, "internal_node_id": "0.0-6.0-20.0"}}, {"uniqueid": "w57180820:a19506073", "current_trial": 116, "dateTime": 1664557840708, "trialdata": {"rt": 591, "stimulus": "<p id='stroop-text' class='stroop-red'>RED</p>", "response": "r", "stimulus-type": "congruent", "word": "red", "color": "red", "correct_response": "r", "trial_id": "stroop-trial-1-congruent-22", "trial_type": "html-keyboard-response", "trial_index": 116, "time_elapsed": 296037, "internal_node_id": "0.0-6.0-21.0"}}, {"uniqueid": "w57180820:a19506073", "current_trial": 117, "dateTime": 1664557842012, "trialdata": {"rt": 793, "stimulus": "<p id='stroop-text' class='stroop-blue'>GREEN</p>", "response": "b", "stimulus-type": "incongruent", "word": "green", "color": "blue", "correct_response": "b", "trial_id": "stroop-trial-1-incongruent-7", "trial_type": "html-keyboard-response", "trial_index": 117, "time_elapsed": 297341, "internal_node_id": "0.0-6.0-22.0"}}, {"uniqueid": "w57180820:a19506073", "current_trial": 118, "dateTime": 1664557843004, "trialdata": {"rt": 489, "stimulus": "<p id='stroop-text' class='stroop-blue'>YELLOW</p>", "response": "b", "stimulus-type": "incongruent", "word": "yellow", "color": "blue", "correct_response": "b", "trial_id": "stroop-trial-1-incongruent-11", "trial_type": "html-keyboard-response", "trial_index": 118, "time_elapsed": 298333, "internal_node_id": "0.0-6.0-23.0"}}, {"uniqueid": "w57180820:a19506073", "current_trial": 119, "dateTime": 1664557844892, "trialdata": {"rt": 1386, "stimulus": "<p id='stroop-text' class='stroop-green'>BRAIN</p>", "response": "g", "stimulus-type": "unrelated", "word": "BRAIN", "color": "green", "correct_response": "g", "trial_id": "stroop-trial-1-unrelated-23", "trial_type": "html-keyboard-response", "trial_index": 119, "time_elapsed": 300221, "internal_node_id": "0.0-6.0-24.0"}}, {"uniqueid": "w57180820:a19506073", "current_trial": 120, "dateTime": 1664557846100, "trialdata": {"rt": 699, "stimulus": "<p id='stroop-text' class='stroop-blue'>BLUE</p>", "response": "b", "stimulus-type": "congruent", "word": "blue", "color": "blue", "correct_response": "b", "trial_id": "stroop-trial-1-congruent-6", "trial_type": "html-keyboard-response", "trial_index": 120, "time_elapsed": 301429, "internal_node_id": "0.0-6.0-25.0"}}, {"uniqueid": "w57180820:a19506073", "current_trial": 121, "dateTime": 1664557847644, "trialdata": {"rt": 1027, "stimulus": "<p id='stroop-text' class='stroop-green'>BLUE</p>", "response": "g", "stimulus-type": "incongruent", "word": "blue", "color": "green", "correct_response": "g", "trial_id": "stroop-trial-1-incongruent-15", "trial_type": "html-keyboard-response", "trial_index": 121, "time_elapsed": 302973, "internal_node_id": "0.0-6.0-26.0"}}, {"uniqueid": "w57180820:a19506073", "current_trial": 122, "dateTime": 1664557848956, "trialdata": {"rt": 807, "stimulus": "<p id='stroop-text' class='stroop-blue'>BLUE</p>", "response": "b", "stimulus-type": "congruent", "word": "blue", "color": "blue", "correct_response": "b", "trial_id": "stroop-trial-1-congruent-7", "trial_type": "html-keyboard-response", "trial_index": 122, "time_elapsed": 304285, "internal_node_id": "0.0-6.0-27.0"}}, {"uniqueid": "w57180820:a19506073", "current_trial": 123, "dateTime": 1664557849892, "trialdata": {"rt": 419, "stimulus": "<p id='stroop-text' class='stroop-blue'>BLUE</p>", "response": "b", "stimulus-type": "congruent", "word": "blue", "color": "blue", "correct_response": "b", "trial_id": "stroop-trial-1-congruent-30", "trial_type": "html-keyboard-response", "trial_index": 123, "time_elapsed": 305221, "internal_node_id": "0.0-6.0-28.0"}}, {"uniqueid": "w57180820:a19506073", "current_trial": 124, "dateTime": 1664557850948, "trialdata": {"rt": 539, "stimulus": "<p id='stroop-text' class='stroop-yellow'>BOAT</p>", "response": "y", "stimulus-type": "unrelated", "word": "BOAT", "color": "yellow", "correct_response": "y", "trial_id": "stroop-trial-1-unrelated-26", "trial_type": "html-keyboard-response", "trial_index": 124, "time_elapsed": 306277, "internal_node_id": "0.0-6.0-29.0"}}, {"uniqueid": "w57180820:a19506073", "current_trial": 125, "dateTime": 1664557852212, "trialdata": {"rt": 751, "stimulus": "<p id='stroop-text' class='stroop-blue'>BOTTLE</p>", "response": "b", "stimulus-type": "unrelated", "word": "BOTTLE", "color": "blue", "correct_response": "b", "trial_id": "stroop-trial-1-unrelated-22", "trial_type": "html-keyboard-response", "trial_index": 125, "time_elapsed": 307541, "internal_node_id": "0.0-6.0-30.0"}}, {"uniqueid": "w57180820:a19506073", "current_trial": 126, "dateTime": 1664557853220, "trialdata": {"rt": 500, "stimulus": "<p id='stroop-text' class='stroop-blue'>BLUE</p>", "response": "b", "stimulus-type": "congruent", "word": "blue", "color": "blue", "correct_response": "b", "trial_id": "stroop-trial-1-congruent-15", "trial_type": "html-keyboard-response", "trial_index": 126, "time_elapsed": 308549, "internal_node_id": "0.0-6.0-31.0"}}, {"uniqueid": "w57180820:a19506073", "current_trial": 127, "dateTime": 1664557854316, "trialdata": {"rt": 593, "stimulus": "<p id='stroop-text' class='stroop-green'>MONKEY</p>", "response": "g", "stimulus-type": "unrelated", "word": "MONKEY", "color": "green", "correct_response": "g", "trial_id": "stroop-trial-1-unrelated-24", "trial_type": "html-keyboard-response", "trial_index": 127, "time_elapsed": 309645, "internal_node_id": "0.0-6.0-32.0"}}, {"uniqueid": "w57180820:a19506073", "current_trial": 128, "dateTime": 1664557855444, "trialdata": {"rt": 622, "stimulus": "<p id='stroop-text' class='stroop-yellow'>BLUE</p>", "response": "y", "stimulus-type": "incongruent", "word": "blue", "color": "yellow", "correct_response": "y", "trial_id": "stroop-trial-1-incongruent-10", "trial_type": "html-keyboard-response", "trial_index": 128, "time_elapsed": 310773, "internal_node_id": "0.0-6.0-33.0"}}, {"uniqueid": "w57180820:a19506073", "current_trial": 129, "dateTime": 1664557856692, "trialdata": {"rt": 735, "stimulus": "<p id='stroop-text' class='stroop-red'>RED</p>", "response": "r", "stimulus-type": "congruent", "word": "red", "color": "red", "correct_response": "r", "trial_id": "stroop-trial-1-congruent-8", "trial_type": "html-keyboard-response", "trial_index": 129, "time_elapsed": 312021, "internal_node_id": "0.0-6.0-34.0"}}, {"uniqueid": "w57180820:a19506073", "current_trial": 130, "dateTime": 1664557858100, "trialdata": {"rt": 898, "stimulus": "<p id='stroop-text' class='stroop-blue'>BOTTLE</p>", "response": "b", "stimulus-type": "unrelated", "word": "BOTTLE", "color": "blue", "correct_response": "b", "trial_id": "stroop-trial-1-unrelated-28", "trial_type": "html-keyboard-response", "trial_index": 130, "time_elapsed": 313429, "internal_node_id": "0.0-6.0-35.0"}}, {"uniqueid": "w57180820:a19506073", "current_trial": 131, "dateTime": 1664557859468, "trialdata": {"rt": 863, "stimulus": "<p id='stroop-text' class='stroop-yellow'>BLUE</p>", "response": "y", "stimulus-type": "incongruent", "word": "blue", "color": "yellow", "correct_response": "y", "trial_id": "stroop-trial-1-incongruent-3", "trial_type": "html-keyboard-response", "trial_index": 131, "time_elapsed": 314797, "internal_node_id": "0.0-6.0-36.0"}}, {"uniqueid": "w57180820:a19506073", "current_trial": 132, "dateTime": 1664557861044, "trialdata": {"rt": 1063, "stimulus": "<p id='stroop-text' class='stroop-blue'>BLUE</p>", "response": "b", "stimulus-type": "congruent", "word": "blue", "color": "blue", "correct_response": "b", "trial_id": "stroop-trial-1-congruent-24", "trial_type": "html-keyboard-response", "trial_index": 132, "time_elapsed": 316373, "internal_node_id": "0.0-6.0-37.0"}}, {"uniqueid": "w57180820:a19506073", "current_trial": 133, "dateTime": 1664557862084, "trialdata": {"rt": 534, "stimulus": "<p id='stroop-text' class='stroop-green'>YELLOW</p>", "response": "y", "stimulus-type": "incongruent", "word": "yellow", "color": "green", "correct_response": "g", "trial_id": "stroop-trial-1-incongruent-4", "trial_type": "html-keyboard-response", "trial_index": 133, "time_elapsed": 317413, "internal_node_id": "0.0-6.0-38.0"}}, {"uniqueid": "w57180820:a19506073", "current_trial": 134, "dateTime": 1664557863348, "trialdata": {"rt": 761, "stimulus": "<p id='stroop-text' class='stroop-red'>RED</p>", "response": "r", "stimulus-type": "congruent", "word": "red", "color": "red", "correct_response": "r", "trial_id": "stroop-trial-1-congruent-3", "trial_type": "html-keyboard-response", "trial_index": 134, "time_elapsed": 318677, "internal_node_id": "0.0-6.0-39.0"}}, {"uniqueid": "w57180820:a19506073", "current_trial": 135, "dateTime": 1664557864436, "trialdata": {"rt": 575, "stimulus": "<p id='stroop-text' class='stroop-green'>WINDOW</p>", "response": "g", "stimulus-type": "unrelated", "word": "WINDOW", "color": "green", "correct_response": "g", "trial_id": "stroop-trial-1-unrelated-13", "trial_type": "html-keyboard-response", "trial_index": 135, "time_elapsed": 319765, "internal_node_id": "0.0-6.0-40.0"}}, {"uniqueid": "w57180820:a19506073", "current_trial": 136, "dateTime": 1664557865380, "trialdata": {"rt": 441, "stimulus": "<p id='stroop-text' class='stroop-green'>MONKEY</p>", "response": "g", "stimulus-type": "unrelated", "word": "MONKEY", "color": "green", "correct_response": "g", "trial_id": "stroop-trial-1-unrelated-12", "trial_type": "html-keyboard-response", "trial_index": 136, "time_elapsed": 320709, "internal_node_id": "0.0-6.0-41.0"}}, {"uniqueid": "w57180820:a19506073", "current_trial": 137, "dateTime": 1664557866636, "trialdata": {"rt": 743, "stimulus": "<p id='stroop-text' class='stroop-yellow'>BRIDGE</p>", "response": "y", "stimulus-type": "unrelated", "word": "BRIDGE", "color": "yellow", "correct_response": "y", "trial_id": "stroop-trial-1-unrelated-25", "trial_type": "html-keyboard-response", "trial_index": 137, "time_elapsed": 321965, "internal_node_id": "0.0-6.0-42.0"}}, {"uniqueid": "w57180820:a19506073", "current_trial": 138, "dateTime": 1664557868468, "trialdata": {"rt": 1315, "stimulus": "<p id='stroop-text' class='stroop-blue'>MONKEY</p>", "response": "b", "stimulus-type": "unrelated", "word": "MONKEY", "color": "blue", "correct_response": "b", "trial_id": "stroop-trial-1-unrelated-21", "trial_type": "html-keyboard-response", "trial_index": 138, "time_elapsed": 323797, "internal_node_id": "0.0-6.0-43.0"}}, {"uniqueid": "w57180820:a19506073", "current_trial": 139, "dateTime": 1664557870476, "trialdata": {"rt": 1490, "stimulus": "<p id='stroop-text' class='stroop-green'>DOG</p>", "response": "g", "stimulus-type": "unrelated", "word": "DOG", "color": "green", "correct_response": "g", "trial_id": "stroop-trial-1-unrelated-10", "trial_type": "html-keyboard-response", "trial_index": 139, "time_elapsed": 325805, "internal_node_id": "0.0-6.0-44.0"}}, {"uniqueid": "w57180820:a19506073", "current_trial": 140, "dateTime": 1664557871836, "trialdata": {"rt": 851, "stimulus": "<p id='stroop-text' class='stroop-blue'>BRIDGE</p>", "response": "b", "stimulus-type": "unrelated", "word": "BRIDGE", "color": "blue", "correct_response": "b", "trial_id": "stroop-trial-1-unrelated-2", "trial_type": "html-keyboard-response", "trial_index": 140, "time_elapsed": 327165, "internal_node_id": "0.0-6.0-45.0"}}, {"uniqueid": "w57180820:a19506073", "current_trial": 141, "dateTime": 1664557873252, "trialdata": {"rt": 913, "stimulus": "<p id='stroop-text' class='stroop-blue'>GREEN</p>", "response": "b", "stimulus-type": "incongruent", "word": "green", "color": "blue", "correct_response": "b", "trial_id": "stroop-trial-1-incongruent-9", "trial_type": "html-keyboard-response", "trial_index": 141, "time_elapsed": 328581, "internal_node_id": "0.0-6.0-46.0"}}, {"uniqueid": "w57180820:a19506073", "current_trial": 142, "dateTime": 1664557874860, "trialdata": {"rt": 1099, "stimulus": "<p id='stroop-text' class='stroop-red'>BOAT</p>", "response": "r", "stimulus-type": "unrelated", "word": "BOAT", "color": "red", "correct_response": "r", "trial_id": "stroop-trial-1-unrelated-1", "trial_type": "html-keyboard-response", "trial_index": 142, "time_elapsed": 330189, "internal_node_id": "0.0-6.0-47.0"}}, {"uniqueid": "w57180820:a19506073", "current_trial": 143, "dateTime": 1664557876220, "trialdata": {"rt": 846, "stimulus": "<p id='stroop-text' class='stroop-green'>YELLOW</p>", "response": "y", "stimulus-type": "incongruent", "word": "yellow", "color": "green", "correct_response": "g", "trial_id": "stroop-trial-1-incongruent-17", "trial_type": "html-keyboard-response", "trial_index": 143, "time_elapsed": 331549, "internal_node_id": "0.0-6.0-48.0"}}, {"uniqueid": "w57180820:a19506073", "current_trial": 144, "dateTime": 1664557877388, "trialdata": {"rt": 658, "stimulus": "<p id='stroop-text' class='stroop-yellow'>YELLOW</p>", "response": "y", "stimulus-type": "congruent", "word": "yellow", "color": "yellow", "correct_response": "y", "trial_id": "stroop-trial-1-congruent-20", "trial_type": "html-keyboard-response", "trial_index": 144, "time_elapsed": 332717, "internal_node_id": "0.0-6.0-49.0"}}, {"uniqueid": "w57180820:a19506073", "current_trial": 145, "dateTime": 1664557879324, "trialdata": {"rt": 1427, "stimulus": "<p id='stroop-text' class='stroop-blue'>YELLOW</p>", "response": "b", "stimulus-type": "incongruent", "word": "yellow", "color": "blue", "correct_response": "b", "trial_id": "stroop-trial-1-incongruent-2", "trial_type": "html-keyboard-response", "trial_index": 145, "time_elapsed": 334653, "internal_node_id": "0.0-6.0-50.0"}}, {"uniqueid": "w57180820:a19506073", "current_trial": 146, "dateTime": 1664557880668, "trialdata": {"rt": 838, "stimulus": "<p id='stroop-text' class='stroop-yellow'>GREEN</p>", "response": "y", "stimulus-type": "incongruent", "word": "green", "color": "yellow", "correct_response": "y", "trial_id": "stroop-trial-1-incongruent-5", "trial_type": "html-keyboard-response", "trial_index": 146, "time_elapsed": 335997, "internal_node_id": "0.0-6.0-51.0"}}, {"uniqueid": "w57180820:a19506073", "current_trial": 147, "dateTime": 1664557882012, "trialdata": {"rt": 829, "stimulus": "<p id='stroop-text' class='stroop-green'>YELLOW</p>", "response": "g", "stimulus-type": "incongruent", "word": "yellow", "color": "green", "correct_response": "g", "trial_id": "stroop-trial-1-incongruent-25", "trial_type": "html-keyboard-response", "trial_index": 147, "time_elapsed": 337341, "internal_node_id": "0.0-6.0-52.0"}}, {"uniqueid": "w57180820:a19506073", "current_trial": 148, "dateTime": 1664557883700, "trialdata": {"rt": 1174, "stimulus": "<p id='stroop-text' class='stroop-red'>RED</p>", "response": "r", "stimulus-type": "congruent", "word": "red", "color": "red", "correct_response": "r", "trial_id": "stroop-trial-1-congruent-2", "trial_type": "html-keyboard-response", "trial_index": 148, "time_elapsed": 339029, "internal_node_id": "0.0-6.0-53.0"}}, {"uniqueid": "w57180820:a19506073", "current_trial": 149, "dateTime": 1664557885244, "trialdata": {"rt": 1042, "stimulus": "<p id='stroop-text' class='stroop-red'>CHAIR</p>", "response": "r", "stimulus-type": "unrelated", "word": "CHAIR", "color": "red", "correct_response": "r", "trial_id": "stroop-trial-1-unrelated-11", "trial_type": "html-keyboard-response", "trial_index": 149, "time_elapsed": 340573, "internal_node_id": "0.0-6.0-54.0"}}, {"uniqueid": "w57180820:a19506073", "current_trial": 150, "dateTime": 1664557886604, "trialdata": {"rt": 856, "stimulus": "<p id='stroop-text' class='stroop-yellow'>DOG</p>", "response": "y", "stimulus-type": "unrelated", "word": "DOG", "color": "yellow", "correct_response": "y", "trial_id": "stroop-trial-1-unrelated-8", "trial_type": "html-keyboard-response", "trial_index": 150, "time_elapsed": 341933, "internal_node_id": "0.0-6.0-55.0"}}, {"uniqueid": "w57180820:a19506073", "current_trial": 151, "dateTime": 1664557888693, "trialdata": {"rt": 1571, "stimulus": "<p id='stroop-text' class='stroop-green'>RED</p>", "response": "g", "stimulus-type": "incongruent", "word": "red", "color": "green", "correct_response": "g", "trial_id": "stroop-trial-1-incongruent-24", "trial_type": "html-keyboard-response", "trial_index": 151, "time_elapsed": 344021, "internal_node_id": "0.0-6.0-56.0"}}, {"uniqueid": "w57180820:a19506073", "current_trial": 152, "dateTime": 1664557889956, "trialdata": {"rt": 760, "stimulus": "<p id='stroop-text' class='stroop-green'>DOG</p>", "response": "g", "stimulus-type": "unrelated", "word": "DOG", "color": "green", "correct_response": "g", "trial_id": "stroop-trial-1-unrelated-14", "trial_type": "html-keyboard-response", "trial_index": 152, "time_elapsed": 345285, "internal_node_id": "0.0-6.0-57.0"}}, {"uniqueid": "w57180820:a19506073", "current_trial": 153, "dateTime": 1664557891188, "trialdata": {"rt": 718, "stimulus": "<p id='stroop-text' class='stroop-blue'>YELLOW</p>", "response": "b", "stimulus-type": "incongruent", "word": "yellow", "color": "blue", "correct_response": "b", "trial_id": "stroop-trial-1-incongruent-23", "trial_type": "html-keyboard-response", "trial_index": 153, "time_elapsed": 346517, "internal_node_id": "0.0-6.0-58.0"}}, {"uniqueid": "w57180820:a19506073", "current_trial": 154, "dateTime": 1664557892404, "trialdata": {"rt": 703, "stimulus": "<p id='stroop-text' class='stroop-yellow'>YELLOW</p>", "response": "y", "stimulus-type": "congruent", "word": "yellow", "color": "yellow", "correct_response": "y", "trial_id": "stroop-trial-1-congruent-16", "trial_type": "html-keyboard-response", "trial_index": 154, "time_elapsed": 347733, "internal_node_id": "0.0-6.0-59.0"}}, {"uniqueid": "w57180820:a19506073", "current_trial": 155, "dateTime": 1664557893612, "trialdata": {"rt": 696, "stimulus": "<p id='stroop-text' class='stroop-green'>GREEN</p>", "response": "g", "stimulus-type": "congruent", "word": "green", "color": "green", "correct_response": "g", "trial_id": "stroop-trial-1-congruent-14", "trial_type": "html-keyboard-response", "trial_index": 155, "time_elapsed": 348941, "internal_node_id": "0.0-6.0-60.0"}}, {"uniqueid": "w57180820:a19506073", "current_trial": 156, "dateTime": 1664557894860, "trialdata": {"rt": 731, "stimulus": "<p id='stroop-text' class='stroop-red'>RED</p>", "response": "r", "stimulus-type": "congruent", "word": "red", "color": "red", "correct_response": "r", "trial_id": "stroop-trial-1-congruent-26", "trial_type": "html-keyboard-response", "trial_index": 156, "time_elapsed": 350189, "internal_node_id": "0.0-6.0-61.0"}}, {"uniqueid": "w57180820:a19506073", "current_trial": 157, "dateTime": 1664557896364, "trialdata": {"rt": 986, "stimulus": "<p id='stroop-text' class='stroop-blue'>YELLOW</p>", "response": "b", "stimulus-type": "incongruent", "word": "yellow", "color": "blue", "correct_response": "b", "trial_id": "stroop-trial-1-incongruent-19", "trial_type": "html-keyboard-response", "trial_index": 157, "time_elapsed": 351693, "internal_node_id": "0.0-6.0-62.0"}}, {"uniqueid": "w57180820:a19506073", "current_trial": 158, "dateTime": 1664557897764, "trialdata": {"rt": 883, "stimulus": "<p id='stroop-text' class='stroop-green'>SHIP</p>", "response": "g", "stimulus-type": "unrelated", "word": "SHIP", "color": "green", "correct_response": "g", "trial_id": "stroop-trial-1-unrelated-9", "trial_type": "html-keyboard-response", "trial_index": 158, "time_elapsed": 353093, "internal_node_id": "0.0-6.0-63.0"}}, {"uniqueid": "w57180820:a19506073", "current_trial": 159, "dateTime": 1664557899092, "trialdata": {"rt": 825, "stimulus": "<p id='stroop-text' class='stroop-blue'>GREEN</p>", "response": "b", "stimulus-type": "incongruent", "word": "green", "color": "blue", "correct_response": "b", "trial_id": "stroop-trial-1-incongruent-13", "trial_type": "html-keyboard-response", "trial_index": 159, "time_elapsed": 354421, "internal_node_id": "0.0-6.0-64.0"}}, {"uniqueid": "w57180820:a19506073", "current_trial": 160, "dateTime": 1664557900396, "trialdata": {"rt": 801, "stimulus": "<p id='stroop-text' class='stroop-red'>RED</p>", "response": "r", "stimulus-type": "congruent", "word": "red", "color": "red", "correct_response": "r", "trial_id": "stroop-trial-1-congruent-13", "trial_type": "html-keyboard-response", "trial_index": 160, "time_elapsed": 355725, "internal_node_id": "0.0-6.0-65.0"}}, {"uniqueid": "w57180820:a19506073", "current_trial": 161, "dateTime": 1664557901644, "trialdata": {"rt": 736, "stimulus": "<p id='stroop-text' class='stroop-yellow'>BOTTLE</p>", "response": "y", "stimulus-type": "unrelated", "word": "BOTTLE", "color": "yellow", "correct_response": "y", "trial_id": "stroop-trial-1-unrelated-6", "trial_type": "html-keyboard-response", "trial_index": 161, "time_elapsed": 356973, "internal_node_id": "0.0-6.0-66.0"}}, {"uniqueid": "w57180820:a19506073", "current_trial": 162, "dateTime": 1664557902956, "trialdata": {"rt": 801, "stimulus": "<p id='stroop-text' class='stroop-green'>GREEN</p>", "response": "g", "stimulus-type": "congruent", "word": "green", "color": "green", "correct_response": "g", "trial_id": "stroop-trial-1-congruent-19", "trial_type": "html-keyboard-response", "trial_index": 162, "time_elapsed": 358285, "internal_node_id": "0.0-6.0-67.0"}}, {"uniqueid": "w57180820:a19506073", "current_trial": 163, "dateTime": 1664557904332, "trialdata": {"rt": 868, "stimulus": "<p id='stroop-text' class='stroop-red'>BOAT</p>", "response": "r", "stimulus-type": "unrelated", "word": "BOAT", "color": "red", "correct_response": "r", "trial_id": "stroop-trial-1-unrelated-5", "trial_type": "html-keyboard-response", "trial_index": 163, "time_elapsed": 359661, "internal_node_id": "0.0-6.0-68.0"}}, {"uniqueid": "w57180820:a19506073", "current_trial": 164, "dateTime": 1664557905660, "trialdata": {"rt": 821, "stimulus": "<p id='stroop-text' class='stroop-green'>GREEN</p>", "response": "g", "stimulus-type": "congruent", "word": "green", "color": "green", "correct_response": "g", "trial_id": "stroop-trial-1-congruent-9", "trial_type": "html-keyboard-response", "trial_index": 164, "time_elapsed": 360989, "internal_node_id": "0.0-6.0-69.0"}}, {"uniqueid": "w57180820:a19506073", "current_trial": 165, "dateTime": 1664557907068, "trialdata": {"rt": 901, "stimulus": "<p id='stroop-text' class='stroop-blue'>SHIP</p>", "response": "b", "stimulus-type": "unrelated", "word": "SHIP", "color": "blue", "correct_response": "b", "trial_id": "stroop-trial-1-unrelated-18", "trial_type": "html-keyboard-response", "trial_index": 165, "time_elapsed": 362397, "internal_node_id": "0.0-6.0-70.0"}}, {"uniqueid": "w57180820:a19506073", "current_trial": 166, "dateTime": 1664557908140, "trialdata": {"rt": 569, "stimulus": "<p id='stroop-text' class='stroop-red'>RED</p>", "response": "r", "stimulus-type": "congruent", "word": "red", "color": "red", "correct_response": "r", "trial_id": "stroop-trial-1-congruent-4", "trial_type": "html-keyboard-response", "trial_index": 166, "time_elapsed": 363469, "internal_node_id": "0.0-6.0-71.0"}}, {"uniqueid": "w57180820:a19506073", "current_trial": 167, "dateTime": 1664557909532, "trialdata": {"rt": 877, "stimulus": "<p id='stroop-text' class='stroop-red'>BOTTLE</p>", "response": "r", "stimulus-type": "unrelated", "word": "BOTTLE", "color": "red", "correct_response": "r", "trial_id": "stroop-trial-1-unrelated-17", "trial_type": "html-keyboard-response", "trial_index": 167, "time_elapsed": 364861, "internal_node_id": "0.0-6.0-72.0"}}, {"uniqueid": "w57180820:a19506073", "current_trial": 168, "dateTime": 1664557910717, "trialdata": {"rt": 671, "stimulus": "<p id='stroop-text' class='stroop-yellow'>BLUE</p>", "response": "y", "stimulus-type": "incongruent", "word": "blue", "color": "yellow", "correct_response": "y", "trial_id": "stroop-trial-1-incongruent-20", "trial_type": "html-keyboard-response", "trial_index": 168, "time_elapsed": 366045, "internal_node_id": "0.0-6.0-73.0"}}, {"uniqueid": "w57180820:a19506073", "current_trial": 169, "dateTime": 1664557912156, "trialdata": {"rt": 931, "stimulus": "<p id='stroop-text' class='stroop-blue'>WINDOW</p>", "response": "b", "stimulus-type": "unrelated", "word": "WINDOW", "color": "blue", "correct_response": "b", "trial_id": "stroop-trial-1-unrelated-30", "trial_type": "html-keyboard-response", "trial_index": 169, "time_elapsed": 367485, "internal_node_id": "0.0-6.0-74.0"}}, {"uniqueid": "w57180820:a19506073", "current_trial": 170, "dateTime": 1664557913332, "trialdata": {"rt": 672, "stimulus": "<p id='stroop-text' class='stroop-blue'>BLUE</p>", "response": "b", "stimulus-type": "congruent", "word": "blue", "color": "blue", "correct_response": "b", "trial_id": "stroop-trial-1-congruent-25", "trial_type": "html-keyboard-response", "trial_index": 170, "time_elapsed": 368661, "internal_node_id": "0.0-6.0-75.0"}}, {"uniqueid": "w57180820:a19506073", "current_trial": 171, "dateTime": 1664557914532, "trialdata": {"rt": 690, "stimulus": "<p id='stroop-text' class='stroop-red'>GREEN</p>", "response": "r", "stimulus-type": "incongruent", "word": "green", "color": "red", "correct_response": "r", "trial_id": "stroop-trial-1-incongruent-18", "trial_type": "html-keyboard-response", "trial_index": 171, "time_elapsed": 369861, "internal_node_id": "0.0-6.0-76.0"}}, {"uniqueid": "w57180820:a19506073", "current_trial": 172, "dateTime": 1664557915796, "trialdata": {"rt": 757, "stimulus": "<p id='stroop-text' class='stroop-green'>FORK</p>", "response": "g", "stimulus-type": "unrelated", "word": "FORK", "color": "green", "correct_response": "g", "trial_id": "stroop-trial-1-unrelated-4", "trial_type": "html-keyboard-response", "trial_index": 172, "time_elapsed": 371125, "internal_node_id": "0.0-6.0-77.0"}}, {"uniqueid": "w57180820:a19506073", "current_trial": 173, "dateTime": 1664557916916, "trialdata": {"rt": 604, "stimulus": "<p id='stroop-text' class='stroop-red'>RED</p>", "response": "r", "stimulus-type": "congruent", "word": "red", "color": "red", "correct_response": "r", "trial_id": "stroop-trial-1-congruent-1", "trial_type": "html-keyboard-response", "trial_index": 173, "time_elapsed": 372245, "internal_node_id": "0.0-6.0-78.0"}}, {"uniqueid": "w57180820:a19506073", "current_trial": 174, "dateTime": 1664557918509, "trialdata": {"rt": 1082, "stimulus": "<p id='stroop-text' class='stroop-green'>BLUE</p>", "response": "g", "stimulus-type": "incongruent", "word": "blue", "color": "green", "correct_response": "g", "trial_id": "stroop-trial-1-incongruent-22", "trial_type": "html-keyboard-response", "trial_index": 174, "time_elapsed": 373838, "internal_node_id": "0.0-6.0-79.0"}}, {"uniqueid": "w57180820:a19506073", "current_trial": 175, "dateTime": 1664557919844, "trialdata": {"rt": 823, "stimulus": "<p id='stroop-text' class='stroop-red'>RED</p>", "response": "r", "stimulus-type": "congruent", "word": "red", "color": "red", "correct_response": "r", "trial_id": "stroop-trial-1-congruent-17", "trial_type": "html-keyboard-response", "trial_index": 175, "time_elapsed": 375173, "internal_node_id": "0.0-6.0-80.0"}}, {"uniqueid": "w57180820:a19506073", "current_trial": 176, "dateTime": 1664557920940, "trialdata": {"rt": 582, "stimulus": "<p id='stroop-text' class='stroop-green'>YELLOW</p>", "response": "y", "stimulus-type": "incongruent", "word": "yellow", "color": "green", "correct_response": "g", "trial_id": "stroop-trial-1-incongruent-12", "trial_type": "html-keyboard-response", "trial_index": 176, "time_elapsed": 376269, "internal_node_id": "0.0-6.0-81.0"}}, {"uniqueid": "w57180820:a19506073", "current_trial": 177, "dateTime": 1664557922324, "trialdata": {"rt": 879, "stimulus": "<p id='stroop-text' class='stroop-yellow'>GREEN</p>", "response": "y", "stimulus-type": "incongruent", "word": "green", "color": "yellow", "correct_response": "y", "trial_id": "stroop-trial-1-incongruent-6", "trial_type": "html-keyboard-response", "trial_index": 177, "time_elapsed": 377653, "internal_node_id": "0.0-6.0-82.0"}}, {"uniqueid": "w57180820:a19506073", "current_trial": 178, "dateTime": 1664557923532, "trialdata": {"rt": 696, "stimulus": "<p id='stroop-text' class='stroop-green'>YELLOW</p>", "response": "g", "stimulus-type": "incongruent", "word": "yellow", "color": "green", "correct_response": "g", "trial_id": "stroop-trial-1-incongruent-27", "trial_type": "html-keyboard-response", "trial_index": 178, "time_elapsed": 378861, "internal_node_id": "0.0-6.0-83.0"}}, {"uniqueid": "w57180820:a19506073", "current_trial": 179, "dateTime": 1664557924780, "trialdata": {"rt": 734, "stimulus": "<p id='stroop-text' class='stroop-red'>BLUE</p>", "response": "r", "stimulus-type": "incongruent", "word": "blue", "color": "red", "correct_response": "r", "trial_id": "stroop-trial-1-incongruent-30", "trial_type": "html-keyboard-response", "trial_index": 179, "time_elapsed": 380109, "internal_node_id": "0.0-6.0-84.0"}}, {"uniqueid": "w57180820:a19506073", "current_trial": 180, "dateTime": 1664557925804, "trialdata": {"rt": 515, "stimulus": "<p id='stroop-text' class='stroop-red'>RED</p>", "response": "r", "stimulus-type": "congruent", "word": "red", "color": "red", "correct_response": "r", "trial_id": "stroop-trial-1-congruent-18", "trial_type": "html-keyboard-response", "trial_index": 180, "time_elapsed": 381133, "internal_node_id": "0.0-6.0-85.0"}}, {"uniqueid": "w57180820:a19506073", "current_trial": 181, "dateTime": 1664557926692, "trialdata": {"rt": 378, "stimulus": "<p id='stroop-text' class='stroop-red'>RED</p>", "response": "r", "stimulus-type": "congruent", "word": "red", "color": "red", "correct_response": "r", "trial_id": "stroop-trial-1-congruent-27", "trial_type": "html-keyboard-response", "trial_index": 181, "time_elapsed": 382021, "internal_node_id": "0.0-6.0-86.0"}}, {"uniqueid": "w57180820:a19506073", "current_trial": 182, "dateTime": 1664557927668, "trialdata": {"rt": 458, "stimulus": "<p id='stroop-text' class='stroop-red'>SHIP</p>", "response": "r", "stimulus-type": "unrelated", "word": "SHIP", "color": "red", "correct_response": "r", "trial_id": "stroop-trial-1-unrelated-27", "trial_type": "html-keyboard-response", "trial_index": 182, "time_elapsed": 382997, "internal_node_id": "0.0-6.0-87.0"}}, {"uniqueid": "w57180820:a19506073", "current_trial": 183, "dateTime": 1664557928772, "trialdata": {"rt": 592, "stimulus": "<p id='stroop-text' class='stroop-blue'>SHIP</p>", "response": "b", "stimulus-type": "unrelated", "word": "SHIP", "color": "blue", "correct_response": "b", "trial_id": "stroop-trial-1-unrelated-29", "trial_type": "html-keyboard-response", "trial_index": 183, "time_elapsed": 384101, "internal_node_id": "0.0-6.0-88.0"}}, {"uniqueid": "w57180820:a19506073", "current_trial": 184, "dateTime": 1664557930612, "trialdata": {"rt": 1332, "stimulus": "<p id='stroop-text' class='stroop-red'>BLUE</p>", "response": "r", "stimulus-type": "incongruent", "word": "blue", "color": "red", "correct_response": "r", "trial_id": "stroop-trial-1-incongruent-8", "trial_type": "html-keyboard-response", "trial_index": 184, "time_elapsed": 385941, "internal_node_id": "0.0-6.0-89.0"}}, {"uniqueid": "w57180820:a19506073", "current_trial": 185, "dateTime": 1664557938420, "trialdata": {"rt": 7300, "stimulus": "  <h1> End of block! </h1>\n\n  You have reached the end of the block 2/5. If you need a short break, feel free to take one now before moving on.\n\n  <br><br>\n  In the next block, you will complete another 90 rounds of this game.\n\n  <br><br>\n  <div style='text-align: center;'>Press <code>space</code> to begin.</div>\n  <br><br>\n<div style='text-align: center;'>(If the experiment doesn't continue, try clicking on the text and then pressing <code>space</code>.)</div>", "response": " ", "trial_id": "stroop_1_ready_3", "trial_type": "html-keyboard-response", "trial_index": 185, "time_elapsed": 393749, "internal_node_id": "0.0-7.0"}}, {"uniqueid": "w57180820:a19506073", "current_trial": 186, "dateTime": 1664557939492, "trialdata": {"rt": 1070, "stimulus": "<p id='stroop-text' class='stroop-green'>RED</p>", "response": "g", "stimulus-type": "incongruent", "word": "red", "color": "green", "correct_response": "g", "trial_id": "stroop-trial-1-incongruent-20", "trial_type": "html-keyboard-response", "trial_index": 186, "time_elapsed": 394821, "internal_node_id": "0.0-8.0-0.0"}}, {"uniqueid": "w57180820:a19506073", "current_trial": 187, "dateTime": 1664557940596, "trialdata": {"rt": 598, "stimulus": "<p id='stroop-text' class='stroop-blue'>BLUE</p>", "response": "b", "stimulus-type": "congruent", "word": "blue", "color": "blue", "correct_response": "b", "trial_id": "stroop-trial-1-congruent-12", "trial_type": "html-keyboard-response", "trial_index": 187, "time_elapsed": 395925, "internal_node_id": "0.0-8.0-1.0"}}, {"uniqueid": "w57180820:a19506073", "current_trial": 188, "dateTime": 1664557942436, "trialdata": {"rt": 1337, "stimulus": "<p id='stroop-text' class='stroop-green'>YELLOW</p>", "response": "g", "stimulus-type": "incongruent", "word": "yellow", "color": "green", "correct_response": "g", "trial_id": "stroop-trial-1-incongruent-23", "trial_type": "html-keyboard-response", "trial_index": 188, "time_elapsed": 397765, "internal_node_id": "0.0-8.0-2.0"}}, {"uniqueid": "w57180820:a19506073", "current_trial": 189, "dateTime": 1664557943516, "trialdata": {"rt": 568, "stimulus": "<p id='stroop-text' class='stroop-green'>RED</p>", "response": "g", "stimulus-type": "incongruent", "word": "red", "color": "green", "correct_response": "g", "trial_id": "stroop-trial-1-incongruent-30", "trial_type": "html-keyboard-response", "trial_index": 189, "time_elapsed": 398845, "internal_node_id": "0.0-8.0-3.0"}}, {"uniqueid": "w57180820:a19506073", "current_trial": 190, "dateTime": 1664557944524, "trialdata": {"rt": 506, "stimulus": "<p id='stroop-text' class='stroop-blue'>BLUE</p>", "response": "b", "stimulus-type": "congruent", "word": "blue", "color": "blue", "correct_response": "b", "trial_id": "stroop-trial-1-congruent-20", "trial_type": "html-keyboard-response", "trial_index": 190, "time_elapsed": 399853, "internal_node_id": "0.0-8.0-4.0"}}, {"uniqueid": "w57180820:a19506073", "current_trial": 191, "dateTime": 1664557946228, "trialdata": {"rt": 1189, "stimulus": "<p id='stroop-text' class='stroop-red'>BRIDGE</p>", "response": "r", "stimulus-type": "unrelated", "word": "BRIDGE", "color": "red", "correct_response": "r", "trial_id": "stroop-trial-1-unrelated-8", "trial_type": "html-keyboard-response", "trial_index": 191, "time_elapsed": 401557, "internal_node_id": "0.0-8.0-5.0"}}, {"uniqueid": "w57180820:a19506073", "current_trial": 192, "dateTime": 1664557947348, "trialdata": {"rt": 603, "stimulus": "<p id='stroop-text' class='stroop-green'>BLUE</p>", "response": "g", "stimulus-type": "incongruent", "word": "blue", "color": "green", "correct_response": "g", "trial_id": "stroop-trial-1-incongruent-14", "trial_type": "html-keyboard-response", "trial_index": 192, "time_elapsed": 402677, "internal_node_id": "0.0-8.0-6.0"}}, {"uniqueid": "w57180820:a19506073", "current_trial": 193, "dateTime": 1664557948932, "trialdata": {"rt": 1069, "stimulus": "<p id='stroop-text' class='stroop-green'>YELLOW</p>", "response": "g", "stimulus-type": "incongruent", "word": "yellow", "color": "green", "correct_response": "g", "trial_id": "stroop-trial-1-incongruent-16", "trial_type": "html-keyboard-response", "trial_index": 193, "time_elapsed": 404261, "internal_node_id": "0.0-8.0-7.0"}}, {"uniqueid": "w57180820:a19506073", "current_trial": 194, "dateTime": 1664557950284, "trialdata": {"rt": 838, "stimulus": "<p id='stroop-text' class='stroop-red'>GREEN</p>", "response": "r", "stimulus-type": "incongruent", "word": "green", "color": "red", "correct_response": "r", "trial_id": "stroop-trial-1-incongruent-1", "trial_type": "html-keyboard-response", "trial_index": 194, "time_elapsed": 405613, "internal_node_id": "0.0-8.0-8.0"}}, {"uniqueid": "w57180820:a19506073", "current_trial": 195, "dateTime": 1664557951300, "trialdata": {"rt": 499, "stimulus": "<p id='stroop-text' class='stroop-blue'>BLUE</p>", "response": "b", "stimulus-type": "congruent", "word": "blue", "color": "blue", "correct_response": "b", "trial_id": "stroop-trial-1-congruent-29", "trial_type": "html-keyboard-response", "trial_index": 195, "time_elapsed": 406629, "internal_node_id": "0.0-8.0-9.0"}}, {"uniqueid": "w57180820:a19506073", "current_trial": 196, "dateTime": 1664557952325, "trialdata": {"rt": 515, "stimulus": "<p id='stroop-text' class='stroop-yellow'>YELLOW</p>", "response": "y", "stimulus-type": "congruent", "word": "yellow", "color": "yellow", "correct_response": "y", "trial_id": "stroop-trial-1-congruent-10", "trial_type": "html-keyboard-response", "trial_index": 196, "time_elapsed": 407653, "internal_node_id": "0.0-8.0-10.0"}}, {"uniqueid": "w57180820:a19506073", "current_trial": 197, "dateTime": 1664557954308, "trialdata": {"rt": 1475, "stimulus": "<p id='stroop-text' class='stroop-blue'>RED</p>", "response": "b", "stimulus-type": "incongruent", "word": "red", "color": "blue", "correct_response": "b", "trial_id": "stroop-trial-1-incongruent-17", "trial_type": "html-keyboard-response", "trial_index": 197, "time_elapsed": 409637, "internal_node_id": "0.0-8.0-11.0"}}, {"uniqueid": "w57180820:a19506073", "current_trial": 198, "dateTime": 1664557955404, "trialdata": {"rt": 578, "stimulus": "<p id='stroop-text' class='stroop-blue'>BRAIN</p>", "response": "b", "stimulus-type": "unrelated", "word": "BRAIN", "color": "blue", "correct_response": "b", "trial_id": "stroop-trial-1-unrelated-29", "trial_type": "html-keyboard-response", "trial_index": 198, "time_elapsed": 410733, "internal_node_id": "0.0-8.0-12.0"}}, {"uniqueid": "w57180820:a19506073", "current_trial": 199, "dateTime": 1664557956740, "trialdata": {"rt": 828, "stimulus": "<p id='stroop-text' class='stroop-yellow'>BOAT</p>", "response": "y", "stimulus-type": "unrelated", "word": "BOAT", "color": "yellow", "correct_response": "y", "trial_id": "stroop-trial-1-unrelated-4", "trial_type": "html-keyboard-response", "trial_index": 199, "time_elapsed": 412069, "internal_node_id": "0.0-8.0-13.0"}}, {"uniqueid": "w57180820:a19506073", "current_trial": 200, "dateTime": 1664557957628, "trialdata": {"rt": 373, "stimulus": "<p id='stroop-text' class='stroop-yellow'>BLUE</p>", "response": "y", "stimulus-type": "incongruent", "word": "blue", "color": "yellow", "correct_response": "y", "trial_id": "stroop-trial-1-incongruent-29", "trial_type": "html-keyboard-response", "trial_index": 200, "time_elapsed": 412957, "internal_node_id": "0.0-8.0-14.0"}}, {"uniqueid": "w57180820:a19506073", "current_trial": 201, "dateTime": 1664557959620, "trialdata": {"rt": 1484, "stimulus": "<p id='stroop-text' class='stroop-red'>YELLOW</p>", "response": "r", "stimulus-type": "incongruent", "word": "yellow", "color": "red", "correct_response": "r", "trial_id": "stroop-trial-1-incongruent-25", "trial_type": "html-keyboard-response", "trial_index": 201, "time_elapsed": 414949, "internal_node_id": "0.0-8.0-15.0"}}, {"uniqueid": "w57180820:a19506073", "current_trial": 202, "dateTime": 1664557960764, "trialdata": {"rt": 633, "stimulus": "<p id='stroop-text' class='stroop-blue'>BLUE</p>", "response": "b", "stimulus-type": "congruent", "word": "blue", "color": "blue", "correct_response": "b", "trial_id": "stroop-trial-1-congruent-30", "trial_type": "html-keyboard-response", "trial_index": 202, "time_elapsed": 416093, "internal_node_id": "0.0-8.0-16.0"}}, {"uniqueid": "w57180820:a19506073", "current_trial": 203, "dateTime": 1664557962388, "trialdata": {"rt": 1122, "stimulus": "<p id='stroop-text' class='stroop-red'>RED</p>", "response": "r", "stimulus-type": "congruent", "word": "red", "color": "red", "correct_response": "r", "trial_id": "stroop-trial-1-congruent-6", "trial_type": "html-keyboard-response", "trial_index": 203, "time_elapsed": 417717, "internal_node_id": "0.0-8.0-17.0"}}, {"uniqueid": "w57180820:a19506073", "current_trial": 204, "dateTime": 1664557964404, "trialdata": {"rt": 1509, "stimulus": "<p id='stroop-text' class='stroop-green'>YELLOW</p>", "response": "g", "stimulus-type": "incongruent", "word": "yellow", "color": "green", "correct_response": "g", "trial_id": "stroop-trial-1-incongruent-3", "trial_type": "html-keyboard-response", "trial_index": 204, "time_elapsed": 419733, "internal_node_id": "0.0-8.0-18.0"}}, {"uniqueid": "w57180820:a19506073", "current_trial": 205, "dateTime": 1664557965884, "trialdata": {"rt": 977, "stimulus": "<p id='stroop-text' class='stroop-red'>YELLOW</p>", "response": "r", "stimulus-type": "incongruent", "word": "yellow", "color": "red", "correct_response": "r", "trial_id": "stroop-trial-1-incongruent-9", "trial_type": "html-keyboard-response", "trial_index": 205, "time_elapsed": 421213, "internal_node_id": "0.0-8.0-19.0"}}, {"uniqueid": "w57180820:a19506073", "current_trial": 206, "dateTime": 1664557967100, "trialdata": {"rt": 707, "stimulus": "<p id='stroop-text' class='stroop-yellow'>YELLOW</p>", "response": "y", "stimulus-type": "congruent", "word": "yellow", "color": "yellow", "correct_response": "y", "trial_id": "stroop-trial-1-congruent-18", "trial_type": "html-keyboard-response", "trial_index": 206, "time_elapsed": 422429, "internal_node_id": "0.0-8.0-20.0"}}, {"uniqueid": "w57180820:a19506073", "current_trial": 207, "dateTime": 1664557968316, "trialdata": {"rt": 711, "stimulus": "<p id='stroop-text' class='stroop-green'>GREEN</p>", "response": "g", "stimulus-type": "congruent", "word": "green", "color": "green", "correct_response": "g", "trial_id": "stroop-trial-1-congruent-8", "trial_type": "html-keyboard-response", "trial_index": 207, "time_elapsed": 423645, "internal_node_id": "0.0-8.0-21.0"}}, {"uniqueid": "w57180820:a19506073", "current_trial": 208, "dateTime": 1664557969349, "trialdata": {"rt": 528, "stimulus": "<p id='stroop-text' class='stroop-yellow'>YELLOW</p>", "response": "y", "stimulus-type": "congruent", "word": "yellow", "color": "yellow", "correct_response": "y", "trial_id": "stroop-trial-1-congruent-3", "trial_type": "html-keyboard-response", "trial_index": 208, "time_elapsed": 424677, "internal_node_id": "0.0-8.0-22.0"}}, {"uniqueid": "w57180820:a19506073", "current_trial": 209, "dateTime": 1664557970460, "trialdata": {"rt": 600, "stimulus": "<p id='stroop-text' class='stroop-green'>GREEN</p>", "response": "g", "stimulus-type": "congruent", "word": "green", "color": "green", "correct_response": "g", "trial_id": "stroop-trial-1-congruent-15", "trial_type": "html-keyboard-response", "trial_index": 209, "time_elapsed": 425789, "internal_node_id": "0.0-8.0-23.0"}}, {"uniqueid": "w57180820:a19506073", "current_trial": 210, "dateTime": 1664557971428, "trialdata": {"rt": 465, "stimulus": "<p id='stroop-text' class='stroop-red'>RED</p>", "response": "r", "stimulus-type": "congruent", "word": "red", "color": "red", "correct_response": "r", "trial_id": "stroop-trial-1-congruent-4", "trial_type": "html-keyboard-response", "trial_index": 210, "time_elapsed": 426757, "internal_node_id": "0.0-8.0-24.0"}}, {"uniqueid": "w57180820:a19506073", "current_trial": 211, "dateTime": 1664557972324, "trialdata": {"rt": 389, "stimulus": "<p id='stroop-text' class='stroop-red'>RED</p>", "response": "r", "stimulus-type": "congruent", "word": "red", "color": "red", "correct_response": "r", "trial_id": "stroop-trial-1-congruent-21", "trial_type": "html-keyboard-response", "trial_index": 211, "time_elapsed": 427653, "internal_node_id": "0.0-8.0-25.0"}}, {"uniqueid": "w57180820:a19506073", "current_trial": 212, "dateTime": 1664557973612, "trialdata": {"rt": 783, "stimulus": "<p id='stroop-text' class='stroop-green'>BRAIN</p>", "response": "g", "stimulus-type": "unrelated", "word": "BRAIN", "color": "green", "correct_response": "g", "trial_id": "stroop-trial-1-unrelated-27", "trial_type": "html-keyboard-response", "trial_index": 212, "time_elapsed": 428941, "internal_node_id": "0.0-8.0-26.0"}}, {"uniqueid": "w57180820:a19506073", "current_trial": 213, "dateTime": 1664557974900, "trialdata": {"rt": 777, "stimulus": "<p id='stroop-text' class='stroop-blue'>WINDOW</p>", "response": "b", "stimulus-type": "unrelated", "word": "WINDOW", "color": "blue", "correct_response": "b", "trial_id": "stroop-trial-1-unrelated-11", "trial_type": "html-keyboard-response", "trial_index": 213, "time_elapsed": 430229, "internal_node_id": "0.0-8.0-27.0"}}, {"uniqueid": "w57180820:a19506073", "current_trial": 214, "dateTime": 1664557976108, "trialdata": {"rt": 692, "stimulus": "<p id='stroop-text' class='stroop-yellow'>YELLOW</p>", "response": "y", "stimulus-type": "congruent", "word": "yellow", "color": "yellow", "correct_response": "y", "trial_id": "stroop-trial-1-congruent-19", "trial_type": "html-keyboard-response", "trial_index": 214, "time_elapsed": 431437, "internal_node_id": "0.0-8.0-28.0"}}, {"uniqueid": "w57180820:a19506073", "current_trial": 215, "dateTime": 1664557977444, "trialdata": {"rt": 831, "stimulus": "<p id='stroop-text' class='stroop-red'>YELLOW</p>", "response": "r", "stimulus-type": "incongruent", "word": "yellow", "color": "red", "correct_response": "r", "trial_id": "stroop-trial-1-incongruent-2", "trial_type": "html-keyboard-response", "trial_index": 215, "time_elapsed": 432773, "internal_node_id": "0.0-8.0-29.0"}}, {"uniqueid": "w57180820:a19506073", "current_trial": 216, "dateTime": 1664557978668, "trialdata": {"rt": 714, "stimulus": "<p id='stroop-text' class='stroop-green'>DOG</p>", "response": "g", "stimulus-type": "unrelated", "word": "DOG", "color": "green", "correct_response": "g", "trial_id": "stroop-trial-1-unrelated-19", "trial_type": "html-keyboard-response", "trial_index": 216, "time_elapsed": 433997, "internal_node_id": "0.0-8.0-30.0"}}, {"uniqueid": "w57180820:a19506073", "current_trial": 217, "dateTime": 1664557979940, "trialdata": {"rt": 755, "stimulus": "<p id='stroop-text' class='stroop-red'>RED</p>", "response": "r", "stimulus-type": "congruent", "word": "red", "color": "red", "correct_response": "r", "trial_id": "stroop-trial-1-congruent-24", "trial_type": "html-keyboard-response", "trial_index": 217, "time_elapsed": 435269, "internal_node_id": "0.0-8.0-31.0"}}, {"uniqueid": "w57180820:a19506073", "current_trial": 218, "dateTime": 1664557980852, "trialdata": {"rt": 408, "stimulus": "<p id='stroop-text' class='stroop-red'>RED</p>", "response": "r", "stimulus-type": "congruent", "word": "red", "color": "red", "correct_response": "r", "trial_id": "stroop-trial-1-congruent-5", "trial_type": "html-keyboard-response", "trial_index": 218, "time_elapsed": 436181, "internal_node_id": "0.0-8.0-32.0"}}, {"uniqueid": "w57180820:a19506073", "current_trial": 219, "dateTime": 1664557982292, "trialdata": {"rt": 924, "stimulus": "<p id='stroop-text' class='stroop-red'>MONKEY</p>", "response": "r", "stimulus-type": "unrelated", "word": "MONKEY", "color": "red", "correct_response": "r", "trial_id": "stroop-trial-1-unrelated-17", "trial_type": "html-keyboard-response", "trial_index": 219, "time_elapsed": 437621, "internal_node_id": "0.0-8.0-33.0"}}, {"uniqueid": "w57180820:a19506073", "current_trial": 220, "dateTime": 1664557983796, "trialdata": {"rt": 992, "stimulus": "<p id='stroop-text' class='stroop-yellow'>BOTTLE</p>", "response": "y", "stimulus-type": "unrelated", "word": "BOTTLE", "color": "yellow", "correct_response": "y", "trial_id": "stroop-trial-1-unrelated-16", "trial_type": "html-keyboard-response", "trial_index": 220, "time_elapsed": 439125, "internal_node_id": "0.0-8.0-34.0"}}, {"uniqueid": "w57180820:a19506073", "current_trial": 221, "dateTime": 1664557985548, "trialdata": {"rt": 1245, "stimulus": "<p id='stroop-text' class='stroop-green'>MONKEY</p>", "response": "g", "stimulus-type": "unrelated", "word": "MONKEY", "color": "green", "correct_response": "g", "trial_id": "stroop-trial-1-unrelated-15", "trial_type": "html-keyboard-response", "trial_index": 221, "time_elapsed": 440877, "internal_node_id": "0.0-8.0-35.0"}}, {"uniqueid": "w57180820:a19506073", "current_trial": 222, "dateTime": 1664557987028, "trialdata": {"rt": 971, "stimulus": "<p id='stroop-text' class='stroop-yellow'>YELLOW</p>", "response": "y", "stimulus-type": "congruent", "word": "yellow", "color": "yellow", "correct_response": "y", "trial_id": "stroop-trial-1-congruent-28", "trial_type": "html