{"condition": 0, "counterbalance": 0, "assignmentId": "a52162928", "workerId": "w55248021", "hitId": "h23734901", "currenttrial": 767, "bonus": 0, "data": [{"uniqueid": "w55248021:a52162928", "current_trial": 0, "dateTime": 1664554860167, "trialdata": {"success": true, "trial_type": "fullscreen", "trial_index": 0, "time_elapsed": 11420, "internal_node_id": "0.0-0.0"}}, {"uniqueid": "w55248021:a52162928", "current_trial": 1, "dateTime": 1664554984994, "trialdata": {"view_history": [{"page_index": 0, "viewing_time": 124818}], "rt": 124820, "trial_id": "exp_instructions_distractor", "trial_type": "instructions", "trial_index": 1, "time_elapsed": 136248, "internal_node_id": "0.0-1.0"}}, {"uniqueid": "w55248021:a52162928", "current_trial": 2, "dateTime": 1664555113550, "trialdata": {"view_history": [{"page_index": 0, "viewing_time": 128552}], "rt": 128553, "trial_id": "color_game_instructions", "trial_type": "instructions", "trial_index": 2, "time_elapsed": 264803, "internal_node_id": "0.0-2.0"}}, {"uniqueid": "w55248021:a52162928", "current_trial": 3, "dateTime": 1664555123279, "trialdata": {"rt": 9725, "stimulus": "<h1> Get ready to start the game! </h1>\n\nThank you for reading the instructions. Get ready start with the first of 5 block(s) of this game.\n<br><br>\nIn this first block, you will complete 90 rounds of this game before moving on.\n<br><br>\nRemember, the better you perform, the bigger your bonus will be!\n<br><br>\n<div style='text-align: center;'>Press <code>space</code> to begin.</div>", "response": " ", "trial_id": "stroop_1_ready_1", "trial_type": "html-keyboard-response", "trial_index": 3, "time_elapsed": 274533, "internal_node_id": "0.0-3.0"}}, {"uniqueid": "w55248021:a52162928", "current_trial": 4, "dateTime": 1664555125663, "trialdata": {"rt": 2372, "stimulus": "<p id='stroop-text' class='stroop-blue'>YELLOW</p>", "response": "b", "stimulus-type": "incongruent", "word": "yellow", "color": "blue", "correct_response": "b", "trial_id": "stroop-trial-1-incongruent-7", "trial_type": "html-keyboard-response", "trial_index": 4, "time_elapsed": 276916, "internal_node_id": "0.0-4.0-0.0"}}, {"uniqueid": "w55248021:a52162928", "current_trial": 5, "dateTime": 1664555127654, "trialdata": {"rt": 1481, "stimulus": "<p id='stroop-text' class='stroop-green'>YELLOW</p>", "response": "g", "stimulus-type": "incongruent", "word": "yellow", "color": "green", "correct_response": "g", "trial_id": "stroop-trial-1-incongruent-6", "trial_type": "html-keyboard-response", "trial_index": 5, "time_elapsed": 278908, "internal_node_id": "0.0-4.0-1.0"}}, {"uniqueid": "w55248021:a52162928", "current_trial": 6, "dateTime": 1664555129732, "trialdata": {"rt": 1567, "stimulus": "<p id='stroop-text' class='stroop-yellow'>BOTTLE</p>", "response": "y", "stimulus-type": "unrelated", "word": "BOTTLE", "color": "yellow", "correct_response": "y", "trial_id": "stroop-trial-1-unrelated-26", "trial_type": "html-keyboard-response", "trial_index": 6, "time_elapsed": 280986, "internal_node_id": "0.0-4.0-2.0"}}, {"uniqueid": "w55248021:a52162928", "current_trial": 7, "dateTime": 1664555131861, "trialdata": {"rt": 1611, "stimulus": "<p id='stroop-text' class='stroop-blue'>RED</p>", "response": "b", "stimulus-type": "incongruent", "word": "red", "color": "blue", "correct_response": "b", "trial_id": "stroop-trial-1-incongruent-9", "trial_type": "html-keyboard-response", "trial_index": 7, "time_elapsed": 283114, "internal_node_id": "0.0-4.0-3.0"}}, {"uniqueid": "w55248021:a52162928", "current_trial": 8, "dateTime": 1664555133729, "trialdata": {"rt": 1350, "stimulus": "<p id='stroop-text' class='stroop-blue'>BRIDGE</p>", "response": "b", "stimulus-type": "unrelated", "word": "BRIDGE", "color": "blue", "correct_response": "b", "trial_id": "stroop-trial-1-unrelated-30", "trial_type": "html-keyboard-response", "trial_index": 8, "time_elapsed": 284982, "internal_node_id": "0.0-4.0-4.0"}}, {"uniqueid": "w55248021:a52162928", "current_trial": 9, "dateTime": 1664555136175, "trialdata": {"rt": 1934, "stimulus": "<p id='stroop-text' class='stroop-yellow'>GREEN</p>", "response": "g", "stimulus-type": "incongruent", "word": "green", "color": "yellow", "correct_response": "y", "trial_id": "stroop-trial-1-incongruent-14", "trial_type": "html-keyboard-response", "trial_index": 9, "time_elapsed": 287428, "internal_node_id": "0.0-4.0-5.0"}}, {"uniqueid": "w55248021:a52162928", "current_trial": 10, "dateTime": 1664555137979, "trialdata": {"rt": 1295, "stimulus": "<p id='stroop-text' class='stroop-blue'>GREEN</p>", "response": "b", "stimulus-type": "incongruent", "word": "green", "color": "blue", "correct_response": "b", "trial_id": "stroop-trial-1-incongruent-10", "trial_type": "html-keyboard-response", "trial_index": 10, "time_elapsed": 289233, "internal_node_id": "0.0-4.0-6.0"}}, {"uniqueid": "w55248021:a52162928", "current_trial": 11, "dateTime": 1664555139178, "trialdata": {"rt": 695, "stimulus": "<p id='stroop-text' class='stroop-yellow'>YELLOW</p>", "response": "y", "stimulus-type": "congruent", "word": "yellow", "color": "yellow", "correct_response": "y", "trial_id": "stroop-trial-1-congruent-20", "trial_type": "html-keyboard-response", "trial_index": 11, "time_elapsed": 290432, "internal_node_id": "0.0-4.0-7.0"}}, {"uniqueid": "w55248021:a52162928", "current_trial": 12, "dateTime": 1664555140543, "trialdata": {"rt": 860, "stimulus": "<p id='stroop-text' class='stroop-yellow'>STONE</p>", "response": "y", "stimulus-type": "unrelated", "word": "STONE", "color": "yellow", "correct_response": "y", "trial_id": "stroop-trial-1-unrelated-23", "trial_type": "html-keyboard-response", "trial_index": 12, "time_elapsed": 291796, "internal_node_id": "0.0-4.0-8.0"}}, {"uniqueid": "w55248021:a52162928", "current_trial": 13, "dateTime": 1664555141630, "trialdata": {"rt": 581, "stimulus": "<p id='stroop-text' class='stroop-yellow'>YELLOW</p>", "response": "y", "stimulus-type": "congruent", "word": "yellow", "color": "yellow", "correct_response": "y", "trial_id": "stroop-trial-1-congruent-10", "trial_type": "html-keyboard-response", "trial_index": 13, "time_elapsed": 292884, "internal_node_id": "0.0-4.0-9.0"}}, {"uniqueid": "w55248021:a52162928", "current_trial": 14, "dateTime": 1664555142842, "trialdata": {"rt": 706, "stimulus": "<p id='stroop-text' class='stroop-green'>GREEN</p>", "response": "g", "stimulus-type": "congruent", "word": "green", "color": "green", "correct_response": "g", "trial_id": "stroop-trial-1-congruent-8", "trial_type": "html-keyboard-response", "trial_index": 14, "time_elapsed": 294096, "internal_node_id": "0.0-4.0-10.0"}}, {"uniqueid": "w55248021:a52162928", "current_trial": 15, "dateTime": 1664555144033, "trialdata": {"rt": 685, "stimulus": "<p id='stroop-text' class='stroop-green'>GREEN</p>", "response": "g", "stimulus-type": "congruent", "word": "green", "color": "green", "correct_response": "g", "trial_id": "stroop-trial-1-congruent-6", "trial_type": "html-keyboard-response", "trial_index": 15, "time_elapsed": 295287, "internal_node_id": "0.0-4.0-11.0"}}, {"uniqueid": "w55248021:a52162928", "current_trial": 16, "dateTime": 1664555145097, "trialdata": {"rt": 553, "stimulus": "<p id='stroop-text' class='stroop-green'>BOAT</p>", "response": "g", "stimulus-type": "unrelated", "word": "BOAT", "color": "green", "correct_response": "g", "trial_id": "stroop-trial-1-unrelated-21", "trial_type": "html-keyboard-response", "trial_index": 16, "time_elapsed": 296351, "internal_node_id": "0.0-4.0-12.0"}}, {"uniqueid": "w55248021:a52162928", "current_trial": 17, "dateTime": 1664555146142, "trialdata": {"rt": 541, "stimulus": "<p id='stroop-text' class='stroop-blue'>FORK</p>", "response": "b", "stimulus-type": "unrelated", "word": "FORK", "color": "blue", "correct_response": "b", "trial_id": "stroop-trial-1-unrelated-22", "trial_type": "html-keyboard-response", "trial_index": 17, "time_elapsed": 297395, "internal_node_id": "0.0-4.0-13.0"}}, {"uniqueid": "w55248021:a52162928", "current_trial": 18, "dateTime": 1664555147453, "trialdata": {"rt": 805, "stimulus": "<p id='stroop-text' class='stroop-red'>BLUE</p>", "response": "r", "stimulus-type": "incongruent", "word": "blue", "color": "red", "correct_response": "r", "trial_id": "stroop-trial-1-incongruent-4", "trial_type": "html-keyboard-response", "trial_index": 18, "time_elapsed": 298707, "internal_node_id": "0.0-4.0-14.0"}}, {"uniqueid": "w55248021:a52162928", "current_trial": 19, "dateTime": 1664555148945, "trialdata": {"rt": 982, "stimulus": "<p id='stroop-text' class='stroop-yellow'>BLUE</p>", "response": "y", "stimulus-type": "incongruent", "word": "blue", "color": "yellow", "correct_response": "y", "trial_id": "stroop-trial-1-incongruent-12", "trial_type": "html-keyboard-response", "trial_index": 19, "time_elapsed": 300198, "internal_node_id": "0.0-4.0-15.0"}}, {"uniqueid": "w55248021:a52162928", "current_trial": 20, "dateTime": 1664555150675, "trialdata": {"rt": 1226, "stimulus": "<p id='stroop-text' class='stroop-blue'>RED</p>", "response": "b", "stimulus-type": "incongruent", "word": "red", "color": "blue", "correct_response": "b", "trial_id": "stroop-trial-1-incongruent-16", "trial_type": "html-keyboard-response", "trial_index": 20, "time_elapsed": 301928, "internal_node_id": "0.0-4.0-16.0"}}, {"uniqueid": "w55248021:a52162928", "current_trial": 21, "dateTime": 1664555151687, "trialdata": {"rt": 500, "stimulus": "<p id='stroop-text' class='stroop-blue'>RED</p>", "response": "b", "stimulus-type": "incongruent", "word": "red", "color": "blue", "correct_response": "b", "trial_id": "stroop-trial-1-incongruent-28", "trial_type": "html-keyboard-response", "trial_index": 21, "time_elapsed": 302941, "internal_node_id": "0.0-4.0-17.0"}}, {"uniqueid": "w55248021:a52162928", "current_trial": 22, "dateTime": 1664555153435, "trialdata": {"rt": 1235, "stimulus": "<p id='stroop-text' class='stroop-red'>RED</p>", "response": "r", "stimulus-type": "congruent", "word": "red", "color": "red", "correct_response": "r", "trial_id": "stroop-trial-1-congruent-30", "trial_type": "html-keyboard-response", "trial_index": 22, "time_elapsed": 304688, "internal_node_id": "0.0-4.0-18.0"}}, {"uniqueid": "w55248021:a52162928", "current_trial": 23, "dateTime": 1664555154566, "trialdata": {"rt": 625, "stimulus": "<p id='stroop-text' class='stroop-green'>GREEN</p>", "response": "g", "stimulus-type": "congruent", "word": "green", "color": "green", "correct_response": "g", "trial_id": "stroop-trial-1-congruent-4", "trial_type": "html-keyboard-response", "trial_index": 23, "time_elapsed": 305819, "internal_node_id": "0.0-4.0-19.0"}}, {"uniqueid": "w55248021:a52162928", "current_trial": 24, "dateTime": 1664555155902, "trialdata": {"rt": 828, "stimulus": "<p id='stroop-text' class='stroop-red'>YELLOW</p>", "response": "r", "stimulus-type": "incongruent", "word": "yellow", "color": "red", "correct_response": "r", "trial_id": "stroop-trial-1-incongruent-13", "trial_type": "html-keyboard-response", "trial_index": 24, "time_elapsed": 307156, "internal_node_id": "0.0-4.0-20.0"}}, {"uniqueid": "w55248021:a52162928", "current_trial": 25, "dateTime": 1664555158050, "trialdata": {"rt": 1635, "stimulus": "<p id='stroop-text' class='stroop-yellow'>YELLOW</p>", "response": "y", "stimulus-type": "congruent", "word": "yellow", "color": "yellow", "correct_response": "y", "trial_id": "stroop-trial-1-congruent-2", "trial_type": "html-keyboard-response", "trial_index": 25, "time_elapsed": 309303, "internal_node_id": "0.0-4.0-21.0"}}, {"uniqueid": "w55248021:a52162928", "current_trial": 26, "dateTime": 1664555159251, "trialdata": {"rt": 693, "stimulus": "<p id='stroop-text' class='stroop-green'>GREEN</p>", "response": "g", "stimulus-type": "congruent", "word": "green", "color": "green", "correct_response": "g", "trial_id": "stroop-trial-1-congruent-27", "trial_type": "html-keyboard-response", "trial_index": 26, "time_elapsed": 310504, "internal_node_id": "0.0-4.0-22.0"}}, {"uniqueid": "w55248021:a52162928", "current_trial": 27, "dateTime": 1664555160541, "trialdata": {"rt": 784, "stimulus": "<p id='stroop-text' class='stroop-red'>MONKEY</p>", "response": "r", "stimulus-type": "unrelated", "word": "MONKEY", "color": "red", "correct_response": "r", "trial_id": "stroop-trial-1-unrelated-2", "trial_type": "html-keyboard-response", "trial_index": 27, "time_elapsed": 311795, "internal_node_id": "0.0-4.0-23.0"}}, {"uniqueid": "w55248021:a52162928", "current_trial": 28, "dateTime": 1664555161831, "trialdata": {"rt": 779, "stimulus": "<p id='stroop-text' class='stroop-blue'>RED</p>", "response": "b", "stimulus-type": "incongruent", "word": "red", "color": "blue", "correct_response": "b", "trial_id": "stroop-trial-1-incongruent-25", "trial_type": "html-keyboard-response", "trial_index": 28, "time_elapsed": 313085, "internal_node_id": "0.0-4.0-24.0"}}, {"uniqueid": "w55248021:a52162928", "current_trial": 29, "dateTime": 1664555162919, "trialdata": {"rt": 583, "stimulus": "<p id='stroop-text' class='stroop-blue'>GREEN</p>", "response": "b", "stimulus-type": "incongruent", "word": "green", "color": "blue", "correct_response": "b", "trial_id": "stroop-trial-1-incongruent-17", "trial_type": "html-keyboard-response", "trial_index": 29, "time_elapsed": 314173, "internal_node_id": "0.0-4.0-25.0"}}, {"uniqueid": "w55248021:a52162928", "current_trial": 30, "dateTime": 1664555163966, "trialdata": {"rt": 542, "stimulus": "<p id='stroop-text' class='stroop-yellow'>YELLOW</p>", "response": "y", "stimulus-type": "congruent", "word": "yellow", "color": "yellow", "correct_response": "y", "trial_id": "stroop-trial-1-congruent-5", "trial_type": "html-keyboard-response", "trial_index": 30, "time_elapsed": 315220, "internal_node_id": "0.0-4.0-26.0"}}, {"uniqueid": "w55248021:a52162928", "current_trial": 31, "dateTime": 1664555165069, "trialdata": {"rt": 595, "stimulus": "<p id='stroop-text' class='stroop-blue'>BOAT</p>", "response": "b", "stimulus-type": "unrelated", "word": "BOAT", "color": "blue", "correct_response": "b", "trial_id": "stroop-trial-1-unrelated-29", "trial_type": "html-keyboard-response", "trial_index": 31, "time_elapsed": 316322, "internal_node_id": "0.0-4.0-27.0"}}, {"uniqueid": "w55248021:a52162928", "current_trial": 32, "dateTime": 1664555166293, "trialdata": {"rt": 716, "stimulus": "<p id='stroop-text' class='stroop-red'>GREEN</p>", "response": "r", "stimulus-type": "incongruent", "word": "green", "color": "red", "correct_response": "r", "trial_id": "stroop-trial-1-incongruent-21", "trial_type": "html-keyboard-response", "trial_index": 32, "time_elapsed": 317545, "internal_node_id": "0.0-4.0-28.0"}}, {"uniqueid": "w55248021:a52162928", "current_trial": 33, "dateTime": 1664555170214, "trialdata": {"rt": 3418, "stimulus": "<p id='stroop-text' class='stroop-green'>WINDOW</p>", "response": "g", "stimulus-type": "unrelated", "word": "WINDOW", "color": "green", "correct_response": "g", "trial_id": "stroop-trial-1-unrelated-15", "trial_type": "html-keyboard-response", "trial_index": 33, "time_elapsed": 321468, "internal_node_id": "0.0-4.0-29.0"}}, {"uniqueid": "w55248021:a52162928", "current_trial": 34, "dateTime": 1664555171255, "trialdata": {"rt": 533, "stimulus": "<p id='stroop-text' class='stroop-yellow'>BOAT</p>", "response": "y", "stimulus-type": "unrelated", "word": "BOAT", "color": "yellow", "correct_response": "y", "trial_id": "stroop-trial-1-unrelated-24", "trial_type": "html-keyboard-response", "trial_index": 34, "time_elapsed": 322508, "internal_node_id": "0.0-4.0-30.0"}}, {"uniqueid": "w55248021:a52162928", "current_trial": 35, "dateTime": 1664555172369, "trialdata": {"rt": 606, "stimulus": "<p id='stroop-text' class='stroop-yellow'>BOAT</p>", "response": "y", "stimulus-type": "unrelated", "word": "BOAT", "color": "yellow", "correct_response": "y", "trial_id": "stroop-trial-1-unrelated-9", "trial_type": "html-keyboard-response", "trial_index": 35, "time_elapsed": 323622, "internal_node_id": "0.0-4.0-31.0"}}, {"uniqueid": "w55248021:a52162928", "current_trial": 36, "dateTime": 1664555173511, "trialdata": {"rt": 637, "stimulus": "<p id='stroop-text' class='stroop-blue'>MONKEY</p>", "response": "b", "stimulus-type": "unrelated", "word": "MONKEY", "color": "blue", "correct_response": "b", "trial_id": "stroop-trial-1-unrelated-27", "trial_type": "html-keyboard-response", "trial_index": 36, "time_elapsed": 324765, "internal_node_id": "0.0-4.0-32.0"}}, {"uniqueid": "w55248021:a52162928", "current_trial": 37, "dateTime": 1664555174625, "trialdata": {"rt": 605, "stimulus": "<p id='stroop-text' class='stroop-red'>BLUE</p>", "response": "r", "stimulus-type": "incongruent", "word": "blue", "color": "red", "correct_response": "r", "trial_id": "stroop-trial-1-incongruent-27", "trial_type": "html-keyboard-response", "trial_index": 37, "time_elapsed": 325878, "internal_node_id": "0.0-4.0-33.0"}}, {"uniqueid": "w55248021:a52162928", "current_trial": 38, "dateTime": 1664555175746, "trialdata": {"rt": 608, "stimulus": "<p id='stroop-text' class='stroop-yellow'>YELLOW</p>", "response": "y", "stimulus-type": "congruent", "word": "yellow", "color": "yellow", "correct_response": "y", "trial_id": "stroop-trial-1-congruent-26", "trial_type": "html-keyboard-response", "trial_index": 38, "time_elapsed": 326999, "internal_node_id": "0.0-4.0-34.0"}}, {"uniqueid": "w55248021:a52162928", "current_trial": 39, "dateTime": 1664555176814, "trialdata": {"rt": 564, "stimulus": "<p id='stroop-text' class='stroop-blue'>RED</p>", "response": "r", "stimulus-type": "incongruent", "word": "red", "color": "blue", "correct_response": "b", "trial_id": "stroop-trial-1-incongruent-24", "trial_type": "html-keyboard-response", "trial_index": 39, "time_elapsed": 328068, "internal_node_id": "0.0-4.0-35.0"}}, {"uniqueid": "w55248021:a52162928", "current_trial": 40, "dateTime": 1664555179735, "trialdata": {"rt": 2409, "stimulus": "<p id='stroop-text' class='stroop-green'>STONE</p>", "response": "g", "stimulus-type": "unrelated", "word": "STONE", "color": "green", "correct_response": "g", "trial_id": "stroop-trial-1-unrelated-1", "trial_type": "html-keyboard-response", "trial_index": 40, "time_elapsed": 330988, "internal_node_id": "0.0-4.0-36.0"}}, {"uniqueid": "w55248021:a52162928", "current_trial": 41, "dateTime": 1664555180949, "trialdata": {"rt": 708, "stimulus": "<p id='stroop-text' class='stroop-blue'>SHIP</p>", "response": "b", "stimulus-type": "unrelated", "word": "SHIP", "color": "blue", "correct_response": "b", "trial_id": "stroop-trial-1-unrelated-19", "trial_type": "html-keyboard-response", "trial_index": 41, "time_elapsed": 332202, "internal_node_id": "0.0-4.0-37.0"}}, {"uniqueid": "w55248021:a52162928", "current_trial": 42, "dateTime": 1664555182013, "trialdata": {"rt": 553, "stimulus": "<p id='stroop-text' class='stroop-yellow'>WINDOW</p>", "response": "y", "stimulus-type": "unrelated", "word": "WINDOW", "color": "yellow", "correct_response": "y", "trial_id": "stroop-trial-1-unrelated-18", "trial_type": "html-keyboard-response", "trial_index": 42, "time_elapsed": 333267, "internal_node_id": "0.0-4.0-38.0"}}, {"uniqueid": "w55248021:a52162928", "current_trial": 43, "dateTime": 1664555183057, "trialdata": {"rt": 532, "stimulus": "<p id='stroop-text' class='stroop-blue'>SHIP</p>", "response": "y", "stimulus-type": "unrelated", "word": "SHIP", "color": "blue", "correct_response": "b", "trial_id": "stroop-trial-1-unrelated-10", "trial_type": "html-keyboard-response", "trial_index": 43, "time_elapsed": 334310, "internal_node_id": "0.0-4.0-39.0"}}, {"uniqueid": "w55248021:a52162928", "current_trial": 44, "dateTime": 1664555184408, "trialdata": {"rt": 843, "stimulus": "<p id='stroop-text' class='stroop-red'>SHIP</p>", "response": "r", "stimulus-type": "unrelated", "word": "SHIP", "color": "red", "correct_response": "r", "trial_id": "stroop-trial-1-unrelated-3", "trial_type": "html-keyboard-response", "trial_index": 44, "time_elapsed": 335661, "internal_node_id": "0.0-4.0-40.0"}}, {"uniqueid": "w55248021:a52162928", "current_trial": 45, "dateTime": 1664555185381, "trialdata": {"rt": 463, "stimulus": "<p id='stroop-text' class='stroop-red'>GREEN</p>", "response": "r", "stimulus-type": "incongruent", "word": "green", "color": "red", "correct_response": "r", "trial_id": "stroop-trial-1-incongruent-22", "trial_type": "html-keyboard-response", "trial_index": 45, "time_elapsed": 336634, "internal_node_id": "0.0-4.0-41.0"}}, {"uniqueid": "w55248021:a52162928", "current_trial": 46, "dateTime": 1664555186783, "trialdata": {"rt": 896, "stimulus": "<p id='stroop-text' class='stroop-green'>GREEN</p>", "response": "g", "stimulus-type": "congruent", "word": "green", "color": "green", "correct_response": "g", "trial_id": "stroop-trial-1-congruent-11", "trial_type": "html-keyboard-response", "trial_index": 46, "time_elapsed": 338036, "internal_node_id": "0.0-4.0-42.0"}}, {"uniqueid": "w55248021:a52162928", "current_trial": 47, "dateTime": 1664555188131, "trialdata": {"rt": 843, "stimulus": "<p id='stroop-text' class='stroop-yellow'>GREEN</p>", "response": "y", "stimulus-type": "incongruent", "word": "green", "color": "yellow", "correct_response": "y", "trial_id": "stroop-trial-1-incongruent-23", "trial_type": "html-keyboard-response", "trial_index": 47, "time_elapsed": 339385, "internal_node_id": "0.0-4.0-43.0"}}, {"uniqueid": "w55248021:a52162928", "current_trial": 48, "dateTime": 1664555189130, "trialdata": {"rt": 490, "stimulus": "<p id='stroop-text' class='stroop-yellow'>YELLOW</p>", "response": "y", "stimulus-type": "congruent", "word": "yellow", "color": "yellow", "correct_response": "y", "trial_id": "stroop-trial-1-congruent-12", "trial_type": "html-keyboard-response", "trial_index": 48, "time_elapsed": 340384, "internal_node_id": "0.0-4.0-44.0"}}, {"uniqueid": "w55248021:a52162928", "current_trial": 49, "dateTime": 1664555190416, "trialdata": {"rt": 775, "stimulus": "<p id='stroop-text' class='stroop-blue'>BLUE</p>", "response": "b", "stimulus-type": "congruent", "word": "blue", "color": "blue", "correct_response": "b", "trial_id": "stroop-trial-1-congruent-28", "trial_type": "html-keyboard-response", "trial_index": 49, "time_elapsed": 341669, "internal_node_id": "0.0-4.0-45.0"}}, {"uniqueid": "w55248021:a52162928", "current_trial": 50, "dateTime": 1664555191569, "trialdata": {"rt": 645, "stimulus": "<p id='stroop-text' class='stroop-red'>RED</p>", "response": "r", "stimulus-type": "congruent", "word": "red", "color": "red", "correct_response": "r", "trial_id": "stroop-trial-1-congruent-25", "trial_type": "html-keyboard-response", "trial_index": 50, "time_elapsed": 342821, "internal_node_id": "0.0-4.0-46.0"}}, {"uniqueid": "w55248021:a52162928", "current_trial": 51, "dateTime": 1664555192724, "trialdata": {"rt": 647, "stimulus": "<p id='stroop-text' class='stroop-yellow'>YELLOW</p>", "response": "y", "stimulus-type": "congruent", "word": "yellow", "color": "yellow", "correct_response": "y", "trial_id": "stroop-trial-1-congruent-13", "trial_type": "html-keyboard-response", "trial_index": 51, "time_elapsed": 343977, "internal_node_id": "0.0-4.0-47.0"}}, {"uniqueid": "w55248021:a52162928", "current_trial": 52, "dateTime": 1664555194303, "trialdata": {"rt": 1074, "stimulus": "<p id='stroop-text' class='stroop-green'>RED</p>", "response": "g", "stimulus-type": "incongruent", "word": "red", "color": "green", "correct_response": "g", "trial_id": "stroop-trial-1-incongruent-18", "trial_type": "html-keyboard-response", "trial_index": 52, "time_elapsed": 345557, "internal_node_id": "0.0-4.0-48.0"}}, {"uniqueid": "w55248021:a52162928", "current_trial": 53, "dateTime": 1664555195442, "trialdata": {"rt": 630, "stimulus": "<p id='stroop-text' class='stroop-green'>YELLOW</p>", "response": "g", "stimulus-type": "incongruent", "word": "yellow", "color": "green", "correct_response": "g", "trial_id": "stroop-trial-1-incongruent-19", "trial_type": "html-keyboard-response", "trial_index": 53, "time_elapsed": 346696, "internal_node_id": "0.0-4.0-49.0"}}, {"uniqueid": "w55248021:a52162928", "current_trial": 54, "dateTime": 1664555196536, "trialdata": {"rt": 586, "stimulus": "<p id='stroop-text' class='stroop-red'>MONKEY</p>", "response": "r", "stimulus-type": "unrelated", "word": "MONKEY", "color": "red", "correct_response": "r", "trial_id": "stroop-trial-1-unrelated-17", "trial_type": "html-keyboard-response", "trial_index": 54, "time_elapsed": 347789, "internal_node_id": "0.0-4.0-50.0"}}, {"uniqueid": "w55248021:a52162928", "current_trial": 55, "dateTime": 1664555197371, "trialdata": {"rt": 325, "stimulus": "<p id='stroop-text' class='stroop-red'>BOAT</p>", "response": "r", "stimulus-type": "unrelated", "word": "BOAT", "color": "red", "correct_response": "r", "trial_id": "stroop-trial-1-unrelated-8", "trial_type": "html-keyboard-response", "trial_index": 55, "time_elapsed": 348624, "internal_node_id": "0.0-4.0-51.0"}}, {"uniqueid": "w55248021:a52162928", "current_trial": 56, "dateTime": 1664555198351, "trialdata": {"rt": 472, "stimulus": "<p id='stroop-text' class='stroop-blue'>CHAIR</p>", "response": "b", "stimulus-type": "unrelated", "word": "CHAIR", "color": "blue", "correct_response": "b", "trial_id": "stroop-trial-1-unrelated-13", "trial_type": "html-keyboard-response", "trial_index": 56, "time_elapsed": 349605, "internal_node_id": "0.0-4.0-52.0"}}, {"uniqueid": "w55248021:a52162928", "current_trial": 57, "dateTime": 1664555199578, "trialdata": {"rt": 723, "stimulus": "<p id='stroop-text' class='stroop-green'>YELLOW</p>", "response": "g", "stimulus-type": "incongruent", "word": "yellow", "color": "green", "correct_response": "g", "trial_id": "stroop-trial-1-incongruent-15", "trial_type": "html-keyboard-response", "trial_index": 57, "time_elapsed": 350831, "internal_node_id": "0.0-4.0-53.0"}}, {"uniqueid": "w55248021:a52162928", "current_trial": 58, "dateTime": 1664555201169, "trialdata": {"rt": 1086, "stimulus": "<p id='stroop-text' class='stroop-green'>GREEN</p>", "response": "g", "stimulus-type": "congruent", "word": "green", "color": "green", "correct_response": "g", "trial_id": "stroop-trial-1-congruent-9", "trial_type": "html-keyboard-response", "trial_index": 58, "time_elapsed": 352423, "internal_node_id": "0.0-4.0-54.0"}}, {"uniqueid": "w55248021:a52162928", "current_trial": 59, "dateTime": 1664555202330, "trialdata": {"rt": 655, "stimulus": "<p id='stroop-text' class='stroop-blue'>STONE</p>", "response": "b", "stimulus-type": "unrelated", "word": "STONE", "color": "blue", "correct_response": "b", "trial_id": "stroop-trial-1-unrelated-12", "trial_type": "html-keyboard-response", "trial_index": 59, "time_elapsed": 353584, "internal_node_id": "0.0-4.0-55.0"}}, {"uniqueid": "w55248021:a52162928", "current_trial": 60, "dateTime": 1664555203410, "trialdata": {"rt": 575, "stimulus": "<p id='stroop-text' class='stroop-red'>RED</p>", "response": "r", "stimulus-type": "congruent", "word": "red", "color": "red", "correct_response": "r", "trial_id": "stroop-trial-1-congruent-15", "trial_type": "html-keyboard-response", "trial_index": 60, "time_elapsed": 354664, "internal_node_id": "0.0-4.0-56.0"}}, {"uniqueid": "w55248021:a52162928", "current_trial": 61, "dateTime": 1664555204418, "trialdata": {"rt": 500, "stimulus": "<p id='stroop-text' class='stroop-red'>BRIDGE</p>", "response": "r", "stimulus-type": "unrelated", "word": "BRIDGE", "color": "red", "correct_response": "r", "trial_id": "stroop-trial-1-unrelated-28", "trial_type": "html-keyboard-response", "trial_index": 61, "time_elapsed": 355672, "internal_node_id": "0.0-4.0-57.0"}}, {"uniqueid": "w55248021:a52162928", "current_trial": 62, "dateTime": 1664555205499, "trialdata": {"rt": 577, "stimulus": "<p id='stroop-text' class='stroop-yellow'>RED</p>", "response": "y", "stimulus-type": "incongruent", "word": "red", "color": "yellow", "correct_response": "y", "trial_id": "stroop-trial-1-incongruent-26", "trial_type": "html-keyboard-response", "trial_index": 62, "time_elapsed": 356753, "internal_node_id": "0.0-4.0-58.0"}}, {"uniqueid": "w55248021:a52162928", "current_trial": 63, "dateTime": 1664555206652, "trialdata": {"rt": 646, "stimulus": "<p id='stroop-text' class='stroop-green'>GREEN</p>", "response": "g", "stimulus-type": "congruent", "word": "green", "color": "green", "correct_response": "g", "trial_id": "stroop-trial-1-congruent-18", "trial_type": "html-keyboard-response", "trial_index": 63, "time_elapsed": 357906, "internal_node_id": "0.0-4.0-59.0"}}, {"uniqueid": "w55248021:a52162928", "current_trial": 64, "dateTime": 1664555207922, "trialdata": {"rt": 752, "stimulus": "<p id='stroop-text' class='stroop-blue'>BLUE</p>", "response": "b", "stimulus-type": "congruent", "word": "blue", "color": "blue", "correct_response": "b", "trial_id": "stroop-trial-1-congruent-17", "trial_type": "html-keyboard-response", "trial_index": 64, "time_elapsed": 359175, "internal_node_id": "0.0-4.0-60.0"}}, {"uniqueid": "w55248021:a52162928", "current_trial": 65, "dateTime": 1664555209905, "trialdata": {"rt": 1468, "stimulus": "<p id='stroop-text' class='stroop-green'>DOG</p>", "response": "g", "stimulus-type": "unrelated", "word": "DOG", "color": "green", "correct_response": "g", "trial_id": "stroop-trial-1-unrelated-16", "trial_type": "html-keyboard-response", "trial_index": 65, "time_elapsed": 361159, "internal_node_id": "0.0-4.0-61.0"}}, {"uniqueid": "w55248021:a52162928", "current_trial": 66, "dateTime": 1664555210976, "trialdata": {"rt": 567, "stimulus": "<p id='stroop-text' class='stroop-green'>RED</p>", "response": "g", "stimulus-type": "incongruent", "word": "red", "color": "green", "correct_response": "g", "trial_id": "stroop-trial-1-incongruent-11", "trial_type": "html-keyboard-response", "trial_index": 66, "time_elapsed": 362230, "internal_node_id": "0.0-4.0-62.0"}}, {"uniqueid": "w55248021:a52162928", "current_trial": 67, "dateTime": 1664555212188, "trialdata": {"rt": 706, "stimulus": "<p id='stroop-text' class='stroop-blue'>RED</p>", "response": "b", "stimulus-type": "incongruent", "word": "red", "color": "blue", "correct_response": "b", "trial_id": "stroop-trial-1-incongruent-3", "trial_type": "html-keyboard-response", "trial_index": 67, "time_elapsed": 363442, "internal_node_id": "0.0-4.0-63.0"}}, {"uniqueid": "w55248021:a52162928", "current_trial": 68, "dateTime": 1664555213352, "trialdata": {"rt": 653, "stimulus": "<p id='stroop-text' class='stroop-yellow'>SHIP</p>", "response": "y", "stimulus-type": "unrelated", "word": "SHIP", "color": "yellow", "correct_response": "y", "trial_id": "stroop-trial-1-unrelated-25", "trial_type": "html-keyboard-response", "trial_index": 68, "time_elapsed": 364605, "internal_node_id": "0.0-4.0-64.0"}}, {"uniqueid": "w55248021:a52162928", "current_trial": 69, "dateTime": 1664555214786, "trialdata": {"rt": 923, "stimulus": "<p id='stroop-text' class='stroop-green'>YELLOW</p>", "response": "g", "stimulus-type": "incongruent", "word": "yellow", "color": "green", "correct_response": "g", "trial_id": "stroop-trial-1-incongruent-30", "trial_type": "html-keyboard-response", "trial_index": 69, "time_elapsed": 366040, "internal_node_id": "0.0-4.0-65.0"}}, {"uniqueid": "w55248021:a52162928", "current_trial": 70, "dateTime": 1664555216141, "trialdata": {"rt": 848, "stimulus": "<p id='stroop-text' class='stroop-red'>RED</p>", "response": "r", "stimulus-type": "congruent", "word": "red", "color": "red", "correct_response": "r", "trial_id": "stroop-trial-1-congruent-21", "trial_type": "html-keyboard-response", "trial_index": 70, "time_elapsed": 367394, "internal_node_id": "0.0-4.0-66.0"}}, {"uniqueid": "w55248021:a52162928", "current_trial": 71, "dateTime": 1664555217388, "trialdata": {"rt": 736, "stimulus": "<p id='stroop-text' class='stroop-green'>GREEN</p>", "response": "g", "stimulus-type": "congruent", "word": "green", "color": "green", "correct_response": "g", "trial_id": "stroop-trial-1-congruent-1", "trial_type": "html-keyboard-response", "trial_index": 71, "time_elapsed": 368642, "internal_node_id": "0.0-4.0-67.0"}}, {"uniqueid": "w55248021:a52162928", "current_trial": 72, "dateTime": 1664555218355, "trialdata": {"rt": 455, "stimulus": "<p id='stroop-text' class='stroop-red'>RED</p>", "response": "r", "stimulus-type": "congruent", "word": "red", "color": "red", "correct_response": "r", "trial_id": "stroop-trial-1-congruent-16", "trial_type": "html-keyboard-response", "trial_index": 72, "time_elapsed": 369609, "internal_node_id": "0.0-4.0-68.0"}}, {"uniqueid": "w55248021:a52162928", "current_trial": 73, "dateTime": 1664555219506, "trialdata": {"rt": 643, "stimulus": "<p id='stroop-text' class='stroop-green'>BLUE</p>", "response": "g", "stimulus-type": "incongruent", "word": "blue", "color": "green", "correct_response": "g", "trial_id": "stroop-trial-1-incongruent-8", "trial_type": "html-keyboard-response", "trial_index": 73, "time_elapsed": 370760, "internal_node_id": "0.0-4.0-69.0"}}, {"uniqueid": "w55248021:a52162928", "current_trial": 74, "dateTime": 1664555220576, "trialdata": {"rt": 559, "stimulus": "<p id='stroop-text' class='stroop-red'>RED</p>", "response": "r", "stimulus-type": "congruent", "word": "red", "color": "red", "correct_response": "r", "trial_id": "stroop-trial-1-congruent-23", "trial_type": "html-keyboard-response", "trial_index": 74, "time_elapsed": 371829, "internal_node_id": "0.0-4.0-70.0"}}, {"uniqueid": "w55248021:a52162928", "current_trial": 75, "dateTime": 1664555221739, "trialdata": {"rt": 654, "stimulus": "<p id='stroop-text' class='stroop-red'>BLUE</p>", "response": "g", "stimulus-type": "incongruent", "word": "blue", "color": "red", "correct_response": "r", "trial_id": "stroop-trial-1-incongruent-29", "trial_type": "html-keyboard-response", "trial_index": 75, "time_elapsed": 372993, "internal_node_id": "0.0-4.0-71.0"}}, {"uniqueid": "w55248021:a52162928", "current_trial": 76, "dateTime": 1664555222902, "trialdata": {"rt": 653, "stimulus": "<p id='stroop-text' class='stroop-blue'>GREEN</p>", "response": "b", "stimulus-type": "incongruent", "word": "green", "color": "blue", "correct_response": "b", "trial_id": "stroop-trial-1-incongruent-2", "trial_type": "html-keyboard-response", "trial_index": 76, "time_elapsed": 374156, "internal_node_id": "0.0-4.0-72.0"}}, {"uniqueid": "w55248021:a52162928", "current_trial": 77, "dateTime": 1664555224233, "trialdata": {"rt": 818, "stimulus": "<p id='stroop-text' class='stroop-red'>GREEN</p>", "response": "r", "stimulus-type": "incongruent", "word": "green", "color": "red", "correct_response": "r", "trial_id": "stroop-trial-1-incongruent-1", "trial_type": "html-keyboard-response", "trial_index": 77, "time_elapsed": 375486, "internal_node_id": "0.0-4.0-73.0"}}, {"uniqueid": "w55248021:a52162928", "current_trial": 78, "dateTime": 1664555225171, "trialdata": {"rt": 428, "stimulus": "<p id='stroop-text' class='stroop-red'>RED</p>", "response": "r", "stimulus-type": "congruent", "word": "red", "color": "red", "correct_response": "r", "trial_id": "stroop-trial-1-congruent-19", "trial_type": "html-keyboard-response", "trial_index": 78, "time_elapsed": 376425, "internal_node_id": "0.0-4.0-74.0"}}, {"uniqueid": "w55248021:a52162928", "current_trial": 79, "dateTime": 1664555226252, "trialdata": {"rt": 574, "stimulus": "<p id='stroop-text' class='stroop-yellow'>YELLOW</p>", "response": "y", "stimulus-type": "congruent", "word": "yellow", "color": "yellow", "correct_response": "y", "trial_id": "stroop-trial-1-congruent-22", "trial_type": "html-keyboard-response", "trial_index": 79, "time_elapsed": 377506, "internal_node_id": "0.0-4.0-75.0"}}, {"uniqueid": "w55248021:a52162928", "current_trial": 80, "dateTime": 1664555227457, "trialdata": {"rt": 695, "stimulus": "<p id='stroop-text' class='stroop-red'>BOTTLE</p>", "response": "r", "stimulus-type": "unrelated", "word": "BOTTLE", "color": "red", "correct_response": "r", "trial_id": "stroop-trial-1-unrelated-4", "trial_type": "html-keyboard-response", "trial_index": 80, "time_elapsed": 378710, "internal_node_id": "0.0-4.0-76.0"}}, {"uniqueid": "w55248021:a52162928", "current_trial": 81, "dateTime": 1664555228572, "trialdata": {"rt": 605, "stimulus": "<p id='stroop-text' class='stroop-blue'>MONKEY</p>", "response": "b", "stimulus-type": "unrelated", "word": "MONKEY", "color": "blue", "correct_response": "b", "trial_id": "stroop-trial-1-unrelated-7", "trial_type": "html-keyboard-response", "trial_index": 81, "time_elapsed": 379826, "internal_node_id": "0.0-4.0-77.0"}}, {"uniqueid": "w55248021:a52162928", "current_trial": 82, "dateTime": 1664555230230, "trialdata": {"rt": 1152, "stimulus": "<p id='stroop-text' class='stroop-green'>SHIP</p>", "response": "g", "stimulus-type": "unrelated", "word": "SHIP", "color": "green", "correct_response": "g", "trial_id": "stroop-trial-1-unrelated-6", "trial_type": "html-keyboard-response", "trial_index": 82, "time_elapsed": 381484, "internal_node_id": "0.0-4.0-78.0"}}, {"uniqueid": "w55248021:a52162928", "current_trial": 83, "dateTime": 1664555232690, "trialdata": {"rt": 1953, "stimulus": "<p id='stroop-text' class='stroop-blue'>BOTTLE</p>", "response": "b", "stimulus-type": "unrelated", "word": "BOTTLE", "color": "blue", "correct_response": "b", "trial_id": "stroop-trial-1-unrelated-11", "trial_type": "html-keyboard-response", "trial_index": 83, "time_elapsed": 383944, "internal_node_id": "0.0-4.0-79.0"}}, {"uniqueid": "w55248021:a52162928", "current_trial": 84, "dateTime": 1664555233922, "trialdata": {"rt": 726, "stimulus": "<p id='stroop-text' class='stroop-red'>RED</p>", "response": "r", "stimulus-type": "congruent", "word": "red", "color": "red", "correct_response": "r", "trial_id": "stroop-trial-1-congruent-29", "trial_type": "html-keyboard-response", "trial_index": 84, "time_elapsed": 385175, "internal_node_id": "0.0-4.0-80.0"}}, {"uniqueid": "w55248021:a52162928", "current_trial": 85, "dateTime": 1664555235251, "trialdata": {"rt": 826, "stimulus": "<p id='stroop-text' class='stroop-yellow'>SHIP</p>", "response": "y", "stimulus-type": "unrelated", "word": "SHIP", "color": "yellow", "correct_response": "y", "trial_id": "stroop-trial-1-unrelated-20", "trial_type": "html-keyboard-response", "trial_index": 85, "time_elapsed": 386505, "internal_node_id": "0.0-4.0-81.0"}}, {"uniqueid": "w55248021:a52162928", "current_trial": 86, "dateTime": 1664555236464, "trialdata": {"rt": 703, "stimulus": "<p id='stroop-text' class='stroop-green'>GREEN</p>", "response": "g", "stimulus-type": "congruent", "word": "green", "color": "green", "correct_response": "g", "trial_id": "stroop-trial-1-congruent-3", "trial_type": "html-keyboard-response", "trial_index": 86, "time_elapsed": 387717, "internal_node_id": "0.0-4.0-82.0"}}, {"uniqueid": "w55248021:a52162928", "current_trial": 87, "dateTime": 1664555238246, "trialdata": {"rt": 1275, "stimulus": "<p id='stroop-text' class='stroop-green'>BLUE</p>", "response": "g", "stimulus-type": "incongruent", "word": "blue", "color": "green", "correct_response": "g", "trial_id": "stroop-trial-1-incongruent-20", "trial_type": "html-keyboard-response", "trial_index": 87, "time_elapsed": 389500, "internal_node_id": "0.0-4.0-83.0"}}, {"uniqueid": "w55248021:a52162928", "current_trial": 88, "dateTime": 1664555239742, "trialdata": {"rt": 992, "stimulus": "<p id='stroop-text' class='stroop-red'>RED</p>", "response": "r", "stimulus-type": "congruent", "word": "red", "color": "red", "correct_response": "r", "trial_id": "stroop-trial-1-congruent-24", "trial_type": "html-keyboard-response", "trial_index": 88, "time_elapsed": 390996, "internal_node_id": "0.0-4.0-84.0"}}, {"uniqueid": "w55248021:a52162928", "current_trial": 89, "dateTime": 1664555240820, "trialdata": {"rt": 571, "stimulus": "<p id='stroop-text' class='stroop-blue'>GREEN</p>", "response": "b", "stimulus-type": "incongruent", "word": "green", "color": "blue", "correct_response": "b", "trial_id": "stroop-trial-1-incongruent-5", "trial_type": "html-keyboard-response", "trial_index": 89, "time_elapsed": 392073, "internal_node_id": "0.0-4.0-85.0"}}, {"uniqueid": "w55248021:a52162928", "current_trial": 90, "dateTime": 1664555241908, "trialdata": {"rt": 579, "stimulus": "<p id='stroop-text' class='stroop-red'>RED</p>", "response": "r", "stimulus-type": "congruent", "word": "red", "color": "red", "correct_response": "r", "trial_id": "stroop-trial-1-congruent-14", "trial_type": "html-keyboard-response", "trial_index": 90, "time_elapsed": 393162, "internal_node_id": "0.0-4.0-86.0"}}, {"uniqueid": "w55248021:a52162928", "current_trial": 91, "dateTime": 1664555243014, "trialdata": {"rt": 601, "stimulus": "<p id='stroop-text' class='stroop-red'>BOAT</p>", "response": "r", "stimulus-type": "unrelated", "word": "BOAT", "color": "red", "correct_response": "r", "trial_id": "stroop-trial-1-unrelated-5", "trial_type": "html-keyboard-response", "trial_index": 91, "time_elapsed": 394267, "internal_node_id": "0.0-4.0-87.0"}}, {"uniqueid": "w55248021:a52162928", "current_trial": 92, "dateTime": 1664555244165, "trialdata": {"rt": 642, "stimulus": "<p id='stroop-text' class='stroop-green'>GREEN</p>", "response": "g", "stimulus-type": "congruent", "word": "green", "color": "green", "correct_response": "g", "trial_id": "stroop-trial-1-congruent-7", "trial_type": "html-keyboard-response", "trial_index": 92, "time_elapsed": 395419, "internal_node_id": "0.0-4.0-88.0"}}, {"uniqueid": "w55248021:a52162928", "current_trial": 93, "dateTime": 1664555245344, "trialdata": {"rt": 668, "stimulus": "<p id='stroop-text' class='stroop-red'>MONKEY</p>", "response": "r", "stimulus-type": "unrelated", "word": "MONKEY", "color": "red", "correct_response": "r", "trial_id": "stroop-trial-1-unrelated-14", "trial_type": "html-keyboard-response", "trial_index": 93, "time_elapsed": 396597, "internal_node_id": "0.0-4.0-89.0"}}, {"uniqueid": "w55248021:a52162928", "current_trial": 94, "dateTime": 1664555261173, "trialdata": {"rt": 15313, "stimulus": "  <h1> End of block! </h1>\n\n  You have reached the end of the block 1/5. If you need a short break, feel free to take one now before moving on.\n\n  <br><br>\n  In the next block, you will complete another 90 rounds of this game.\n\n  <br><br>\n  <div style='text-align: center;'>Press <code>space</code> to begin.</div>\n  <br><br>\n<div style='text-align: center;'>(If the experiment doesn't continue, try clicking on the text and then pressing <code>space</code>.)</div>", "response": " ", "trial_id": "stroop_1_ready_2", "trial_type": "html-keyboard-response", "trial_index": 94, "time_elapsed": 412426, "internal_node_id": "0.0-5.0"}}, {"uniqueid": "w55248021:a52162928", "current_trial": 95, "dateTime": 1664555262165, "trialdata": {"rt": 985, "stimulus": "<p id='stroop-text' class='stroop-red'>GREEN</p>", "response": "r", "stimulus-type": "incongruent", "word": "green", "color": "red", "correct_response": "r", "trial_id": "stroop-trial-1-incongruent-28", "trial_type": "html-keyboard-response", "trial_index": 95, "time_elapsed": 413419, "internal_node_id": "0.0-6.0-0.0"}}, {"uniqueid": "w55248021:a52162928", "current_trial": 96, "dateTime": 1664555263507, "trialdata": {"rt": 834, "stimulus": "<p id='stroop-text' class='stroop-blue'>BLUE</p>", "response": "b", "stimulus-type": "congruent", "word": "blue", "color": "blue", "correct_response": "b", "trial_id": "stroop-trial-1-congruent-14", "trial_type": "html-keyboard-response", "trial_index": 96, "time_elapsed": 414761, "internal_node_id": "0.0-6.0-1.0"}}, {"uniqueid": "w55248021:a52162928", "current_trial": 97, "dateTime": 1664555265157, "trialdata": {"rt": 1143, "stimulus": "<p id='stroop-text' class='stroop-green'>YELLOW</p>", "response": "g", "stimulus-type": "incongruent", "word": "yellow", "color": "green", "correct_response": "g", "trial_id": "stroop-trial-1-incongruent-21", "trial_type": "html-keyboard-response", "trial_index": 97, "time_elapsed": 416410, "internal_node_id": "0.0-6.0-2.0"}}, {"uniqueid": "w55248021:a52162928", "current_trial": 98, "dateTime": 1664555266713, "trialdata": {"rt": 1050, "stimulus": "<p id='stroop-text' class='stroop-red'>BLUE</p>", "response": "r", "stimulus-type": "incongruent", "word": "blue", "color": "red", "correct_response": "r", "trial_id": "stroop-trial-1-incongruent-16", "trial_type": "html-keyboard-response", "trial_index": 98, "time_elapsed": 417967, "internal_node_id": "0.0-6.0-3.0"}}, {"uniqueid": "w55248021:a52162928", "current_trial": 99, "dateTime": 1664555268368, "trialdata": {"rt": 1148, "stimulus": "<p id='stroop-text' class='stroop-green'>RED</p>", "response": "g", "stimulus-type": "incongruent", "word": "red", "color": "green", "correct_response": "g", "trial_id": "stroop-trial-1-incongruent-6", "trial_type": "html-keyboard-response", "trial_index": 99, "time_elapsed": 419622, "internal_node_id": "0.0-6.0-4.0"}}, {"uniqueid": "w55248021:a52162928", "current_trial": 100, "dateTime": 1664555269506, "trialdata": {"rt": 633, "stimulus": "<p id='stroop-text' class='stroop-green'>YELLOW</p>", "response": "g", "stimulus-type": "incongruent", "word": "yellow", "color": "green", "correct_response": "g", "trial_id": "stroop-trial-1-incongruent-5", "trial_type": "html-keyboard-response", "trial_index": 100, "time_elapsed": 420760, "internal_node_id": "0.0-6.0-5.0"}}, {"uniqueid": "w55248021:a52162928", "current_trial": 101, "dateTime": 1664555270543, "trialdata": {"rt": 528, "stimulus": "<p id='stroop-text' class='stroop-blue'>BLUE</p>", "response": "b", "stimulus-type": "congruent", "word": "blue", "color": "blue", "correct_response": "b", "trial_id": "stroop-trial-1-congruent-18", "trial_type": "html-keyboard-response", "trial_index": 101, "time_elapsed": 421797, "internal_node_id": "0.0-6.0-6.0"}}, {"uniqueid": "w55248021:a52162928", "current_trial": 102, "dateTime": 1664555271761, "trialdata": {"rt": 708, "stimulus": "<p id='stroop-text' class='stroop-green'>BOAT</p>", "response": "g", "stimulus-type": "unrelated", "word": "BOAT", "color": "green", "correct_response": "g", "trial_id": "stroop-trial-1-unrelated-22", "trial_type": "html-keyboard-response", "trial_index": 102, "time_elapsed": 423015, "internal_node_id": "0.0-6.0-7.0"}}, {"uniqueid": "w55248021:a52162928", "current_trial": 103, "dateTime": 1664555272858, "trialdata": {"rt": 586, "stimulus": "<p id='stroop-text' class='stroop-blue'>RED</p>", "response": "b", "stimulus-type": "incongruent", "word": "red", "color": "blue", "correct_response": "b", "trial_id": "stroop-trial-1-incongruent-7", "trial_type": "html-keyboard-response", "trial_index": 103, "time_elapsed": 424112, "internal_node_id": "0.0-6.0-8.0"}}, {"uniqueid": "w55248021:a52162928", "current_trial": 104, "dateTime": 1664555274090, "trialdata": {"rt": 724, "stimulus": "<p id='stroop-text' class='stroop-green'>BRAIN</p>", "response": "g", "stimulus-type": "unrelated", "word": "BRAIN", "color": "green", "correct_response": "g", "trial_id": "stroop-trial-1-unrelated-19", "trial_type": "html-keyboard-response", "trial_index": 104, "time_elapsed": 425343, "internal_node_id": "0.0-6.0-9.0"}}, {"uniqueid": "w55248021:a52162928", "current_trial": 105, "dateTime": 1664555275735, "trialdata": {"rt": 1140, "stimulus": "<p id='stroop-text' class='stroop-green'>BLUE</p>", "response": "g", "stimulus-type": "incongruent", "word": "blue", "color": "green", "correct_response": "g", "trial_id": "stroop-trial-1-incongruent-19", "trial_type": "html-keyboard-response", "trial_index": 105, "time_elapsed": 426988, "internal_node_id": "0.0-6.0-10.0"}}, {"uniqueid": "w55248021:a52162928", "current_trial": 106, "dateTime": 1664555276908, "trialdata": {"rt": 668, "stimulus": "<p id='stroop-text' class='stroop-red'>RED</p>", "response": "r", "stimulus-type": "congruent", "word": "red", "color": "red", "correct_response": "r", "trial_id": "stroop-trial-1-congruent-30", "trial_type": "html-keyboard-response", "trial_index": 106, "time_elapsed": 428162, "internal_node_id": "0.0-6.0-11.0"}}, {"uniqueid": "w55248021:a52162928", "current_trial": 107, "dateTime": 1664555278282, "trialdata": {"rt": 862, "stimulus": "<p id='stroop-text' class='stroop-green'>RED</p>", "response": "g", "stimulus-type": "incongruent", "word": "red", "color": "green", "correct_response": "g", "trial_id": "stroop-trial-1-incongruent-14", "trial_type": "html-keyboard-response", "trial_index": 107, "time_elapsed": 429535, "internal_node_id": "0.0-6.0-12.0"}}, {"uniqueid": "w55248021:a52162928", "current_trial": 108, "dateTime": 1664555279506, "trialdata": {"rt": 718, "stimulus": "<p id='stroop-text' class='stroop-green'>BLUE</p>", "response": "g", "stimulus-type": "incongruent", "word": "blue", "color": "green", "correct_response": "g", "trial_id": "stroop-trial-1-incongruent-25", "trial_type": "html-keyboard-response", "trial_index": 108, "time_elapsed": 430760, "internal_node_id": "0.0-6.0-13.0"}}, {"uniqueid": "w55248021:a52162928", "current_trial": 109, "dateTime": 1664555280668, "trialdata": {"rt": 653, "stimulus": "<p id='stroop-text' class='stroop-blue'>BLUE</p>", "response": "b", "stimulus-type": "congruent", "word": "blue", "color": "blue", "correct_response": "b", "trial_id": "stroop-trial-1-congruent-12", "trial_type": "html-keyboard-response", "trial_index": 109, "time_elapsed": 431922, "internal_node_id": "0.0-6.0-14.0"}}, {"uniqueid": "w55248021:a52162928", "current_trial": 110, "dateTime": 1664555282076, "trialdata": {"rt": 894, "stimulus": "<p id='stroop-text' class='stroop-red'>RED</p>", "response": "r", "stimulus-type": "congruent", "word": "red", "color": "red", "correct_response": "r", "trial_id": "stroop-trial-1-congruent-16", "trial_type": "html-keyboard-response", "trial_index": 110, "time_elapsed": 433330, "internal_node_id": "0.0-6.0-15.0"}}, {"uniqueid": "w55248021:a52162928", "current_trial": 111, "dateTime": 1664555283706, "trialdata": {"rt": 1118, "stimulus": "<p id='stroop-text' class='stroop-blue'>RED</p>", "response": "b", "stimulus-type": "incongruent", "word": "red", "color": "blue", "correct_response": "b", "trial_id": "stroop-trial-1-incongruent-15", "trial_type": "html-keyboard-response", "trial_index": 111, "time_elapsed": 434960, "internal_node_id": "0.0-6.0-16.0"}}, {"uniqueid": "w55248021:a52162928", "current_trial": 112, "dateTime": 1664555284712, "trialdata": {"rt": 495, "stimulus": "<p id='stroop-text' class='stroop-blue'>BOTTLE</p>", "response": "b", "stimulus-type": "unrelated", "word": "BOTTLE", "color": "blue", "correct_response": "b", "trial_id": "stroop-trial-1-unrelated-17", "trial_type": "html-keyboard-response", "trial_index": 112, "time_elapsed": 435965, "internal_node_id": "0.0-6.0-17.0"}}, {"uniqueid": "w55248021:a52162928", "current_trial": 113, "dateTime": 1664555285946, "trialdata": {"rt": 726, "stimulus": "<p id='stroop-text' class='stroop-yellow'>SHIP</p>", "response": "y", "stimulus-type": "unrelated", "word": "SHIP", "color": "yellow", "correct_response": "y", "trial_id": "stroop-trial-1-unrelated-24", "trial_type": "html-keyboard-response", "trial_index": 113, "time_elapsed": 437199, "internal_node_id": "0.0-6.0-18.0"}}, {"uniqueid": "w55248021:a52162928", "current_trial": 114, "dateTime": 1664555287086, "trialdata": {"rt": 633, "stimulus": "<p id='stroop-text' class='stroop-red'>YELLOW</p>", "response": "r", "stimulus-type": "incongruent", "word": "yellow", "color": "red", "correct_response": "r", "trial_id": "stroop-trial-1-incongruent-17", "trial_type": "html-keyboard-response", "trial_index": 114, "time_elapsed": 438340, "internal_node_id": "0.0-6.0-19.0"}}, {"uniqueid": "w55248021:a52162928", "current_trial": 115, "dateTime": 1664555288967, "trialdata": {"rt": 1366, "stimulus": "<p id='stroop-text' class='stroop-green'>RED</p>", "response": "g", "stimulus-type": "incongruent", "word": "red", "color": "green", "correct_response": "g", "trial_id": "stroop-trial-1-incongruent-20", "trial_type": "html-keyboard-response", "trial_index": 115, "time_elapsed": 440221, "internal_node_id": "0.0-6.0-20.0"}}, {"uniqueid": "w55248021:a52162928", "current_trial": 116, "dateTime": 1664555290259, "trialdata": {"rt": 785, "stimulus": "<p id='stroop-text' class='stroop-blue'>BRIDGE</p>", "response": "b", "stimulus-type": "unrelated", "word": "BRIDGE", "color": "blue", "correct_response": "b", "trial_id": "stroop-trial-1-unrelated-9", "trial_type": "html-keyboard-response", "trial_index": 116, "time_elapsed": 441512, "internal_node_id": "0.0-6.0-21.0"}}, {"uniqueid": "w55248021:a52162928", "current_trial": 117, "dateTime": 1664555291683, "trialdata": {"rt": 912, "stimulus": "<p id='stroop-text' class='stroop-green'>RED</p>", "response": "g", "stimulus-type": "incongruent", "word": "red", "color": "green", "correct_response": "g", "trial_id": "stroop-trial-1-incongruent-18", "trial_type": "html-keyboard-response", "trial_index": 117, "time_elapsed": 442937, "internal_node_id": "0.0-6.0-22.0"}}, {"uniqueid": "w55248021:a52162928", "current_trial": 118, "dateTime": 1664555292663, "trialdata": {"rt": 466, "stimulus": "<p id='stroop-text' class='stroop-red'>RED</p>", "response": "r", "stimulus-type": "congruent", "word": "red", "color": "red", "correct_response": "r", "trial_id": "stroop-trial-1-congruent-4", "trial_type": "html-keyboard-response", "trial_index": 118, "time_elapsed": 443916, "internal_node_id": "0.0-6.0-23.0"}}, {"uniqueid": "w55248021:a52162928", "current_trial": 119, "dateTime": 1664555294350, "trialdata": {"rt": 1183, "stimulus": "<p id='stroop-text' class='stroop-green'>YELLOW</p>", "response": "g", "stimulus-type": "incongruent", "word": "yellow", "color": "green", "correct_response": "g", "trial_id": "stroop-trial-1-incongruent-30", "trial_type": "html-keyboard-response", "trial_index": 119, "time_elapsed": 445603, "internal_node_id": "0.0-6.0-24.0"}}, {"uniqueid": "w55248021:a52162928", "current_trial": 120, "dateTime": 1664555295721, "trialdata": {"rt": 859, "stimulus": "<p id='stroop-text' class='stroop-yellow'>YELLOW</p>", "response": "y", "stimulus-type": "congruent", "word": "yellow", "color": "yellow", "correct_response": "y", "trial_id": "stroop-trial-1-congruent-7", "trial_type": "html-keyboard-response", "trial_index": 120, "time_elapsed": 446974, "internal_node_id": "0.0-6.0-25.0"}}, {"uniqueid": "w55248021:a52162928", "current_trial": 121, "dateTime": 1664555297681, "trialdata": {"rt": 1450, "stimulus": "<p id='stroop-text' class='stroop-green'>RED</p>", "response": "g", "stimulus-type": "incongruent", "word": "red", "color": "green", "correct_response": "g", "trial_id": "stroop-trial-1-incongruent-10", "trial_type": "html-keyboard-response", "trial_index": 121, "time_elapsed": 448934, "internal_node_id": "0.0-6.0-26.0"}}, {"uniqueid": "w55248021:a52162928", "current_trial": 122, "dateTime": 1664555298809, "trialdata": {"rt": 611, "stimulus": "<p id='stroop-text' class='stroop-red'>RED</p>", "response": "r", "stimulus-type": "congruent", "word": "red", "color": "red", "correct_response": "r", "trial_id": "stroop-trial-1-congruent-19", "trial_type": "html-keyboard-response", "trial_index": 122, "time_elapsed": 450062, "internal_node_id": "0.0-6.0-27.0"}}, {"uniqueid": "w55248021:a52162928", "current_trial": 123, "dateTime": 1664555300306, "trialdata": {"rt": 990, "stimulus": "<p id='stroop-text' class='stroop-red'>CHAIR</p>", "response": "r", "stimulus-type": "unrelated", "word": "CHAIR", "color": "red", "correct_response": "r", "trial_id": "stroop-trial-1-unrelated-4", "trial_type": "html-keyboard-response", "trial_index": 123, "time_elapsed": 451559, "internal_node_id": "0.0-6.0-28.0"}}, {"uniqueid": "w55248021:a52162928", "current_trial": 124, "dateTime": 1664555301990, "trialdata": {"rt": 1176, "stimulus": "<p id='stroop-text' class='stroop-blue'>RED</p>", "response": "b", "stimulus-type": "incongruent", "word": "red", "color": "blue", "correct_response": "b", "trial_id": "stroop-trial-1-incongruent-4", "trial_type": "html-keyboard-response", "trial_index": 124, "time_elapsed": 453243, "internal_node_id": "0.0-6.0-29.0"}}, {"uniqueid": "w55248021:a52162928", "current_trial": 125, "dateTime": 1664555303106, "trialdata": {"rt": 609, "stimulus": "<p id='stroop-text' class='stroop-yellow'>STONE</p>", "response": "y", "stimulus-type": "unrelated", "word": "STONE", "color": "yellow", "correct_response": "y", "trial_id": "stroop-trial-1-unrelated-3", "trial_type": "html-keyboard-response", "trial_index": 125, "time_elapsed": 454359, "internal_node_id": "0.0-6.0-30.0"}}, {"uniqueid": "w55248021:a52162928", "current_trial": 126, "dateTime": 1664555304138, "trialdata": {"rt": 527, "stimulus": "<p id='stroop-text' class='stroop-yellow'>MONKEY</p>", "response": "y", "stimulus-type": "unrelated", "word": "MONKEY", "color": "yellow", "correct_response": "y", "trial_id": "stroop-trial-1-unrelated-12", "trial_type": "html-keyboard-response", "trial_index": 126, "time_elapsed": 455392, "internal_node_id": "0.0-6.0-31.0"}}, {"uniqueid": "w55248021:a52162928", "current_trial": 127, "dateTime": 1664555305377, "trialdata": {"rt": 729, "stimulus": "<p id='stroop-text' class='stroop-green'>BRIDGE</p>", "response": "g", "stimulus-type": "unrelated", "word": "BRIDGE", "color": "green", "correct_response": "g", "trial_id": "stroop-trial-1-unrelated-23", "trial_type": "html-keyboard-response", "trial_index": 127, "time_elapsed": 456630, "internal_node_id": "0.0-6.0-32.0"}}, {"uniqueid": "w55248021:a52162928", "current_trial": 128, "dateTime": 1664555306457, "trialdata": {"rt": 570, "stimulus": "<p id='stroop-text' class='stroop-red'>BLUE</p>", "response": "r", "stimulus-type": "incongruent", "word": "blue", "color": "red", "correct_response": "r", "trial_id": "stroop-trial-1-incongruent-1", "trial_type": "html-keyboard-response", "trial_index": 128, "time_elapsed": 457710, "internal_node_id": "0.0-6.0-33.0"}}, {"uniqueid": "w55248021:a52162928", "current_trial": 129, "dateTime": 1664555307480, "trialdata": {"rt": 516, "stimulus": "<p id='stroop-text' class='stroop-blue'>BLUE</p>", "response": "b", "stimulus-type": "congruent", "word": "blue", "color": "blue", "correct_response": "b", "trial_id": "stroop-trial-1-congruent-22", "trial_type": "html-keyboard-response", "trial_index": 129, "time_elapsed": 458734, "internal_node_id": "0.0-6.0-34.0"}}, {"uniqueid": "w55248021:a52162928", "current_trial": 130, "dateTime": 1664555308599, "trialdata": {"rt": 612, "stimulus": "<p id='stroop-text' class='stroop-red'>RED</p>", "response": "r", "stimulus-type": "congruent", "word": "red", "color": "red", "correct_response": "r", "trial_id": "stroop-trial-1-congruent-6", "trial_type": "html-keyboard-response", "trial_index": 130, "time_elapsed": 459853, "internal_node_id": "0.0-6.0-35.0"}}, {"uniqueid": "w55248021:a52162928", "current_trial": 131, "dateTime": 1664555309607, "trialdata": {"rt": 502, "stimulus": "<p id='stroop-text' class='stroop-yellow'>YELLOW</p>", "response": "y", "stimulus-type": "congruent", "word": "yellow", "color": "yellow", "correct_response": "y", "trial_id": "stroop-trial-1-congruent-10", "trial_type": "html-keyboard-response", "trial_index": 131, "time_elapsed": 460860, "internal_node_id": "0.0-6.0-36.0"}}, {"uniqueid": "w55248021:a52162928", "current_trial": 132, "dateTime": 1664555310868, "trialdata": {"rt": 754, "stimulus": "<p id='stroop-text' class='stroop-green'>BRAIN</p>", "response": "g", "stimulus-type": "unrelated", "word": "BRAIN", "color": "green", "correct_response": "g", "trial_id": "stroop-trial-1-unrelated-11", "trial_type": "html-keyboard-response", "trial_index": 132, "time_elapsed": 462121, "internal_node_id": "0.0-6.0-37.0"}}, {"uniqueid": "w55248021:a52162928", "current_trial": 133, "dateTime": 1664555312054, "trialdata": {"rt": 678, "stimulus": "<p id='stroop-text' class='stroop-yellow'>BLUE</p>", "response": "y", "stimulus-type": "incongruent", "word": "blue", "color": "yellow", "correct_response": "y", "trial_id": "stroop-trial-1-incongruent-11", "trial_type": "html-keyboard-response", "trial_index": 133, "time_elapsed": 463308, "internal_node_id": "0.0-6.0-38.0"}}, {"uniqueid": "w55248021:a52162928", "current_trial": 134, "dateTime": 1664555313392, "trialdata": {"rt": 828, "stimulus": "<p id='stroop-text' class='stroop-green'>GREEN</p>", "response": "g", "stimulus-type": "congruent", "word": "green", "color": "green", "correct_response": "g", "trial_id": "stroop-trial-1-congruent-15", "trial_type": "html-keyboard-response", "trial_index": 134, "time_elapsed": 464645, "internal_node_id": "0.0-6.0-39.0"}}, {"uniqueid": "w55248021:a52162928", "current_trial": 135, "dateTime": 1664555314714, "trialdata": {"rt": 816, "stimulus": "<p id='stroop-text' class='stroop-blue'>BLUE</p>", "response": "b", "stimulus-type": "congruent", "word": "blue", "color": "blue", "correct_response": "b", "trial_id": "stroop-trial-1-congruent-8", "trial_type": "html-keyboard-response", "trial_index": 135, "time_elapsed": 465967, "internal_node_id": "0.0-6.0-40.0"}}, {"uniqueid": "w55248021:a52162928", "current_trial": 136, "dateTime": 1664555315781, "trialdata": {"rt": 554, "stimulus": "<p id='stroop-text' class='stroop-red'>RED</p>", "response": "r", "stimulus-type": "congruent", "word": "red", "color": "red", "correct_response": "r", "trial_id": "stroop-trial-1-congruent-24", "trial_type": "html-keyboard-response", "trial_index": 136, "time_elapsed": 467034, "internal_node_id": "0.0-6.0-41.0"}}, {"uniqueid": "w55248021:a52162928", "current_trial": 137, "dateTime": 1664555316854, "trialdata": {"rt": 558, "stimulus": "<p id='stroop-text' class='stroop-blue'>BLUE</p>", "response": "b", "stimulus-type": "congruent", "word": "blue", "color": "blue", "correct_response": "b", "trial_id": "stroop-trial-1-congruent-21", "trial_type": "html-keyboard-response", "trial_index": 137, "time_elapsed": 468108, "internal_node_id": "0.0-6.0-42.0"}}, {"uniqueid": "w55248021:a52162928", "current_trial": 138, "dateTime": 1664555317789, "trialdata": {"rt": 428, "stimulus": "<p id='stroop-text' class='stroop-blue'>BLUE</p>", "response": "b", "stimulus-type": "congruent", "word": "blue", "color": "blue", "correct_response": "b", "trial_id": "stroop-trial-1-congruent-26", "trial_type": "html-keyboard-response", "trial_index": 138, "time_elapsed": 469042, "internal_node_id": "0.0-6.0-43.0"}}, {"uniqueid": "w55248021:a52162928", "current_trial": 139, "dateTime": 1664555318743, "trialdata": {"rt": 446, "stimulus": "<p id='stroop-text' class='stroop-red'>STONE</p>", "response": "r", "stimulus-type": "unrelated", "word": "STONE", "color": "red", "correct_response": "r", "trial_id": "stroop-trial-1-unrelated-2", "trial_type": "html-keyboard-response", "trial_index": 139, "time_elapsed": 469996, "internal_node_id": "0.0-6.0-44.0"}}, {"uniqueid": "w55248021:a52162928", "current_trial": 140, "dateTime": 1664555319831, "trialdata": {"rt": 577, "stimulus": "<p id='stroop-text' class='stroop-green'>GREEN</p>", "response": "g", "stimulus-type": "congruent", "word": "green", "color": "green", "correct_response": "g", "trial_id": "stroop-trial-1-congruent-2", "trial_type": "html-keyboard-response", "trial_index": 140, "time_elapsed": 471085, "internal_node_id": "0.0-6.0-45.0"}}, {"uniqueid": "w55248021:a52162928", "current_trial": 141, "dateTime": 1664555320991, "trialdata": {"rt": 652, "stimulus": "<p id='stroop-text' class='stroop-blue'>BLUE</p>", "response": "b", "stimulus-type": "congruent", "word": "blue", "color": "blue", "correct_response": "b", "trial_id": "stroop-trial-1-congruent-3", "trial_type": "html-keyboard-response", "trial_index": 141, "time_elapsed": 472244, "internal_node_id": "0.0-6.0-46.0"}}, {"uniqueid": "w55248021:a52162928", "current_trial": 142, "dateTime": 1664555322089, "trialdata": {"rt": 585, "stimulus": "<p id='stroop-text' class='stroop-red'>RED</p>", "response": "r", "stimulus-type": "congruent", "word": "red", "color": "red", "correct_response": "r", "trial_id": "stroop-trial-1-congruent-13", "trial_type": "html-keyboard-response", "trial_index": 142, "time_elapsed": 473342, "internal_node_id": "0.0-6.0-47.0"}}, {"uniqueid": "w55248021:a52162928", "current_trial": 143, "dateTime": 1664555323188, "trialdata": {"rt": 587, "stimulus": "<p id='stroop-text' class='stroop-yellow'>YELLOW</p>", "response": "y", "stimulus-type": "congruent", "word": "yellow", "color": "yellow", "correct_response": "y", "trial_id": "stroop-trial-1-congruent-9", "trial_type": "html-keyboard-response", "trial_index": 143, "time_elapsed": 474441, "internal_node_id": "0.0-6.0-48.0"}}, {"uniqueid": "w55248021:a52162928", "current_trial": 144, "dateTime": 1664555324756, "trialdata": {"rt": 1057, "stimulus": "<p id='stroop-text' class='stroop-red'>SHIP</p>", "response": "r", "stimulus-type": "unrelated", "word": "SHIP", "color": "red", "correct_response": "r", "trial_id": "stroop-trial-1-unrelated-15", "trial_type": "html-keyboard-response", "trial_index": 144, "time_elapsed": 476009, "internal_node_id": "0.0-6.0-49.0"}}, {"uniqueid": "w55248021:a52162928", "current_trial": 145, "dateTime": 1664555326443, "trialdata": {"rt": 1177, "stimulus": "<p id='stroop-text' class='stroop-green'>STONE</p>", "response": "g", "stimulus-type": "unrelated", "word": "STONE", "color": "green", "correct_response": "g", "trial_id": "stroop-trial-1-unrelated-14", "trial_type": "html-keyboard-response", "trial_index": 145, "time_elapsed": 477697, "internal_node_id": "0.0-6.0-50.0"}}, {"uniqueid": "w55248021:a52162928", "current_trial": 146, "dateTime": 1664555327633, "trialdata": {"rt": 678, "stimulus": "<p id='stroop-text' class='stroop-yellow'>BOAT</p>", "response": "b", "stimulus-type": "unrelated", "word": "BOAT", "color": "yellow", "correct_response": "y", "trial_id": "stroop-trial-1-unrelated-20", "trial_type": "html-keyboard-response", "trial_index": 146, "time_elapsed": 478885, "internal_node_id": "0.0-6.0-51.0"}}, {"uniqueid": "w55248021:a52162928", "current_trial": 147, "dateTime": 1664555329261, "trialdata": {"rt": 1115, "stimulus": "<p id='stroop-text' class='stroop-blue'>BLUE</p>", "response": "b", "stimulus-type": "congruent", "word": "blue", "color": "blue", "correct_response": "b", "trial_id": "stroop-trial-1-congruent-5", "trial_type": "html-keyboard-response", "trial_index": 147, "time_elapsed": 480514, "internal_node_id": "0.0-6.0-52.0"}}, {"uniqueid": "w55248021:a52162928", "current_trial": 148, "dateTime": 1664555332023, "trialdata": {"rt": 2244, "stimulus": "<p id='stroop-text' class='stroop-green'>DOG</p>", "response": "g", "stimulus-type": "unrelated", "word": "DOG", "color": "green", "correct_response": "g", "trial_id": "stroop-trial-1-unrelated-1", "trial_type": "html-keyboard-response", "trial_index": 148, "time_elapsed": 483277, "internal_node_id": "0.0-6.0-53.0"}}, {"uniqueid": "w55248021:a52162928", "current_trial": 149, "dateTime": 1664555333562, "trialdata": {"rt": 1026, "stimulus": "<p id='stroop-text' class='stroop-red'>YELLOW</p>", "response": "r", "stimulus-type": "incongruent", "word": "yellow", "color": "red", "correct_response": "r", "trial_id": "stroop-trial-1-incongruent-12", "trial_type": "html-keyboard-response", "trial_index": 149, "time_elapsed": 484816, "internal_node_id": "0.0-6.0-54.0"}}, {"uniqueid": "w55248021:a52162928", "current_trial": 150, "dateTime": 1664555335172, "trialdata": {"rt": 1101, "stimulus": "<p id='stroop-text' class='stroop-green'>RED</p>", "response": "g", "stimulus-type": "incongruent", "word": "red", "color": "green", "correct_response": "g", "trial_id": "stroop-trial-1-incongruent-29", "trial_type": "html-keyboard-response", "trial_index": 150, "time_elapsed": 486425, "internal_node_id": "0.0-6.0-55.0"}}, {"uniqueid": "w55248021:a52162928", "current_trial": 151, "dateTime": 1664555336492, "trialdata": {"rt": 813, "stimulus": "<p id='stroop-text' class='stroop-green'>GREEN</p>", "response": "g", "stimulus-type": "congruent", "word": "green", "color": "green", "correct_response": "g", "trial_id": "stroop-trial-1-congruent-28", "trial_type": "html-keyboard-response", "trial_index": 151, "time_elapsed": 487746, "internal_node_id": "0.0-6.0-56.0"}}, {"uniqueid": "w55248021:a52162928", "current_trial": 152, "dateTime": 1664555338302, "trialdata": {"rt": 1302, "stimulus": "<p id='stroop-text' class='stroop-blue'>RED</p>", "response": "b", "stimulus-type": "incongruent", "word": "red", "color": "blue", "correct_response": "b", "trial_id": "stroop-trial-1-incongruent-8", "trial_type": "html-keyboard-response", "trial_index": 152, "time_elapsed": 489555, "internal_node_id": "0.0-6.0-57.0"}}, {"uniqueid": "w55248021:a52162928", "current_trial": 153, "dateTime": 1664555339371, "trialdata": {"rt": 560, "stimulus": "<p id='stroop-text' class='stroop-yellow'>RED</p>", "response": "y", "stimulus-type": "incongruent", "word": "red", "color": "yellow", "correct_response": "y", "trial_id": "stroop-trial-1-incongruent-2", "trial_type": "html-keyboard-response", "trial_index": 153, "time_elapsed": 490625, "internal_node_id": "0.0-6.0-58.0"}}, {"uniqueid": "w55248021:a52162928", "current_trial": 154, "dateTime": 1664555340760, "trialdata": {"rt": 873, "stimulus": "<p id='stroop-text' class='stroop-blue'>FORK</p>", "response": "b", "stimulus-type": "unrelated", "word": "FORK", "color": "blue", "correct_response": "b", "trial_id": "stroop-trial-1-unrelated-6", "trial_type": "html-keyboard-response", "trial_index": 154, "time_elapsed": 492013, "internal_node_id": "0.0-6.0-59.0"}}, {"uniqueid": "w55248021:a52162928", "current_trial": 155, "dateTime": 1664555341767, "trialdata": {"rt": 498, "stimulus": "<p id='stroop-text' class='stroop-blue'>BLUE</p>", "response": "b", "stimulus-type": "congruent", "word": "blue", "color": "blue", "correct_response": "b", "trial_id": "stroop-trial-1-congruent-20", "trial_type": "html-keyboard-response", "trial_index": 155, "time_elapsed": 493020, "internal_node_id": "0.0-6.0-60.0"}}, {"uniqueid": "w55248021:a52162928", "current_trial": 156, "dateTime": 1664555342832, "trialdata": {"rt": 550, "stimulus": "<p id='stroop-text' class='stroop-red'>GREEN</p>", "response": "r", "stimulus-type": "incongruent", "word": "green", "color": "red", "correct_response": "r", "trial_id": "stroop-trial-1-incongruent-22", "trial_type": "html-keyboard-response", "trial_index": 156, "time_elapsed": 494086, "internal_node_id": "0.0-6.0-61.0"}}, {"uniqueid": "w55248021:a52162928", "current_trial": 157, "dateTime": 1664555343889, "trialdata": {"rt": 547, "stimulus": "<p id='stroop-text' class='stroop-red'>YELLOW</p>", "response": "r", "stimulus-type": "incongruent", "word": "yellow", "color": "red", "correct_response": "r", "trial_id": "stroop-trial-1-incongruent-13", "trial_type": "html-keyboard-response", "trial_index": 157, "time_elapsed": 495143, "internal_node_id": "0.0-6.0-62.0"}}, {"uniqueid": "w55248021:a52162928", "current_trial": 158, "dateTime": 1664555345007, "trialdata": {"rt": 609, "stimulus": "<p id='stroop-text' class='stroop-green'>BLUE</p>", "response": "g", "stimulus-type": "incongruent", "word": "blue", "color": "green", "correct_response": "g", "trial_id": "stroop-trial-1-incongruent-24", "trial_type": "html-keyboard-response", "trial_index": 158, "time_elapsed": 496261, "internal_node_id": "0.0-6.0-63.0"}}, {"uniqueid": "w55248021:a52162928", "current_trial": 159, "dateTime": 1664555345952, "trialdata": {"rt": 433, "stimulus": "<p id='stroop-text' class='stroop-green'>RED</p>", "response": "g", "stimulus-type": "incongruent", "word": "red", "color": "green", "correct_response": "g", "trial_id": "stroop-trial-1-incongruent-27", "trial_type": "html-keyboard-response", "trial_index": 159, "time_elapsed": 497205, "internal_node_id": "0.0-6.0-64.0"}}, {"uniqueid": "w55248021:a52162928", "current_trial": 160, "dateTime": 1664555346931, "trialdata": {"rt": 468, "stimulus": "<p id='stroop-text' class='stroop-red'>CHAIR</p>", "response": "r", "stimulus-type": "unrelated", "word": "CHAIR", "color": "red", "correct_response": "r", "trial_id": "stroop-trial-1-unrelated-26", "trial_type": "html-keyboard-response", "trial_index": 160, "time_elapsed": 498184, "internal_node_id": "0.0-6.0-65.0"}}, {"uniqueid": "w55248021:a52162928", "current_trial": 161, "dateTime": 1664555347810, "trialdata": {"rt": 368, "stimulus": "<p id='stroop-text' class='stroop-red'>YELLOW</p>", "response": "r", "stimulus-type": "incongruent", "word": "yellow", "color": "red", "correct_response": "r", "trial_id": "stroop-trial-1-incongruent-26", "trial_type": "html-keyboard-response", "trial_index": 161, "time_elapsed": 499064, "internal_node_id": "0.0-6.0-66.0"}}, {"uniqueid": "w55248021:a52162928", "current_trial": 162, "dateTime": 1664555348893, "trialdata": {"rt": 575, "stimulus": "<p id='stroop-text' class='stroop-blue'>SHIP</p>", "response": "b", "stimulus-type": "unrelated", "word": "SHIP", "color": "blue", "correct_response": "b", "trial_id": "stroop-trial-1-unrelated-8", "trial_type": "html-keyboard-response", "trial_index": 162, "time_elapsed": 500147, "internal_node_id": "0.0-6.0-67.0"}}, {"uniqueid": "w55248021:a52162928", "current_trial": 163, "dateTime": 1664555350005, "trialdata": {"rt": 602, "stimulus": "<p id='stroop-text' class='stroop-red'>RED</p>", "response": "r", "stimulus-type": "congruent", "word": "red", "color": "red", "correct_response": "r", "trial_id": "stroop-trial-1-congruent-27", "trial_type": "html-keyboard-response", "trial_index": 163, "time_elapsed": 501258, "internal_node_id": "0.0-6.0-68.0"}}, {"uniqueid": "w55248021:a52162928", "current_trial": 164, "dateTime": 1664555351070, "trialdata": {"rt": 556, "stimulus": "<p id='stroop-text' class='stroop-blue'>BLUE</p>", "response": "b", "stimulus-type": "congruent", "word": "blue", "color": "blue", "correct_response": "b", "trial_id": "stroop-trial-1-congruent-11", "trial_type": "html-keyboard-response", "trial_index": 164, "time_elapsed": 502324, "internal_node_id": "0.0-6.0-69.0"}}, {"uniqueid": "w55248021:a52162928", "current_trial": 165, "dateTime": 1664555352134, "trialdata": {"rt": 556, "stimulus": "<p id='stroop-text' class='stroop-yellow'>FORK</p>", "response": "y", "stimulus-type": "unrelated", "word": "FORK", "color": "yellow", "correct_response": "y", "trial_id": "stroop-trial-1-unrelated-5", "trial_type": "html-keyboard-response", "trial_index": 165, "time_elapsed": 503387, "internal_node_id": "0.0-6.0-70.0"}}, {"uniqueid": "w55248021:a52162928", "current_trial": 166, "dateTime": 1664555353140, "trialdata": {"rt": 497, "stimulus": "<p id='stroop-text' class='stroop-green'>STONE</p>", "response": "g", "stimulus-type": "unrelated", "word": "STONE", "color": "green", "correct_response": "g", "trial_id": "stroop-trial-1-unrelated-10", "trial_type": "html-keyboard-response", "trial_index": 166, "time_elapsed": 504394, "internal_node_id": "0.0-6.0-71.0"}}, {"uniqueid": "w55248021:a52162928", "current_trial": 167, "dateTime": 1664555354078, "trialdata": {"rt": 433, "stimulus": "<p id='stroop-text' class='stroop-green'>BOAT</p>", "response": "g", "stimulus-type": "unrelated", "word": "BOAT", "color": "green", "correct_response": "g", "trial_id": "stroop-trial-1-unrelated-27", "trial_type": "html-keyboard-response", "trial_index": 167, "time_elapsed": 505331, "internal_node_id": "0.0-6.0-72.0"}}, {"uniqueid": "w55248021:a52162928", "current_trial": 168, "dateTime": 1664555355026, "trialdata": {"rt": 438, "stimulus": "<p id='stroop-text' class='stroop-green'>GREEN</p>", "response": "g", "stimulus-type": "congruent", "word": "green", "color": "green", "correct_response": "g", "trial_id": "stroop-trial-1-congruent-29", "trial_type": "html-keyboard-response", "trial_index": 168, "time_elapsed": 506280, "internal_node_id": "0.0-6.0-73.0"}}, {"uniqueid": "w55248021:a52162928", "current_trial": 169, "dateTime": 1664555356064, "trialdata": {"rt": 530, "stimulus": "<p id='stroop-text' class='stroop-yellow'>CHAIR</p>", "response": "y", "stimulus-type": "unrelated", "word": "CHAIR", "color": "yellow", "correct_response": "y", "trial_id": "stroop-trial-1-unrelated-21", "trial_type": "html-keyboard-response", "trial_index": 169, "time_elapsed": 507317, "internal_node_id": "0.0-6.0-74.0"}}, {"uniqueid": "w55248021:a52162928", "current_trial": 170, "dateTime": 1664555357165, "trialdata": {"rt": 591, "stimulus": "<p id='stroop-text' class='stroop-blue'>BLUE</p>", "response": "b", "stimulus-type": "congruent", "word": "blue", "color": "blue", "correct_response": "b", "trial_id": "stroop-trial-1-congruent-1", "trial_type": "html-keyboard-response", "trial_index": 170, "time_elapsed": 508418, "internal_node_id": "0.0-6.0-75.0"}}, {"uniqueid": "w55248021:a52162928", "current_trial": 171, "dateTime": 1664555358128, "trialdata": {"rt": 452, "stimulus": "<p id='stroop-text' class='stroop-blue'>BOAT</p>", "response": "b", "stimulus-type": "unrelated", "word": "BOAT", "color": "blue", "correct_response": "b", "trial_id": "stroop-trial-1-unrelated-18", "trial_type": "html-keyboard-response", "trial_index": 171, "time_elapsed": 509381, "internal_node_id": "0.0-6.0-76.0"}}, {"uniqueid": "w55248021:a52162928", "current_trial": 172, "dateTime": 1664555359161, "trialdata": {"rt": 524, "stimulus": "<p id='stroop-text' class='stroop-red'>RED</p>", "response": "r", "stimulus-type": "congruent", "word": "red", "color": "red", "correct_response": "r", "trial_id": "stroop-trial-1-congruent-23", "trial_type": "html-keyboard-response", "trial_index": 172, "time_elapsed": 510415, "internal_node_id": "0.0-6.0-77.0"}}, {"uniqueid": "w55248021:a52162928", "current_trial": 173, "dateTime": 1664555360347, "trialdata": {"rt": 678, "stimulus": "<p id='stroop-text' class='stroop-green'>RED</p>", "response": "g", "stimulus-type": "incongruent", "word": "red", "color": "green", "correct_response": "g", "trial_id": "stroop-trial-1-incongruent-9", "trial_type": "html-keyboard-response", "trial_index": 173, "time_elapsed": 511601, "internal_node_id": "0.0-6.0-78.0"}}, {"uniqueid": "w55248021:a52162928", "current_trial": 174, "dateTime": 1664555361446, "trialdata": {"rt": 588, "stimulus": "<p id='stroop-text' class='stroop-yellow'>YELLOW</p>", "response": "y", "stimulus-type": "congruent", "word": "yellow", "color": "yellow", "correct_response": "y", "trial_id": "stroop-trial-1-congruent-25", "trial_type": "html-keyboard-response", "trial_index": 174, "time_elapsed": 512699, "internal_node_id": "0.0-6.0-79.0"}}, {"uniqueid": "w55248021:a52162928", "current_trial": 175, "dateTime": 1664555362476, "trialdata": {"rt": 523, "stimulus": "<p id='stroop-text' class='stroop-blue'>MONKEY</p>", "response": "b", "stimulus-type": "unrelated", "word": "MONKEY", "color": "blue", "correct_response": "b", "trial_id": "stroop-trial-1-unrelated-29", "trial_type": "html-keyboard-response", "trial_index": 175, "time_elapsed": 513729, "internal_node_id": "0.0-6.0-80.0"}}, {"uniqueid": "w55248021:a52162928", "current_trial": 176, "dateTime": 1664555363411, "trialdata": {"rt": 426, "stimulus": "<p id='stroop-text' class='stroop-red'>STONE</p>", "response": "r", "stimulus-type": "unrelated", "word": "STONE", "color": "red", "correct_response": "r", "trial_id": "stroop-trial-1-unrelated-13", "trial_type": "html-keyboard-response", "trial_index": 176, "time_elapsed": 514665, "internal_node_id": "0.0-6.0-81.0"}}, {"uniqueid": "w55248021:a52162928", "current_trial": 177, "dateTime": 1664555364446, "trialdata": {"rt": 528, "stimulus": "<p id='stroop-text' class='stroop-red'>WINDOW</p>", "response": "r", "stimulus-type": "unrelated", "word": "WINDOW", "color": "red", "correct_response": "r", "trial_id": "stroop-trial-1-unrelated-28", "trial_type": "html-keyboard-response", "trial_index": 177, "time_elapsed": 515700, "internal_node_id": "0.0-6.0-82.0"}}, {"uniqueid": "w55248021:a52162928", "current_trial": 178, "dateTime": 1664555365511, "trialdata": {"rt": 557, "stimulus": "<p id='stroop-text' class='stroop-yellow'>FORK</p>", "response": "y", "stimulus-type": "unrelated", "word": "FORK", "color": "yellow", "correct_response": "y", "trial_id": "stroop-trial-1-unrelated-25", "trial_type": "html-keyboard-response", "trial_index": 178, "time_elapsed": 516765, "internal_node_id": "0.0-6.0-83.0"}}, {"uniqueid": "w55248021:a52162928", "current_trial": 179, "dateTime": 1664555366565, "trialdata": {"rt": 537, "stimulus": "<p id='stroop-text' class='stroop-yellow'>RED</p>", "response": "y", "stimulus-type": "incongruent", "word": "red", "color": "yellow", "correct_response": "y", "trial_id": "stroop-trial-1-incongruent-3", "trial_type": "html-keyboard-response", "trial_index": 179, "time_elapsed": 517819, "internal_node_id": "0.0-6.0-84.0"}}, {"uniqueid": "w55248021:a52162928", "current_trial": 180, "dateTime": 1664555367710, "trialdata": {"rt": 634, "stimulus": "<p id='stroop-text' class='stroop-red'>GREEN</p>", "response": "r", "stimulus-type": "incongruent", "word": "green", "color": "red", "correct_response": "r", "trial_id": "stroop-trial-1-incongruent-23", "trial_type": "html-keyboard-response", "trial_index": 180, "time_elapsed": 518963, "internal_node_id": "0.0-6.0-85.0"}}, {"uniqueid": "w55248021:a52162928", "current_trial": 181, "dateTime": 1664555368621, "trialdata": {"rt": 401, "stimulus": "<p id='stroop-text' class='stroop-red'>DOG</p>", "response": "r", "stimulus-type": "unrelated", "word": "DOG", "color": "red", "correct_response": "r", "trial_id": "stroop-trial-1-unrelated-30", "trial_type": "html-keyboard-response", "trial_index": 181, "time_elapsed": 519875, "internal_node_id": "0.0-6.0-86.0"}}, {"uniqueid": "w55248021:a52162928", "current_trial": 182, "dateTime": 1664555369666, "trialdata": {"rt": 536, "stimulus": "<p id='stroop-text' class='stroop-yellow'>YELLOW</p>", "response": "y", "stimulus-type": "congruent", "word": "yellow", "color": "yellow", "correct_response": "y", "trial_id": "stroop-trial-1-congruent-17", "trial_type": "html-keyboard-response", "trial_index": 182, "time_elapsed": 520919, "internal_node_id": "0.0-6.0-87.0"}}, {"uniqueid": "w55248021:a52162928", "current_trial": 183, "dateTime": 1664555370795, "trialdata": {"rt": 618, "stimulus": "<p id='stroop-text' class='stroop-green'>STONE</p>", "response": "g", "stimulus-type": "unrelated", "word": "STONE", "color": "green", "correct_response": "g", "trial_id": "stroop-trial-1-unrelated-7", "trial_type": "html-keyboard-response", "trial_index": 183, "time_elapsed": 522048, "internal_node_id": "0.0-6.0-88.0"}}, {"uniqueid": "w55248021:a52162928", "current_trial": 184, "dateTime": 1664555372592, "trialdata": {"rt": 1284, "stimulus": "<p id='stroop-text' class='stroop-red'>CHAIR</p>", "response": "r", "stimulus-type": "unrelated", "word": "CHAIR", "color": "red", "correct_response": "r", "trial_id": "stroop-trial-1-unrelated-16", "trial_type": "html-keyboard-response", "trial_index": 184, "time_elapsed": 523845, "internal_node_id": "0.0-6.0-89.0"}}, {"uniqueid": "w55248021:a52162928", "current_trial": 185, "dateTime": 1664555375934, "trialdata": {"rt": 2834, "stimulus": "  <h1> End of block! </h1>\n\n  You have reached the end of the block 2/5. If you need a short break, feel free to take one now before moving on.\n\n  <br><br>\n  In the next block, you will complete another 90 rounds of this game.\n\n  <br><br>\n  <div style='text-align: center;'>Press <code>space</code> to begin.</div>\n  <br><br>\n<div style='text-align: center;'>(If the experiment doesn't continue, try clicking on the text and then pressing <code>space</code>.)</div>", "response": " ", "trial_id": "stroop_1_ready_3", "trial_type": "html-keyboard-response", "trial_index": 185, "time_elapsed": 527188, "internal_node_id": "0.0-7.0"}}, {"uniqueid": "w55248021:a52162928", "current_trial": 186, "dateTime": 1664555377590, "trialdata": {"rt": 1648, "stimulus": "<p id='stroop-text' class='stroop-green'>RED</p>", "response": "g", "stimulus-type": "incongruent", "word": "red", "color": "green", "correct_response": "g", "trial_id": "stroop-trial-1-incongruent-3", "trial_type": "html-keyboard-response", "trial_index": 186, "time_elapsed": 528843, "internal_node_id": "0.0-8.0-0.0"}}, {"uniqueid": "w55248021:a52162928", "current_trial": 187, "dateTime": 1664555378782, "trialdata": {"rt": 680, "stimulus": "<p id='stroop-text' class='stroop-blue'>GREEN</p>", "response": "b", "stimulus-type": "incongruent", "word": "green", "color": "blue", "correct_response": "b", "trial_id": "stroop-trial-1-incongruent-26", "trial_type": "html-keyboard-response", "trial_index": 187, "time_elapsed": 530036, "internal_node_id": "0.0-8.0-1.0"}}, {"uniqueid": "w55248021:a52162928", "current_trial": 188, "dateTime": 1664555379793, "trialdata": {"rt": 502, "stimulus": "<p id='stroop-text' class='stroop-red'>BRIDGE</p>", "response": "r", "stimulus-type": "unrelated", "word": "BRIDGE", "color": "red", "correct_response": "r", "trial_id": "stroop-trial-1-unrelated-19", "trial_type": "html-keyboard-response", "trial_index": 188, "time_elapsed": 531047, "internal_node_id": "0.0-8.0-2.0"}}, {"uniqueid": "w55248021:a52162928", "current_trial": 189, "dateTime": 1664555380818, "trialdata": {"rt": 515, "stimulus": "<p id='stroop-text' class='stroop-yellow'>GREEN</p>", "response": "y", "stimulus-type": "incongruent", "word": "green", "color": "yellow", "correct_response": "y", "trial_id": "stroop-trial-1-incongruent-17", "trial_type": "html-keyboard-response", "trial_index": 189, "time_elapsed": 532071, "internal_node_id": "0.0-8.0-3.0"}}, {"uniqueid": "w55248021:a52162928", "current_trial": 190, "dateTime": 1664555382006, "trialdata": {"rt": 675, "stimulus": "<p id='stroop-text' class='stroop-green'>RED</p>", "response": "g", "stimulus-type": "incongruent", "word": "red", "color": "green", "correct_response": "g", "trial_id": "stroop-trial-1-incongruent-2", "trial_type": "html-keyboard-response", "trial_index": 190, "time_elapsed": 533259, "internal_node_id": "0.0-8.0-4.0"}}, {"uniqueid": "w55248021:a52162928", "current_trial": 191, "dateTime": 1664555382973, "trialdata": {"rt": 458, "stimulus": "<p id='stroop-text' class='stroop-yellow'>YELLOW</p>", "response": "y", "stimulus-type": "congruent", "word": "yellow", "color": "yellow", "correct_response": "y", "trial_id": "stroop-trial-1-congruent-22", "trial_type": "html-keyboard-response", "trial_index": 191, "time_elapsed": 534226, "internal_node_id": "0.0-8.0-5.0"}}, {"uniqueid": "w55248021:a52162928", "current_trial": 192, "dateTime": 1664555384012, "trialdata": {"rt": 528, "stimulus": "<p id='stroop-text' class='stroop-green'>GREEN</p>", "response": "y", "stimulus-type": "congruent", "word": "green", "color": "green", "correct_response": "g", "trial_id": "stroop-trial-1-congruent-14", "trial_type": "html-keyboard-response", "trial_index": 192, "time_elapsed": 535266, "internal_node_id": "0.0-8.0-6.0"}}, {"uniqueid": "w55248021:a52162928", "current_trial": 193, "dateTime": 1664555386005, "trialdata": {"rt": 1482, "stimulus": "<p id='stroop-text' class='stroop-blue'>DOG</p>", "response": "b", "stimulus-type": "unrelated", "word": "DOG", "color": "blue", "correct_response": "b", "trial_id": "stroop-trial-1-unrelated-21", "trial_type": "html-keyboard-response", "trial_index": 193, "time_elapsed": 537258, "internal_node_id": "0.0-8.0-7.0"}}, {"uniqueid": "w55248021:a52162928", "current_trial": 194, "dateTime": 1664555387058, "trialdata": {"rt": 542, "stimulus": "<p id='stroop-text' class='stroop-yellow'>YELLOW</p>", "response": "y", "stimulus-type": "congruent", "word": "yellow", "color": "yellow", "correct_response": "y", "trial_id": "stroop-trial-1-congruent-10", "trial_type": "html-keyboard-response", "trial_index": 194, "time_elapsed": 538312, "internal_node_id": "0.0-8.0-8.0"}}, {"uniqueid": "w55248021:a52162928", "current_trial": 195, "dateTime": 1664555388183, "trialdata": {"rt": 619, "stimulus": "<p id='stroop-text' class='stroop-red'>MONKEY</p>", "response": "r", "stimulus-type": "unrelated", "word": "MONKEY", "color": "red", "correct_response": "r", "trial_id": "stroop-trial-1-unrelated-27", "trial_type": "html-keyboard-response", "trial_index": 195, "time_elapsed": 539437, "internal_node_id": "0.0-8.0-9.0"}}, {"uniqueid": "w55248021:a52162928", "current_trial": 196, "dateTime": 1664555389564, "trialdata": {"rt": 869, "stimulus": "<p id='stroop-text' class='stroop-green'>GREEN</p>", "response": "g", "stimulus-type": "congruent", "word": "green", "color": "green", "correct_response": "g", "trial_id": "stroop-trial-1-congruent-4", "trial_type": "html-keyboard-response", "trial_index": 196, "time_elapsed": 540817, "internal_node_id": "0.0-8.0-10.0"}}, {"uniqueid": "w55248021:a52162928", "current_trial": 197, "dateTime": 1664555390552, "trialdata": {"rt": 476, "stimulus": "<p id='stroop-text' class='stroop-green'>GREEN</p>", "response": "g", "stimulus-type": "congruent", "word": "green", "color": "green", "correct_response": "g", "trial_id": "stroop-trial-1-congruent-18", "trial_type": "html-keyboard-response", "trial_index": 197, "time_elapsed": 541806, "internal_node_id": "0.0-8.0-11.0"}}, {"uniqueid": "w55248021:a52162928", "current_trial": 198, "dateTime": 1664555392156, "trialdata": {"rt": 1092, "stimulus": "<p id='stroop-text' class='stroop-blue'>BLUE</p>", "response": "b", "stimulus-type": "congruent", "word": "blue", "color": "blue", "correct_response": "b", "trial_id": "stroop-trial-1-congruent-21", "trial_type": "html-keyboard-response", "trial_index": 198, "time_elapsed": 543409, "internal_node_id": "0.0-8.0-12.0"}}, {"uniqueid": "w55248021:a52162928", "current_trial": 199, "dateTime": 1664555393170, "trialdata": {"rt": 504, "stimulus": "<p id='stroop-text' class='stroop-blue'>BLUE</p>", "response": "b", "stimulus-type": "congruent", "word": "blue", "color": "blue", "correct_response": "b", "trial_id": "stroop-trial-1-congruent-20", "trial_type": "html-keyboard-response", "trial_index": 199, "time_elapsed": 544424, "internal_node_id": "0.0-8.0-13.0"}}, {"uniqueid": "w55248021:a52162928", "current_trial": 200, "dateTime": 1664555394422, "trialdata": {"rt": 746, "stimulus": "<p id='stroop-text' class='stroop-red'>YELLOW</p>", "response": "r", "stimulus-type": "incongruent", "word": "yellow", "color": "red", "correct_response": "r", "trial_id": "stroop-trial-1-incongruent-30", "trial_type": "html-keyboard-response", "trial_index": 200, "time_elapsed": 545675, "internal_node_id": "0.0-8.0-14.0"}}, {"uniqueid": "w55248021:a52162928", "current_trial": 201, "dateTime": 1664555395804, "trialdata": {"rt": 871, "stimulus": "<p id='stroop-text' class='stroop-green'>BLUE</p>", "response": "g", "stimulus-type": "incongruent", "word": "blue", "color": "green", "correct_response": "g", "trial_id": "stroop-trial-1-incongruent-1", "trial_type": "html-keyboard-response", "trial_index": 201, "time_elapsed": 547057, "internal_node_id": "0.0-8.0-15.0"}}, {"uniqueid": "w55248021:a52162928", "current_trial": 202, "dateTime": 1664555396812, "trialdata": {"rt": 496, "stimulus": "<p id='stroop-text' class='stroop-green'>BLUE</p>", "response": "g", "stimulus-type": "incongruent", "word": "blue", "color": "green", "correct_response": "g", "trial_id": "stroop-trial-1-incongruent-25", "trial_type": "html-keyboard-response", "trial_index": 202, "time_elapsed": 548065, "internal_node_id": "0.0-8.0-16.0"}}, {"uniqueid": "w55248021:a52162928", "current_trial": 203, "dateTime": 1664555397840, "trialdata": {"rt": 522, "stimulus": "<p id='stroop-text' class='stroop-yellow'>GREEN</p>", "response": "y", "stimulus-type": "incongruent", "word": "green", "color": "yellow", "correct_response": "y", "trial_id": "stroop-trial-1-incongruent-18", "trial_type": "html-keyboard-response", "trial_index": 203, "time_elapsed": 549093, "internal_node_id": "0.0-8.0-17.0"}}, {"uniqueid": "w55248021:a52162928", "current_trial": 204, "dateTime": 1664555399555, "trialdata": {"rt": 1204, "stimulus": "<p id='stroop-text' class='stroop-red'>BLUE</p>", "response": "r", "stimulus-type": "incongruent", "word": "blue", "color": "red", "correct_response": "r", "trial_id": "stroop-trial-1-incongruent-12", "trial_type": "html-keyboard-response", "trial_index": 204, "time_elapsed": 550809, "internal_node_id": "0.0-8.0-18.0"}}, {"uniqueid": "w55248021:a52162928", "current_trial": 205, "dateTime": 1664555400657, "trialdata": {"rt": 592, "stimulus": "<p id='stroop-text' class='stroop-green'>MONKEY</p>", "response": "b", "stimulus-type": "unrelated", "word": "MONKEY", "color": "green", "correct_response": "g", "trial_id": "stroop-trial-1-unrelated-13", "trial_type": "html-keyboard-response", "trial_index": 205, "time_elapsed": 551911, "internal_node_id": "0.0-8.0-19.0"}}, {"uniqueid": "w55248021:a52162928", "current_trial": 206, "dateTime": 1664555401963, "trialdata": {"rt": 791, "stimulus": "<p id='stroop-text' class='stroop-blue'>BLUE</p>", "response": "b", "stimulus-type": "congruent", "word": "blue", "color": "blue", "correct_response": "b", "trial_id": "stroop-trial-1-congruent-27", "trial_type": "html-keyboard-response", "trial_index": 206, "time_elapsed": 553216, "internal_node_id": "0.0-8.0-20.0"}}, {"uniqueid": "w55248021:a52162928", "current_trial": 207, "dateTime": 1664555403087, "trialdata": {"rt": 618, "stimulus": "<p id='stroop-text' class='stroop-yellow'>SHIP</p>", "response": "y", "stimulus-type": "unrelated", "word": "SHIP", "color": "yellow", "correct_response": "y", "trial_id": "stroop-trial-1-unrelated-15", "trial_type": "html-keyboard-response", "trial_index": 207, "time_elapsed": 554340, "internal_node_id": "0.0-8.0-21.0"}}, {"uniqueid": "w55248021:a52162928", "current_trial": 208, "dateTime": 1664555404703, "trialdata": {"rt": 1104, "stimulus": "<p id='stroop-text' class='stroop-red'>BRAIN</p>", "response": "r", "stimulus-type": "unrelated", "word": "BRAIN", "color": "red", "correct_response": "r", "trial_id": "stroop-trial-1-unrelated-20", "trial_type": "html-keyboard-response", "trial_index": 208, "time_elapsed": 555956, "internal_node_id": "0.0-8.0-22.0"}}, {"uniqueid": "w55248021:a52162928", "current_trial": 209, "dateTime": 1664555407547, "trialdata": {"rt": 2334, "stimulus": "<p id='stroop-text' class='stroop-green'>RED</p>", "response": "g", "stimulus-type": "incongruent", "word": "red", "color": "green", "correct_response": "g", "trial_id": "stroop-trial-1-incongruent-8", "trial_type": "html-keyboard-response", "trial_index": 209, "time_elapsed": 558800, "internal_node_id": "0.0-8.0-23.0"}}, {"uniqueid": "w55248021:a52162928", "current_trial": 210, "dateTime": 1664555408898, "trialdata": {"rt": 839, "stimulus": "<p id='stroop-text' class='stroop-blue'>DOG</p>", "response": "b", "stimulus-type": "unrelated", "word": "DOG", "color": "blue", "correct_response": "b", "trial_id": "stroop-trial-1-unrelated-16", "trial_type": "html-keyboard-response", "trial_index": 210, "time_elapsed": 560152, "internal_node_id": "0.0-8.0-24.0"}}, {"uniqueid": "w55248021:a52162928", "current_trial": 211, "dateTime": 1664555410635, "trialdata": {"rt": 1226, "stimulus": "<p id='stroop-text' class='stroop-red'>RED</p>", "response": "r", "stimulus-type": "congruent", "word": "red", "color": "red", "correct_response": "r", "trial_id": "stroop-trial-1-congruent-19", "trial_type": "html-keyboard-response", "trial_index": 211, "time_elapsed": 561889, "internal_node_id": "0.0-8.0-25.0"}}, {"uniqueid": "w55248021:a52162928", "current_trial": 212, "dateTime": 1664555411733, "trialdata": {"rt": 586, "stimulus": "<p id='stroop-text' class='stroop-red'>BOTTLE</p>", "response": "r", "stimulus-type": "unrelated", "word": "BOTTLE", "color": "red", "correct_response": "r", "trial_id": "stroop-trial-1-unrelated-7", "trial_type": "html-keyboard-response", "trial_index": 212, "time_elapsed": 562986, "internal_node_id": "0.0-8.0-26.0"}}, {"uniqueid": "w55248021:a52162928", "current_trial": 213, "dateTime": 1664555412758, "trialdata": {"rt": 517, "stimulus": "<p id='stroop-text' class='stroop-red'>DOG</p>", "response": "r", "stimulus-type": "unrelated", "word": "DOG", "color": "red", "correct_response": "r", "trial_id": "stroop-trial-1-unrelated-5", "trial_type": "html-keyboard-response", "trial_index": 213, "time_elapsed": 564011, "internal_node_id": "0.0-8.0-27.0"}}, {"uniqueid": "w55248021:a52162928", "current_trial": 214, "dateTime": 1664555414640, "trialdata": {"rt": 1374, "stimulus": "<p id='stroop-text' class='stroop-blue'>YELLOW</p>", "response": "b", "stimulus-type": "incongruent", "word": "yellow", "color": "blue", "correct_response": "b", "trial_id": "stroop-trial-1-incongruent-13", "trial_type": "html-keyboard-response", "trial_index": 214, "time_elapsed": 565894, "internal_node_id": "0.0-8.0-28.0"}}, {"uniqueid": "w55248021:a52162928", "current_trial": 215, "dateTime": 1664555416142, "trialdata": {"rt": 993, "stimulus": "<p id='stroop-text' class='stroop-red'>BLUE</p>", "response": "r", "stimulus-type": "incongruent", "word": "blue", "color": "red", "correct_response": "r", "trial_id": "stroop-trial-1-incongruent-22", "trial_type": "html-keyboard-response", "trial_index": 215, "time_elapsed": 567396, "internal_node_id": "0.0-8.0-29.0"}}, {"uniqueid": "w55248021:a52162928", "current_trial": 216, "dateTime": 1664555417598, "trialdata": {"rt": 948, "stimulus": "<p id='stroop-text' class='stroop-blue'>BLUE</p>", "response": "b", "stimulus-type": "congruent", "word": "blue", "color": "blue", "correct_response": "b", "trial_id": "stroop-trial-1-congruent-5", "trial_type": "html-keyboard-response", "trial_index": 216, "time_elapsed": 568851, "internal_node_id": "0.0-8.0-30.0"}}, {"uniqueid": "w55248021:a52162928", "current_trial": 217, "dateTime": 1664555420334, "trialdata": {"rt": 2223, "stimulus": "<p id='stroop-text' class='stroop-yellow'>YELLOW</p>", "response": "y", "stimulus-type": "congruent", "word": "yellow", "color": "yellow", "correct_response": "y", "trial_id": "stroop-trial-1-congruent-23", "trial_type": "html-keyboard-response", "trial_index": 217, "time_elapsed": 571587, "internal_node_id": "0.0-8.0-31.0"}}, {"uniqueid": "w55248021:a52162928", "current_trial": 218, "dateTime": 1664555421245, "trialdata": {"rt": 398, "stimulus": "<p id='stroop-text' class='stroop-yellow'>YELLOW</p>", "response": "y", "stimulus-type": "congruent", "word": "yellow", "color": "yellow", "correct_response": "y", "trial_id": "stroop-trial-1-congruent-1", "trial_type": "html-keyboard-response", "trial_index": 218, "time_elapsed": 572499, "internal_node_id": "0.0-8.0-32.0"}}, {"uniqueid": "w55248021:a52162928", "current_trial": 219, "dateTime": 1664555422577, "trialdata": {"rt": 822, "stimulus": "<p id='stroop-text' class='stroop-green'>FORK</p>", "response": "g", "stimulus-type": "unrelated", "word": "FORK", "color": "green", "correct_response": "g", "trial_id": "stroop-trial-1-unrelated-8", "trial_type": "html-keyboard-response", "trial_index": 219, "time_elapsed": 573830, "internal_node_id": "0.0-8.0-33.0"}}, {"uniqueid": "w55248021:a52162928", "current_trial": 220, "dateTime": 1664555423801, "trialdata": {"rt": 717, "stimulus": "<p id='stroop-text' class='stroop-yellow'>BRIDGE</p>", "response": "y", "stimulus-type": "unrelated", "word": "BRIDGE", "color": "yellow", "correct_response": "y", "trial_id": "stroop-trial-1-unrelated-2", "trial_type": "html-keyboard-response", "trial_index": 220, "time_elapsed": 575055, "internal_node_id": "0.0-8.0-34.0"}}, {"uniqueid": "w55248021:a52162928", "current_trial": 221, "dateTime": 1664555424978, "trialdata": {"rt": 661, "stimulus": "<p id='stroop-text' class='stroop-blue'>MONKEY</p>", "response": "b", "stimulus-type": "unrelated", "word": "MONKEY", "color": "blue", "correct_response": "b", "trial_id": "stroop-trial-1-unrelated-29", "trial_type": "html-keyboard-response", "trial_index": 221, "time_elapsed": 576232, "internal_node_id": "0.0-8.0-35.0"}}, {"uniqueid": "w55248021:a52162928", "current_trial": 222, "dateTime": 1664555426137, "trialdata": {"rt": 648, "stimulus": "<p id='stroop-text' class='stroop-yellow'>BLUE</p>", "response": "y", "stimulus-type": "incongruent", "word": "blue", "color": "yellow", "correct_response": "y", "trial_id": "stroop-trial-1-incongruent-27", "trial_type": "html-keyboard-response", "trial_index": 222, "time_elapsed": 577390, "internal_node_id": "0.0-8.0-36.0"}}