{"condition": 1, "counterbalance": 0, "assignmentId": "a12912973", "workerId": "w38554829", "hitId": "h47976219", "currenttrial": 137, "bonus": 0, "data": [{"uniqueid": "w38554829:a12912973", "current_trial": 0, "dateTime": 1664554921005, "trialdata": {"success": true, "trial_type": "fullscreen", "trial_index": 0, "time_elapsed": 13299, "internal_node_id": "0.0-0.0"}}, {"uniqueid": "w38554829:a12912973", "current_trial": 1, "dateTime": 1664554937370, "trialdata": {"view_history": [{"page_index": 0, "viewing_time": 16358}], "rt": 16359, "trial_id": "exp_instructions_no_distractor", "trial_type": "instructions", "trial_index": 1, "time_elapsed": 29664, "internal_node_id": "0.0-1.0"}}, {"uniqueid": "w38554829:a12912973", "current_trial": 2, "dateTime": 1664554940842, "trialdata": {"success": true, "trial_type": "fullscreen", "trial_index": 2, "time_elapsed": 33137, "internal_node_id": "0.0-2.0-0.0"}}, {"uniqueid": "w38554829:a12912973", "current_trial": 3, "dateTime": 1664555244631, "trialdata": {"view_history": [{"page_index": 0, "viewing_time": 233933}, {"page_index": 1, "viewing_time": 34353}, {"page_index": 2, "viewing_time": 11806}, {"page_index": 3, "viewing_time": 8452}, {"page_index": 4, "viewing_time": 15240}], "rt": 303785, "trial_id": "mouselab_instructions_1", "trial_type": "instructions", "trial_index": 3, "time_elapsed": 336925, "internal_node_id": "0.0-2.0-1.0"}}, {"uniqueid": "w38554829:a12912973", "current_trial": 4, "dateTime": 1664555265825, "trialdata": {"revealed_states": [], "num_clicks_accrued": [0, 0, 0, 0, 0, 0, 0, 0, 0, 0, 0, 0, 0], "stateRewards": ["", 10, 10, -10, 10, 10, -10, 10, -10, 10, 10, 10, -10], "withholdReward": false, "trial_id": "practice_1", "block": "test", "trialIndex": 0, "score": -8.25, "costs": -0.25, "simulationMode": [null, null, null], "rewards": [10, -10, -10], "path": ["0", "0", "5", "6", "8"], "rt": [4741, 878, 1398], "actions": ["right", "right", "down"], "actionTimes": [11880, 13280, 15200], "queries": {"click": {"state": {"target": ["5"], "time": [10997]}, "edge": {"target": [], "time": []}}, "mouseover": {"state": {"target": ["0", "5"], "time": [7382, 10726]}, "edge": {"target": [], "time": []}}, "mouseout": {"state": {"target": ["5", "0", "5", "0", "0", "5"], "time": [185, 1819, 4134, 6822, 7428, 11315]}, "edge": {"target": [], "time": []}}}, "displayed_time": "15.72", "trialTime": 20976, "trial_type": "mouselab-mdp", "trial_index": 4, "time_elapsed": 358120, "internal_node_id": "0.0-2.0-2.0-0.0"}}, {"uniqueid": "w38554829:a12912973", "current_trial": 5, "dateTime": 1664555273649, "trialdata": {"revealed_states": [], "num_clicks_accrued": [0, 0, 0, 0, 0, 0, 0, 0, 0, 0, 0, 0, 0], "stateRewards": ["", 10, 10, 10, -10, -10, -10, 10, 10, -10, 10, 10, -10], "withholdReward": false, "trial_id": "practice_2", "block": "test", "trialIndex": 1, "score": 12, "costs": 0, "simulationMode": [null, null, null], "rewards": [10, 10, -10], "path": ["0", "0", "1", "2", "4"], "rt": [681, 503, 193], "actions": ["up", "up", "left"], "actionTimes": [2852, 3876, 4579], "queries": {"click": {"state": {"target": [], "time": []}, "edge": {"target": [], "time": []}}, "mouseover": {"state": {"target": [], "time": []}, "edge": {"target": [], "time": []}}, "mouseout": {"state": {"target": ["0"], "time": [2381]}, "edge": {"target": [], "time": []}}}, "displayed_time": "5.09", "trialTime": 7739, "trial_type": "mouselab-mdp", "trial_index": 5, "time_elapsed": 365943, "internal_node_id": "0.0-2.0-2.0-1.0"}}, {"uniqueid": "w38554829:a12912973", "current_trial": 6, "dateTime": 1664555312191, "trialdata": {"view_history": [{"page_index": 0, "viewing_time": 15786}, {"page_index": 1, "viewing_time": 11354}, {"page_index": 2, "viewing_time": 11400}], "rt": 38540, "trial_id": "mouselab_instructions_2_scarce", "trial_type": "instructions", "trial_index": 6, "time_elapsed": 404486, "internal_node_id": "0.0-2.0-3.0"}}, {"uniqueid": "w38554829:a12912973", "current_trial": 7, "dateTime": 1664555536558, "trialdata": {"rt": 224357, "response": {"Q0": "$-48 to $48", "Q1": "The cost is always $0.25.", "Q2": "The better I perform the higher my bonus will be.", "Q3": "No, the amount of cash at each node of the web may be different each time.", "Q4": "The values of the nodes walked through from start to finish.", "Q5": "No, the spider might forget to count the money on some rounds."}, "question_order": [0, 1, 2, 3, 4, 5], "correct": {"Q0": "$-48 to $48", "Q1": "The cost is always $0.25.", "Q2": "The better I perform the higher my bonus will be.", "Q3": "No, the amount of cash at each node of the web may be different each time.", "Q4": "The values of the nodes walked through from start to finish.", "Q5": "No, the spider might forget to count the money on some rounds."}, "trial_id": "mouselab_quiz_scarce", "trial_type": "survey-multi-choice", "trial_index": 7, "time_elapsed": 628853, "internal_node_id": "0.0-2.0-4.0"}}, {"uniqueid": "w38554829:a12912973", "current_trial": 8, "dateTime": 1664555548927, "trialdata": {"rt": 12359, "stimulus": "\n<h1> Get ready to start the game! </h1>\n\nThank you for reading the instructions. Get ready start with the first of 4 block(s) of this game.\n<br><br>\nIn this first block, you will complete 30 rounds of this game before moving on.\n<br><br>\nRemember, the more money the spider gets, the bigger your bonus will be!\n<br><br>\n<div style='text-align: center;'>Press <code>space</code> to begin.</div>\n\n<br><br>\n(If, at any point, the <code>space</code> key does not take you to the next page, click once on the text and try again.)", "response": " ", "trial_id": "mdp_ready_1", "trial_type": "html-keyboard-response", "trial_index": 8, "time_elapsed": 641222, "internal_node_id": "0.0-4.0-0.0"}}, {"uniqueid": "w38554829:a12912973", "current_trial": 9, "dateTime": 1664555563863, "trialdata": {"revealed_states": [], "num_clicks_accrued": [0, 0, 0, 0, 0, 0, 0, 0, 0, 0, 0, 0, 0], "stateRewards": ["", 2, 8, 24, -48, 4, 8, 24, 24, 4, -8, 48, 48], "withholdReward": true, "trial_id": "mdp_646103824875", "block": "test1", "trialIndex": 2, "score": 41, "costs": 0, "simulationMode": [null, null, null], "rewards": [4, 8, 24], "path": ["0", "0", "5", "6", "8"], "rt": [1103, 1, 473], "actions": ["right", "right", "down"], "actionTimes": [4950, 5462, 6453], "queries": {"click": {"state": {"target": [], "time": []}, "edge": {"target": [], "time": []}}, "mouseover": {"state": {"target": [], "time": []}, "edge": {"target": [], "time": []}}, "mouseout": {"state": {"target": ["0"], "time": [7511]}, "edge": {"target": [], "time": []}}}, "displayed_time": "12.85", "trialTime": 14845, "trial_type": "mouselab-mdp", "trial_index": 9, "time_elapsed": 656158, "internal_node_id": "0.0-4.0-1.0-0.0"}}, {"uniqueid": "w38554829:a12912973", "current_trial": 10, "dateTime": 1664555577303, "trialdata": {"revealed_states": [], "num_clicks_accrued": [0, 0, 0, 0, 0, 0, 0, 0, 0, 0, 0, 0, 0], "stateRewards": ["", 4, -4, 48, -48, -4, -4, 48, -48, 4, 4, -48, -24], "withholdReward": false, "trial_id": "mdp_490058671112", "block": "test1", "trialIndex": 3, "score": -43, "costs": 0, "simulationMode": [null, null, null], "rewards": [4, -4, -48], "path": ["0", "0", "1", "2", "4"], "rt": [299, 24, 1644], "actions": ["up", "up", "left"], "actionTimes": [2306, 2851, 5019], "queries": {"click": {"state": {"target": [], "time": []}, "edge": {"target": [], "time": []}}, "mouseover": {"state": {"target": [], "time": []}, "edge": {"target": [], "time": []}}, "mouseout": {"state": {"target": ["0", "0", "0"], "time": [1866, 6066, 11817]}, "edge": {"target": [], "time": []}}}, "displayed_time": "10.01", "trialTime": 13354, "trial_type": "mouselab-mdp", "trial_index": 10, "time_elapsed": 669598, "internal_node_id": "0.0-4.0-1.0-1.0"}}, {"uniqueid": "w38554829:a12912973", "current_trial": 11, "dateTime": 1664555588407, "trialdata": {"revealed_states": [], "num_clicks_accrued": [0, 0, 0, 0, 0, 0, 0, 0, 0, 0, 0, 0, 0], "stateRewards": ["", 4, 8, -24, 48, -2, -4, 24, -24, -2, 4, 24, 24], "withholdReward": false, "trial_id": "mdp_948713805479", "block": "test1", "trialIndex": 4, "score": 31, "costs": 0, "simulationMode": [null, null, null], "rewards": [-2, 4, 24], "path": ["0", "0", "9", "10", "12"], "rt": [266, 438, 918], "actions": ["left", "left", "down"], "actionTimes": [1285, 2245, 3686], "queries": {"click": {"state": {"target": [], "time": []}, "edge": {"target": [], "time": []}}, "mouseover": {"state": {"target": [], "time": []}, "edge": {"target": [], "time": []}}, "mouseout": {"state": {"target": ["0"], "time": [2655]}, "edge": {"target": [], "time": []}}}, "displayed_time": "9.02", "trialTime": 11021, "trial_type": "mouselab-mdp", "trial_index": 11, "time_elapsed": 680702, "internal_node_id": "0.0-4.0-1.0-2.0"}}, {"uniqueid": "w38554829:a12912973", "current_trial": 12, "dateTime": 1664555599487, "trialdata": {"revealed_states": [], "num_clicks_accrued": [0, 0, 0, 0, 0, 0, 0, 0, 0, 0, 0, 0, 0], "stateRewards": ["", -4, -4, -24, 48, -4, -8, -24, 48, 2, 4, 48, 48], "withholdReward": true, "trial_id": "mdp_810954007398", "block": "test1", "trialIndex": 5, "score": 59, "costs": 0, "simulationMode": [null, null, null], "rewards": [2, 4, 48], "path": ["0", "0", "9", "10", "11"], "rt": [836, 271, 188], "actions": ["left", "left", "up"], "actionTimes": [1609, 2401, 3105], "queries": {"click": {"state": {"target": [], "time": []}, "edge": {"target": [], "time": []}}, "mouseover": {"state": {"target": [], "time": []}, "edge": {"target": [], "time": []}}, "mouseout": {"state": {"target": ["0", "0"], "time": [631, 3563]}, "edge": {"target": [], "time": []}}}, "displayed_time": "9.77", "trialTime": 10993, "trial_type": "mouselab-mdp", "trial_index": 12, "time_elapsed": 691781, "internal_node_id": "0.0-4.0-1.0-3.0"}}, {"uniqueid": "w38554829:a12912973", "current_trial": 13, "dateTime": 1664555609895, "trialdata": {"revealed_states": [], "num_clicks_accrued": [0, 0, 0, 0, 0, 0, 0, 0, 0, 0, 0, 0, 0], "stateRewards": ["", -2, -4, -48, -48, -2, -8, 48, -48, 4, -8, -48, 24], "withholdReward": false, "trial_id": "mdp_468495641521", "block": "test1", "trialIndex": 6, "score": -53, "costs": 0, "simulationMode": [null, null, null], "rewards": [-2, -8, -48], "path": ["0", "0", "5", "6", "8"], "rt": [283, 1752, 117], "actions": ["right", "right", "down"], "actionTimes": [1595, 3867, 4499], "queries": {"click": {"state": {"target": [], "time": []}, "edge": {"target": [], "time": []}}, "mouseover": {"state": {"target": ["0"], "time": [1525]}, "edge": {"target": [], "time": []}}, "mouseout": {"state": {"target": ["0", "0", "0", "5", "6", "8"], "time": [1196, 1892, 1963, 2416, 3307, 4189]}, "edge": {"target": [], "time": []}}}, "displayed_time": "9.31", "trialTime": 10315, "trial_type": "mouselab-mdp", "trial_index": 13, "time_elapsed": 702189, "internal_node_id": "0.0-4.0-1.0-4.0"}}, {"uniqueid": "w38554829:a12912973", "current_trial": 14, "dateTime": 1664555621126, "trialdata": {"revealed_states": [], "num_clicks_accrued": [0, 0, 0, 0, 0, 0, 0, 0, 0, 0, 0, 0, 0], "stateRewards": ["", 2, 8, 24, -48, 4, 8, 24, 48, 2, -8, -24, 24], "withholdReward": true, "trial_id": "mdp_939899431582", "block": "test1", "trialIndex": 7, "score": 22.75, "costs": -0.25, "simulationMode": [null, null, null], "rewards": [2, -8, 24], "path": ["0", "0", "9", "10", "12"], "rt": [1069, 1044, 380], "actions": ["left", "left", "down"], "actionTimes": [2084, 3644, 4540], "queries": {"click": {"state": {"target": ["9"], "time": [1473]}, "edge": {"target": [], "time": []}}, "mouseover": {"state": {"target": ["9"], "time": [1276]}, "edge": {"target": [], "time": []}}, "mouseout": {"state": {"target": ["0", "9", "10"], "time": [1239, 1632, 3430]}, "edge": {"target": [], "time": []}}}, "displayed_time": "10.03", "trialTime": 11148, "trial_type": "mouselab-mdp", "trial_index": 14, "time_elapsed": 713421, "internal_node_id": "0.0-4.0-1.0-5.0"}}, {"uniqueid": "w38554829:a12912973", "current_trial": 15, "dateTime": 1664555630926, "trialdata": {"revealed_states": [], "num_clicks_accrued": [0, 0, 0, 0, 0, 0, 0, 0, 0, 0, 0, 0, 0], "stateRewards": ["", -4, 8, 24, -24, 4, -8, -24, -24, -2, 8, -48, 24], "withholdReward": true, "trial_id": "mdp_240302100183", "block": "test1", "trialIndex": 8, "score": -23.25, "costs": -0.25, "simulationMode": [null, null, null], "rewards": [4, -8, -24], "path": ["0", "0", "5", "6", "8"], "rt": [839, 80, 56], "actions": ["right", "right", "down"], "actionTimes": [1610, 2210, 2786], "queries": {"click": {"state": {"target": ["5"], "time": [1151]}, "edge": {"target": [], "time": []}}, "mouseover": {"state": {"target": ["5"], "time": [1076]}, "edge": {"target": [], "time": []}}, "mouseout": {"state": {"target": ["0", "5"], "time": [916, 1454]}, "edge": {"target": [], "time": []}}}, "displayed_time": "8.77", "trialTime": 9714, "trial_type": "mouselab-mdp", "trial_index": 15, "time_elapsed": 723221, "internal_node_id": "0.0-4.0-1.0-6.0"}}, {"uniqueid": "w38554829:a12912973", "current_trial": 16, "dateTime": 1664555640694, "trialdata": {"revealed_states": [], "num_clicks_accrued": [0, 0, 0, 0, 0, 0, 0, 0, 0, 0, 0, 0, 0], "stateRewards": ["", -2, 8, 24, -48, -2, -4, 24, 48, 2, 8, -48, -48], "withholdReward": true, "trial_id": "mdp_562228697607", "block": "test1", "trialIndex": 9, "score": -33.25, "costs": -0.25, "simulationMode": [null, null, null], "rewards": [2, 8, -48], "path": ["0", "0", "9", "10", "12"], "rt": [971, 2, 344], "actions": ["left", "left", "down"], "actionTimes": [1632, 2146, 3008], "queries": {"click": {"state": {"target": ["9"], "time": [1155]}, "edge": {"target": [], "time": []}}, "mouseover": {"state": {"target": ["9"], "time": [1011]}, "edge": {"target": [], "time": []}}, "mouseout": {"state": {"target": ["0", "9"], "time": [981, 1320]}, "edge": {"target": [], "time": []}}}, "displayed_time": "8.66", "trialTime": 9680, "trial_type": "mouselab-mdp", "trial_index": 16, "time_elapsed": 732989, "internal_node_id": "0.0-4.0-1.0-7.0"}}, {"uniqueid": "w38554829:a12912973", "current_trial": 17, "dateTime": 1664555657134, "trialdata": {"revealed_states": [], "num_clicks_accrued": [0, 0, 0, 0, 0, 0, 0, 0, 0, 0, 0, 0, 0], "stateRewards": ["", 4, 4, -48, -48, 4, 4, -24, -24, -4, 8, -48, 24], "withholdReward": false, "trial_id": "mdp_669785455541", "block": "test1", "trialIndex": 10, "score": 30.25, "costs": -2.75, "simulationMode": [null, null, null], "rewards": [-4, 8, 24], "path": ["0", "0", "9", "10", "12"], "rt": [10624, 478, 205], "actions": ["left", "left", "down"], "actionTimes": [12616, 13608, 14335], "queries": {"click": {"state": {"target": ["1", "2", "4", "3", "5", "6", "7", "8", "9", "10", "12"], "time": [2518, 3030, 3715, 4644, 5434, 7521, 8168, 8990, 10126, 10471, 10984]}, "edge": {"target": [], "time": []}}, "mouseover": {"state": {"target": ["1", "2", "4", "3", "5", "0", "6", "7", "8", "0", "9", "10", "12", "11"], "time": [2309, 2861, 3568, 4471, 5253, 6469, 7329, 8058, 8790, 9826, 10018, 10341, 10684, 12155]}, "edge": {"target": [], "time": []}}, "mouseout": {"state": {"target": ["0", "0", "0", "1", "2", "4", "3", "5", "0", "5", "6", "7", "6", "8", "8", "0", "9", "10", "12", "10", "11", "10"], "time": [330, 1026, 2128, 2756, 3519, 4041, 4931, 5937, 6757, 7211, 7996, 8329, 8742, 9315, 9595, 9912, 10299, 10621, 11455, 11991, 12361, 14765]}, "edge": {"target": [], "time": []}}}, "displayed_time": "14.85", "trialTime": 16351, "trial_type": "mouselab-mdp", "trial_index": 17, "time_elapsed": 749428, "internal_node_id": "0.0-4.0-1.0-8.0"}}, {"uniqueid": "w38554829:a12912973", "current_trial": 18, "dateTime": 1664555668909, "trialdata": {"revealed_states": [], "num_clicks_accrued": [0, 0, 0, 0, 0, 0, 0, 0, 0, 0, 0, 0, 0], "stateRewards": ["", -2, -4, -24, 24, -2, 4, -24, -24, -4, 4, 24, -24], "withholdReward": true, "trial_id": "mdp_999419261719", "block": "test1", "trialIndex": 11, "score": 20.75, "costs": -2.25, "simulationMode": [null, null, null], "rewards": [-2, -4, 24], "path": ["0", "0", "1", "2", "4"], "rt": [7322, 14, 440], "actions": ["up", "up", "left"], "actionTimes": [8726, 9261, 10221], "queries": {"click": {"state": {"target": ["9", "1", "5", "6", "7", "8", "2", "3", "4"], "time": [1912, 2768, 3349, 4241, 4737, 5465, 6436, 7349, 8109]}, "edge": {"target": [], "time": []}}, "mouseover": {"state": {"target": ["9", "1", "5", "6", "7", "8", "2", "3", "4", "4"], "time": [1772, 2574, 3235, 3944, 4636, 5403, 6331, 7197, 7739, 8005]}, "edge": {"target": [], "time": []}}, "mouseout": {"state": {"target": ["0", "9", "1", "5", "6", "7", "6", "8", "5", "1", "2", "3", "2", "4", "4"], "time": [1681, 2485, 2959, 3894, 4507, 5023, 5260, 5934, 6050, 6252, 6784, 7697, 7727, 7790, 8579]}, "edge": {"target": [], "time": []}}}, "displayed_time": "10.74", "trialTime": 11693, "trial_type": "mouselab-mdp", "trial_index": 18, "time_elapsed": 761204, "internal_node_id": "0.0-4.0-1.0-9.0"}}, {"uniqueid": "w38554829:a12912973", "current_trial": 19, "dateTime": 1664555678221, "trialdata": {"revealed_states": [], "num_clicks_accrued": [0, 0, 0, 0, 0, 0, 0, 0, 0, 0, 0, 0, 0], "stateRewards": ["", 2, 8, -24, -48, 2, 4, -24, 48, 2, -8, 48, -24], "withholdReward": false, "trial_id": "mdp_791659307216", "block": "test1", "trialIndex": 12, "score": 46, "costs": -1, "simulationMode": [null, null, null], "rewards": [2, -8, 48], "path": ["0", "0", "9", "10", "11"], "rt": [2921, 2, 345], "actions": ["left", "left", "up"], "actionTimes": [3871, 4383, 5247], "queries": {"click": {"state": {"target": ["9", "10", "12", "11"], "time": [1415, 1952, 2482, 3107]}, "edge": {"target": [], "time": []}}, "mouseover": {"state": {"target": ["0", "9", "10", "12", "11"], "time": [1130, 1195, 1783, 2300, 2969]}, "edge": {"target": [], "time": []}}, "mouseout": {"state": {"target": ["0", "0", "0", "9", "10", "12", "10", "11"], "time": [575, 827, 1155, 1742, 2148, 2801, 2920, 3317]}, "edge": {"target": [], "time": []}}}, "displayed_time": "8.95", "trialTime": 9231, "trial_type": "mouselab-mdp", "trial_index": 19, "time_elapsed": 770516, "internal_node_id": "0.0-4.0-1.0-10.0"}}, {"uniqueid": "w38554829:a12912973", "current_trial": 20, "dateTime": 1664555689364, "trialdata": {"revealed_states": [], "num_clicks_accrued": [0, 0, 0, 0, 0, 0, 0, 0, 0, 0, 0, 0, 0], "stateRewards": ["", -2, 4, -24, -24, -2, 4, 48, 24, -4, -8, 24, -48], "withholdReward": false, "trial_id": "mdp_191839460481", "block": "test1", "trialIndex": 13, "score": 15.25, "costs": -1.75, "simulationMode": [null, null, null], "rewards": [-4, -8, 24], "path": ["0", "0", "9", "10", "11"], "rt": [4638, 469, 154], "actions": ["left", "left", "up"], "actionTimes": [5955, 6945, 7617], "queries": {"click": {"state": {"target": ["1", "2", "4", "3", "9", "10", "11"], "time": [1705, 2329, 2763, 3385, 4070, 4529, 4957]}, "edge": {"target": [], "time": []}}, "mouseover": {"state": {"target": ["1", "2", "4", "3", "9", "10", "11"], "time": [1534, 2222, 2632, 3272, 3938, 4380, 4842]}, "edge": {"target": [], "time": []}}, "mouseout": {"state": {"target": ["0", "1", "2", "4", "2", "3", "1", "9", "10", "11", "10"], "time": [927, 2121, 2586, 3106, 3216, 3568, 3750, 4336, 4764, 5188, 5717]}, "edge": {"target": [], "time": []}}}, "displayed_time": "10.32", "trialTime": 11064, "trial_type": "mouselab-mdp", "trial_index": 20, "time_elapsed": 781659, "internal_node_id": "0.0-4.0-1.0-11.0"}}, {"uniqueid": "w38554829:a12912973", "current_trial": 21, "dateTime": 1664555699669, "trialdata": {"revealed_states": [], "num_clicks_accrued": [0, 0, 0, 0, 0, 0, 0, 0, 0, 0, 0, 0, 0], "stateRewards": ["", -4, -8, 24, -48, 2, 4, -48, -48, 2, -8, 24, 48], "withholdReward": true, "trial_id": "mdp_111262146724", "block": "test1", "trialIndex": 14, "score": 46.25, "costs": -0.75, "simulationMode": [null, null, null], "rewards": [2, -8, 48], "path": ["0", "0", "9", "10", "12"], "rt": [2881, 55, 153], "actions": ["left", "left", "down"], "actionTimes": [3684, 4260, 4932], "queries": {"click": {"state": {"target": ["9", "10", "12"], "time": [2049, 2518, 2976]}, "edge": {"target": [], "time": []}}, "mouseover": {"state": {"target": ["9", "0", "9", "10", "12"], "time": [1071, 1797, 1861, 2422, 2833]}, "edge": {"target": [], "time": []}}, "mouseout": {"state": {"target": ["0", "9", "0", "9", "10", "12", "10", "10"], "time": [1033, 1503, 1826, 2358, 2756, 3257, 5103, 5122]}, "edge": {"target": [], "time": []}}}, "displayed_time": "8.80", "trialTime": 10228, "trial_type": "mouselab-mdp", "trial_index": 21, "time_elapsed": 791964, "internal_node_id": "0.0-4.0-1.0-12.0"}}, {"uniqueid": "w38554829:a12912973", "current_trial": 22, "dateTime": 1664555708861, "trialdata": {"revealed_states": [], "num_clicks_accrued": [0, 0, 0, 0, 0, 0, 0, 0, 0, 0, 0, 0, 0], "stateRewards": ["", -4, -8, 24, 48, 2, -4, -24, 24, -4, 8, 48, 48], "withholdReward": true, "trial_id": "mdp_496672670022", "block": "test1", "trialIndex": 15, "score": 26, "costs": -1, "simulationMode": [null, null, null], "rewards": [2, -4, 24], "path": ["0", "0", "5", "6", "8"], "rt": [2546, 379, 253], "actions": ["right", "right", "down"], "actionTimes": [3145, 4041, 4809], "queries": {"click": {"state": {"target": ["5", "6", "8", "7"], "time": [943, 1439, 1789, 2651]}, "edge": {"target": [], "time": []}}, "mouseover": {"state": {"target": ["5", "6", "8", "7"], "time": [861, 1287, 1668, 2499]}, "edge": {"target": [], "time": []}}, "mouseout": {"state": {"target": ["0", "5", "6", "8", "6", "7", "6", "8"], "time": [392, 1246, 1588, 2246, 2324, 2917, 3552, 4436]}, "edge": {"target": [], "time": []}}}, "displayed_time": "8.60", "trialTime": 9112, "trial_type": "mouselab-mdp", "trial_index": 22, "time_elapsed": 801155, "internal_node_id": "0.0-4.0-1.0-13.0"}}, {"uniqueid": "w38554829:a12912973", "current_trial": 23, "dateTime": 1664555719237, "trialdata": {"revealed_states": [], "num_clicks_accrued": [0, 0, 0, 0, 0, 0, 0, 0, 0, 0, 0, 0, 0], "stateRewards": ["", -4, -8, -24, 24, 2, 8, 24, 48, 2, 4, 24, -48], "withholdReward": true, "trial_id": "mdp_122352383932", "block": "test1", "trialIndex": 16, "score": 34, "costs": -1, "simulationMode": [null, null, null], "rewards": [2, 4, 24], "path": ["0", "0", "9", "10", "11"], "rt": [2664, 86, 74], "actions": ["left", "left", "up"], "actionTimes": [3496, 4103, 4679], "queries": {"click": {"state": {"target": ["9", "10", "12", "11"], "time": [1157, 1605, 1965, 2827]}, "edge": {"target": [], "time": []}}, "mouseover": {"state": {"target": ["9", "10", "12", "11"], "time": [1059, 1462, 1832, 2698]}, "edge": {"target": [], "time": []}}, "mouseout": {"state": {"target": ["0", "9", "10", "12", "10", "11", "9", "9"], "time": [966, 1408, 1749, 2444, 2518, 3164, 4087, 4128]}, "edge": {"target": [], "time": []}}}, "displayed_time": "9.83", "trialTime": 10295, "trial_type": "mouselab-mdp", "trial_index": 23, "time_elapsed": 811532, "internal_node_id": "0.0-4.0-1.0-14.0"}}, {"uniqueid": "w38554829:a12912973", "current_trial": 24, "dateTime": 1664555727884, "trialdata": {"revealed_states": [], "num_clicks_accrued": [0, 0, 0, 0, 0, 0, 0, 0, 0, 0, 0, 0, 0], "stateRewards": ["", 2, -8, 48, -24, -4, -8, -24, 48, -2, 4, 24, -48], "withholdReward": true, "trial_id": "mdp_186932504904", "block": "test1", "trialIndex": 17, "score": 46, "costs": -1, "simulationMode": [null, null, null], "rewards": [2, -8, 48], "path": ["0", "0", "1", "2", "3"], "rt": [2419, 471, 188], "actions": ["up", "up", "right"], "actionTimes": [3233, 4217, 4921], "queries": {"click": {"state": {"target": ["1", "2", "4", "3"], "time": [1039, 1577, 2009, 2667]}, "edge": {"target": [], "time": []}}, "mouseover": {"state": {"target": ["1", "2", "4", "3"], "time": [945, 1524, 1846, 2533]}, "edge": {"target": [], "time": []}}, "mouseout": {"state": {"target": ["0", "1", "2", "4", "2", "3"], "time": [652, 1458, 1766, 2399, 2461, 3003]}, "edge": {"target": [], "time": []}}}, "displayed_time": "7.81", "trialTime": 8560, "trial_type": "mouselab-mdp", "trial_index": 24, "time_elapsed": 820179, "internal_node_id": "0.0-4.0-1.0-15.0"}}, {"uniqueid": "w38554829:a12912973", "current_trial": 25, "dateTime": 1664555737973, "trialdata": {"revealed_states": [], "num_clicks_accrued": [0, 0, 0, 0, 0, 0, 0, 0, 0, 0, 0, 0, 0], "stateRewards": ["", 2, 8, 48, 24, -4, 4, -48, 24, 2, 8, 48, 48], "withholdReward": true, "trial_id": "mdp_367344599162", "block": "test1", "trialIndex": 18, "score": 62.25, "costs": -0.75, "simulationMode": [null, null, null], "rewards": [2, 8, 48], "path": ["0", "0", "9", "10", "12"], "rt": [2346, 2, 534], "actions": ["left", "left", "down"], "actionTimes": [3049, 3564, 4617], "queries": {"click": {"state": {"target": ["9", "10", "12"], "time": [1674, 2237, 2625]}, "edge": {"target": [], "time": []}}, "mouseover": {"state": {"target": ["9", "9", "10", "12"], "time": [948, 1572, 2122, 2505]}, "edge": {"target": [], "time": []}}, "mouseout": {"state": {"target": ["0", "9", "9", "10", "12"], "time": [895, 1339, 2060, 2418, 2824]}, "edge": {"target": [], "time": []}}}, "displayed_time": "9.71", "trialTime": 10009, "trial_type": "mouselab-mdp", "trial_index": 25, "time_elapsed": 830268, "internal_node_id": "0.0-4.0-1.0-16.0"}}, {"uniqueid": "w38554829:a12912973", "current_trial": 26, "dateTime": 1664555747101, "trialdata": {"revealed_states": [], "num_clicks_accrued": [0, 0, 0, 0, 0, 0, 0, 0, 0, 0, 0, 0, 0], "stateRewards": ["", -2, 8, 48, 24, 2, -4, 48, -48, 2, 8, 24, -24], "withholdReward": true, "trial_id": "mdp_176207245985", "block": "test1", "trialIndex": 19, "score": 50, "costs": -1, "simulationMode": [null, null, null], "rewards": [2, -4, 48], "path": ["0", "0", "5", "6", "7"], "rt": [2884, 46, 450], "actions": ["right", "right", "up"], "actionTimes": [3393, 3960, 4920], "queries": {"click": {"state": {"target": ["5", "6", "8", "7"], "time": [844, 1478, 1929, 2669]}, "edge": {"target": [], "time": []}}, "mouseover": {"state": {"target": ["5", "6", "8", "7"], "time": [807, 1352, 1824, 2514]}, "edge": {"target": [], "time": []}}, "mouseout": {"state": {"target": ["0", "5", "6", "8", "6", "7", "6", "8"], "time": [586, 1250, 1708, 2300, 2430, 3728, 3859, 3928]}, "edge": {"target": [], "time": []}}}, "displayed_time": "8.51", "trialTime": 9040, "trial_type": "mouselab-mdp", "trial_index": 26, "time_elapsed": 839396, "internal_node_id": "0.0-4.0-1.0-17.0"}}, {"uniqueid": "w38554829:a12912973", "current_trial": 27, "dateTime": 1664555757412, "trialdata": {"revealed_states": [], "num_clicks_accrued": [0, 0, 0, 0, 0, 0, 0, 0, 0, 0, 0, 0, 0], "stateRewards": ["", 2, 4, -48, -24, -4, 4, -24, 24, -2, -8, -24, 24], "withholdReward": false, "trial_id": "mdp_640720803523", "block": "test1", "trialIndex": 20, "score": 26.25, "costs": -2.75, "simulationMode": [null, null, null], "rewards": [-4, 4, 24], "path": ["0", "0", "5", "6", "8"], "rt": [6448, 16, 91], "actions": ["right", "right", "down"], "actionTimes": [7002, 7537, 8145], "queries": {"click": {"state": {"target": ["9", "10", "11", "1", "2", "4", "3", "5", "6", "7", "8"], "time": [852, 1265, 1623, 2238, 2752, 3372, 3930, 4497, 5219, 5755, 6422]}, "edge": {"target": [], "time": []}}, "mouseover": {"state": {"target": ["9", "10", "11", "1", "2", "4", "3", "5", "6", "7", "8"], "time": [769, 1146, 1537, 2131, 2685, 3231, 3784, 4349, 5091, 5654, 6290]}, "edge": {"target": [], "time": []}}, "mouseout": {"state": {"target": ["0", "9", "10", "11", "1", "2", "4", "2", "3", "5", "6", "7", "6", "8"], "time": [451, 1121, 1489, 1823, 2562, 3191, 3695, 3762, 4134, 5037, 5581, 5981, 6207, 7656]}, "edge": {"target": [], "time": []}}}, "displayed_time": "9.55", "trialTime": 10225, "trial_type": "mouselab-mdp", "trial_index": 27, "time_elapsed": 849707, "internal_node_id": "0.0-4.0-1.0-18.0"}}, {"uniqueid": "w38554829:a12912973", "current_trial": 28, "dateTime": 1664555767749, "trialdata": {"revealed_states": [], "num_clicks_accrued": [0, 0, 0, 0, 0, 0, 0, 0, 0, 0, 0, 0, 0], "stateRewards": ["", 2, -4, 24, -24, 2, -8, 48, 48, 4, -4, 24, 48], "withholdReward": true, "trial_id": "mdp_947836623875", "block": "test1", "trialIndex": 21, "score": 52.25, "costs": -0.75, "simulationMode": [null, null, null], "rewards": [4, -4, 48], "path": ["0", "0", "9", "10", "12"], "rt": [1941, 92, 334], "actions": ["left", "left", "down"], "actionTimes": [2575, 3183, 4039], "queries": {"click": {"state": {"target": ["9", "10", "12"], "time": [1079, 1487, 1859]}, "edge": {"target": [], "time": []}}, "mouseover": {"state": {"target": ["9", "10", "12"], "time": [1000, 1387, 1752]}, "edge": {"target": [], "time": []}}, "mouseout": {"state": {"target": ["0", "9", "10", "12"], "time": [946, 1344, 1679, 2083]}, "edge": {"target": [], "time": []}}}, "displayed_time": "9.63", "trialTime": 10263, "trial_type": "mouselab-mdp", "trial_index": 28, "time_elapsed": 860044, "internal_node_id": "0.0-4.0-1.0-19.0"}}, {"uniqueid": "w38554829:a12912973", "current_trial": 29, "dateTime": 1664555778413, "trialdata": {"revealed_states": [], "num_clicks_accrued": [0, 0, 0, 0, 0, 0, 0, 0, 0, 0, 0, 0, 0], "stateRewards": ["", -4, 4, -48, -48, -2, -8, -48, -24, 4, 8, -24, 24], "withholdReward": true, "trial_id": "mdp_449260894259", "block": "test1", "trialIndex": 22, "score": 40.25, "costs": -0.75, "simulationMode": [null, null, null], "rewards": [4, 8, 24], "path": ["0", "0", "9", "10", "12"], "rt": [2102, 317, 226], "actions": ["left", "left", "down"], "actionTimes": [2980, 3812, 4548], "queries": {"click": {"state": {"target": ["9", "10", "12"], "time": [1202, 2148, 2506]}, "edge": {"target": [], "time": []}}, "mouseover": {"state": {"target": ["9", "12", "10", "12"], "time": [1062, 1912, 2050, 2390]}, "edge": {"target": [], "time": []}}, "mouseout": {"state": {"target": ["0", "0", "9", "12", "10", "12"], "time": [543, 1026, 1522, 2033, 2324, 2696]}, "edge": {"target": [], "time": []}}}, "displayed_time": "9.88", "trialTime": 10580, "trial_type": "mouselab-mdp", "trial_index": 29, "time_elapsed": 870708, "internal_node_id": "0.0-4.0-1.0-20.0"}}, {"uniqueid": "w38554829:a12912973", "current_trial": 30, "dateTime": 1664555789133, "trialdata": {"revealed_states": [], "num_clicks_accrued": [0, 0, 0, 0, 0, 0, 0, 0, 0, 0, 0, 0, 0], "stateRewards": ["", -2, -8, 48, 24, 2, 8, -48, 24, -4, 8, 48, 48], "withholdReward": true, "trial_id": "mdp_875436109858", "block": "test1", "trialIndex": 23, "score": 39, "costs": 0, "simulationMode": [null, null, null], "rewards": [2, 8, 24], "path": ["0", "0", "5", "6", "8"], "rt": [228, 114, 319], "actions": ["right", "right", "down"], "actionTimes": [870, 1502, 2334], "queries": {"click": {"state": {"target": [], "time": []}, "edge": {"target": [], "time": []}}, "mouseover": {"state": {"target": [], "time": []}, "edge": {"target": [], "time": []}}, "mouseout": {"state": {"target": ["0", "0"], "time": [461, 1073]}, "edge": {"target": [], "time": []}}}, "displayed_time": "9.64", "trialTime": 10629, "trial_type": "mouselab-mdp", "trial_index": 30, "time_elapsed": 881428, "internal_node_id": "0.0-4.0-1.0-21.0"}}, {"uniqueid": "w38554829:a12912973", "current_trial": 31, "dateTime": 1664555799732, "trialdata": {"revealed_states": [], "num_clicks_accrued": [0, 0, 0, 0, 0, 0, 0, 0, 0, 0, 0, 0, 0], "stateRewards": ["", -4, -8, 48, 48, -4, 4, 48, -24, 4, 8, -24, -48], "withholdReward": true, "trial_id": "mdp_142906093415", "block": "test1", "trialIndex": 24, "score": -8.75, "costs": -1.75, "simulationMode": [null, null, null], "rewards": [4, 8, -24], "path": ["0", "0", "9", "10", "11"], "rt": [4905, 847, 447], "actions": ["left", "left", "up"], "actionTimes": [5725, 7093, 8052], "queries": {"click": {"state": {"target": ["9", "10", "12", "11", "1", "2", "4"], "time": [1621, 2433, 2765, 3479, 4087, 4733, 5167]}, "edge": {"target": [], "time": []}}, "mouseover": {"state": {"target": ["9", "10", "10", "12", "11", "1", "2", "4"], "time": [1475, 1870, 2155, 2673, 3391, 3993, 4579, 5082]}, "edge": {"target": [], "time": []}}, "mouseout": {"state": {"target": ["0", "9", "10", "10", "12", "10", "11", "9", "1", "2", "4", "2", "1", "4"], "time": [943, 1836, 1952, 2601, 3004, 3347, 3653, 3895, 4513, 5011, 5365, 8418, 8657, 9598]}, "edge": {"target": [], "time": []}}}, "displayed_time": "8.82", "trialTime": 10508, "trial_type": "mouselab-mdp", "trial_index": 31, "time_elapsed": 892027, "internal_node_id": "0.0-4.0-1.0-22.0"}}, {"uniqueid": "w38554829:a12912973", "current_trial": 32, "dateTime": 1664555809821, "trialdata": {"revealed_states": [], "num_clicks_accrued": [0, 0, 0, 0, 0, 0, 0, 0, 0, 0, 0, 0, 0], "stateRewards": ["", -2, 4, 24, 48, 2, 4, -48, -48, -2, 8, 48, -24], "withholdReward": true, "trial_id": "mdp_305701202606", "block": "test1", "trialIndex": 25, "score": 54.25, "costs": -0.75, "simulationMode": [null, null, null], "rewards": [-2, 4, 48], "path": ["0", "0", "1", "2", "4"], "rt": [1994, 57, 380], "actions": ["up", "up", "left"], "actionTimes": [2720, 3296, 4192], "queries": {"click": {"state": {"target": ["1", "2", "4"], "time": [1177, 1587, 2065]}, "edge": {"target": [], "time": []}}, "mouseover": {"state": {"target": ["1", "2", "4"], "time": [1039, 1497, 1979]}, "edge": {"target": [], "time": []}}, "mouseout": {"state": {"target": ["1", "2", "4"], "time": [1452, 1883, 3581]}, "edge": {"target": [], "time": []}}}, "displayed_time": "9.73", "trialTime": 10000, "trial_type": "mouselab-mdp", "trial_index": 32, "time_elapsed": 902115, "internal_node_id": "0.0-4.0-1.0-23.0"}}, {"uniqueid": "w38554829:a12912973", "current_trial": 33, "dateTime": 1664555820348, "trialdata": {"revealed_states": [], "num_clicks_accrued": [0, 0, 0, 0, 0, 0, 0, 0, 0, 0, 0, 0, 0], "stateRewards": ["", -4, -8, -48, 48, -2, -8, -48, -24, 4, 8, 24, -48], "withholdReward": true, "trial_id": "mdp_509977295685", "block": "test1", "trialIndex": 26, "score": 40.25, "costs": -0.75, "simulationMode": [null, null, null], "rewards": [-4, -8, 48], "path": ["0", "0", "1", "2", "4"], "rt": [1646, 499, 150], "actions": ["up", "up", "left"], "actionTimes": [2653, 3670, 4341], "queries": {"click": {"state": {"target": ["1", "2", "4"], "time": [1288, 1718, 2088]}, "edge": {"target": [], "time": []}}, "mouseover": {"state": {"target": ["1", "2", "4"], "time": [1143, 1618, 1971]}, "edge": {"target": [], "time": []}}, "mouseout": {"state": {"target": ["1", "2", "4", "1", "0", "0"], "time": [1575, 1935, 2398, 3080, 4982, 9750]}, "edge": {"target": [], "time": []}}}, "displayed_time": "10.01", "trialTime": 10437, "trial_type": "mouselab-mdp", "trial_index": 33, "time_elapsed": 912643, "internal_node_id": "0.0-4.0-1.0-24.0"}}, {"uniqueid": "w38554829:a12912973", "current_trial": 34, "dateTime": 1664555831011, "trialdata": {"revealed_states": [], "num_clicks_accrued": [0, 0, 0, 0, 0, 0, 0, 0, 0, 0, 0, 0, 0], "stateRewards": ["", 2, -4, 48, -24, 4, -8, -24, 48, -2, -4, 24, -48], "withholdReward": true, "trial_id": "mdp_357328205509", "block": "test1", "trialIndex": 27, "score": 49, "costs": -2, "simulationMode": [null, null, null], "rewards": [2, -4, 48], "path": ["0", "0", "1", "2", "3"], "rt": [5213, 97, 315], "actions": ["up", "up", "right"], "actionTimes": [6039, 6646, 7478], "queries": {"click": {"state": {"target": ["9", "10", "12", "11", "1", "2", "4", "3"], "time": [1211, 1701, 2109, 2739, 3957, 4416, 4915, 5466]}, "edge": {"target": [], "time": []}}, "mouseover": {"state": {"target": ["9", "10", "12", "11", "0", "1", "2", "4", "3"], "time": [1130, 1582, 1992, 2592, 3238, 3430, 4289, 4787, 5366]}, "edge": {"target": [], "time": []}}, "mouseout": {"state": {"target": ["0", "9", "10", "12", "10", "11", "9", "0", "1", "2", "4", "2", "3"], "time": [635, 1522, 1948, 2472, 2556, 3020, 3195, 3357, 4215, 4740, 5138, 5296, 5653]}, "edge": {"target": [], "time": []}}}, "displayed_time": "9.83", "trialTime": 10574, "trial_type": "mouselab-mdp", "trial_index": 34, "time_elapsed": 923306, "internal_node_id": "0.0-4.0-1.0-25.0"}}, {"uniqueid": "w38554829:a12912973", "current_trial": 35, "dateTime": 1664555842404, "trialdata": {"revealed_states": [], "num_clicks_accrued": [0, 0, 0, 0, 0, 0, 0, 0, 0, 0, 0, 0, 0], "stateRewards": ["", -2, -8, 24, -24, 4, -8, 48, 48, -4, -8, -24, -48], "withholdReward": false, "trial_id": "mdp_286767261523", "block": "test1", "trialIndex": 28, "score": 48.25, "costs": -0.75, "simulationMode": [null, null, null], "rewards": [4, -8, 48], "path": ["0", "0", "5", "6", "8"], "rt": [1775, 316, 441], "actions": ["right", "right", "down"], "actionTimes": [2400, 3231, 4183], "queries": {"click": {"state": {"target": ["5", "6", "8"], "time": [838, 1242, 1881]}, "edge": {"target": [], "time": []}}, "mouseover": {"state": {"target": ["5", "6", "8"], "time": [765, 1165, 1728]}, "edge": {"target": [], "time": []}}, "mouseout": {"state": {"target": ["5", "6", "8", "8"], "time": [1124, 1455, 2230, 3371]}, "edge": {"target": [], "time": []}}}, "displayed_time": "10.63", "trialTime": 11303, "trial_type": "mouselab-mdp", "trial_index": 35, "time_elapsed": 934699, "internal_node_id": "0.0-4.0-1.0-26.0"}}, {"uniqueid": "w38554829:a12912973", "current_trial": 36, "dateTime": 1664555852107, "trialdata": {"revealed_states": [], "num_clicks_accrued": [0, 0, 0, 0, 0, 0, 0, 0, 0, 0, 0, 0, 0], "stateRewards": ["", 2, -8, -48, 24, 4, 8, 48, -48, 2, -4, 24, 24], "withholdReward": true, "trial_id": "mdp_130475327289", "block": "test1", "trialIndex": 29, "score": 21.25, "costs": -1.75, "simulationMode": [null, null, null], "rewards": [2, -8, 24], "path": ["0", "0", "1", "2", "4"], "rt": [4558, 374, 184], "actions": ["up", "up", "left"], "actionTimes": [5200, 6095, 6799], "queries": {"click": {"state": {"target": ["1", "2", "4", "3", "5", "6", "7"], "time": [972, 1514, 2304, 3080, 3843, 4279, 4695]}, "edge": {"target": [], "time": []}}, "mouseover": {"state": {"target": ["1", "2", "4", "3", "5", "5", "6", "7"], "time": [880, 1408, 2196, 2899, 3453, 3741, 4142, 4616]}, "edge": {"target": [], "time": []}}, "mouseout": {"state": {"target": ["0", "1", "2", "4", "2", "3", "5", "5", "6", "7"], "time": [522, 1349, 1802, 2498, 2611, 3355, 3482, 4078, 4572, 4878]}, "edge": {"target": [], "time": []}}}, "displayed_time": "8.64", "trialTime": 9606, "trial_type": "mouselab-mdp", "trial_index": 36, "time_elapsed": 944402, "internal_node_id": "0.0-4.0-1.0-27.0"}}, {"uniqueid": "w38554829:a12912973", "current_trial": 37, "dateTime": 1664555862732, "trialdata": {"revealed_states": [], "num_clicks_accrued": [0, 0, 0, 0, 0, 0, 0, 0, 0, 0, 0, 0, 0], "stateRewards": ["", 2, 4, -24, -48, 4, -4, 24, 48, -4, -4, -24, 48], "withholdReward": true, "trial_id": "mdp_181958792175", "block": "test1", "trialIndex": 30, "score": 52, "costs": -1, "simulationMode": [null, null, null], "rewards": [4, -4, 48], "path": ["0", "0", "5", "6", "8"], "rt": [2777, 64, 86], "actions": ["right", "right", "down"], "actionTimes": [3860, 4436, 5044], "queries": {"click": {"state": {"target": ["5", "6", "7", "8"], "time": [1430, 1870, 2326, 2978]}, "edge": {"target": [], "time": []}}, "mouseover": {"state": {"target": ["5", "6", "7", "8"], "time": [1313, 1782, 2223, 2881]}, "edge": {"target": [], "time": []}}, "mouseout": {"state": {"target": ["6", "5", "0", "5", "6", "7", "6", "8"], "time": [196, 798, 1239, 1715, 2191, 2512, 2722, 3496]}, "edge": {"target": [], "time": []}}}, "displayed_time": "10.08", "trialTime": 10531, "trial_type": "mouselab-mdp", "trial_index": 37, "time_elapsed": 955026, "internal_node_id": "0.0-4.0-1.0-28.0"}}, {"uniqueid": "w38554829:a12912973", "current_trial": 38, "dateTime": 1664555873715, "trialdata": {"revealed_states": [], "num_clicks_accrued": [0, 0, 0, 0, 0, 0, 0, 0, 0, 0, 0, 0, 0], "stateRewards": ["", -4, -4, -24, 24, 4, 4, -24, -24, -4, 4, 24, 24], "withholdReward": true, "trial_id": "mdp_787781487383", "block": "test1", "trialIndex": 31, "score": 26, "costs": -3, "simulationMode": [null, null, null], "rewards": [-4, 4, 24], "path": ["0", "0", "9", "10", "12"], "rt": [6439, 385, 398], "actions": ["left", "left", "down"], "actionTimes": [7031, 7926, 8846], "queries": {"click": {"state": {"target": ["5", "6", "7", "8", "1", "2", "4", "3", "9", "10", "11", "12"], "time": [924, 1318, 1744, 2318, 3078, 3379, 3794, 4390, 5134, 5564, 5962, 6478]}, "edge": {"target": [], "time": []}}, "mouseover": {"state": {"target": ["5", "6", "7", "8", "1", "2", "4", "3", "9", "10", "11", "12"], "time": [773, 1225, 1686, 2192, 2956, 3291, 3683, 4295, 4954, 5436, 5901, 6357]}, "edge": {"target": [], "time": []}}, "mouseout": {"state": {"target": ["0", "5", "6", "7", "6", "8", "5", "1", "2", "4", "2", "3", "1", "9", "10", "11", "10", "12"], "time": [671, 1186, 1648, 2013, 2142, 2770, 2827, 3245, 3550, 4014, 4072, 4564, 4783, 5369, 5809, 6098, 6255, 8280]}, "edge": {"target": [], "time": []}}}, "displayed_time": "9.38", "trialTime": 10893, "trial_type": "mouselab-mdp", "trial_index": 38, "time_elapsed": 966010, "internal_node_id": "0.0-4.0-1.0-29.0"}}, {"uniqueid": "w38554829:a12912973", "current_trial": 39, "dateTime": 1664555877923, "trialdata": {"rt": 4204, "stimulus": "<h1> End of block! </h1>\n\nYou have reached the end of the block 1/4. If you need a short break, feel free to take one now before moving on.\n\n<br><br>\nIn the next block, you will complete another 30 rounds of this game.\n\n<br><br>\n<div style='text-align: center;'>Press <code>space</code> to begin.</div>\n<br><br>\n<div style='text-align: center;'>(If the experiment doesn't continue, try clicking on the text and then pressing <code>space</code>.)</div>", "response": " ", "trial_id": "mdp_ready_2", "trial_type": "html-keyboard-response", "trial_index": 39, "time_elapsed": 970218, "internal_node_id": "0.0-4.0-2.0"}}, {"uniqueid": "w38554829:a12912973", "current_trial": 40, "dateTime": 1664555888749, "trialdata": {"revealed_states": [], "num_clicks_accrued": [0, 0, 0, 0, 0, 0, 0, 0, 0, 0, 0, 0, 0], "stateRewards": ["", -2, -4, -24, -24, 4, 8, 24, 24, -2, 8, 48, 48], "withholdReward": true, "trial_id": "mdp_620787912291", "block": "test2", "trialIndex": 32, "score": 58.25, "costs": -0.75, "simulationMode": [null, null, null], "rewards": [-2, 8, 48], "path": ["0", "0", "9", "10", "11"], "rt": [2149, 349, 84], "actions": ["left", "left", "up"], "actionTimes": [3196, 4060, 4732], "queries": {"click": {"state": {"target": ["9", "10", "11"], "time": [1901, 2215, 2577]}, "edge": {"target": [], "time": []}}, "mouseover": {"state": {"target": ["9", "10", "11"], "time": [1777, 2120, 2511]}, "edge": {"target": [], "time": []}}, "mouseout": {"state": {"target": ["0", "0", "0", "9", "10", "11", "10"], "time": [456, 594, 1326, 2073, 2425, 2737, 4583]}, "edge": {"target": [], "time": []}}}, "displayed_time": "9.05", "trialTime": 10734, "trial_type": "mouselab-mdp", "trial_index": 40, "time_elapsed": 981044, "internal_node_id": "0.0-4.0-3.0-0.0"}}, {"uniqueid": "w38554829:a12912973", "current_trial": 41, "dateTime": 1664555898163, "trialdata": {"revealed_states": [], "num_clicks_accrued": [0, 0, 0, 0, 0, 0, 0, 0, 0, 0, 0, 0, 0], "stateRewards": ["", 4, 8, -48, 24, -2, 8, -48, -48, -4, 4, 48, -48], "withholdReward": false, "trial_id": "mdp_693807815190", "block": "test2", "trialIndex": 33, "score": 52, "costs": -1, "simulationMode": [null, null, null], "rewards": [-4, 4, 48], "path": ["0", "0", "9", "10", "11"], "rt": [3416, 86, 92], "actions": ["left", "left", "up"], "actionTimes": [4429, 5036, 5644], "queries": {"click": {"state": {"target": ["9", "10", "12", "11"], "time": [1569, 2011, 2565, 3325]}, "edge": {"target": [], "time": []}}, "mouseover": {"state": {"target": ["9", "10", "12", "11"], "time": [1446, 1881, 2394, 3160]}, "edge": {"target": [], "time": []}}, "mouseout": {"state": {"target": ["0", "9", "10", "12", "12", "10", "11", "9"], "time": [1391, 1848, 2315, 2778, 2993, 3088, 3532, 6681]}, "edge": {"target": [], "time": []}}}, "displayed_time": "9.01", "trialTime": 9316, "trial_type": "mouselab-mdp", "trial_index": 41, "time_elapsed": 990458, "internal_node_id": "0.0-4.0-3.0-1.0"}}, {"uniqueid": "w38554829:a12912973", "current_trial": 42, "dateTime": 1664555908435, "trialdata": {"revealed_states": [], "num_clicks_accrued": [0, 0, 0, 0, 0, 0, 0, 0, 0, 0, 0, 0, 0], "stateRewards": ["", -2, -8, 48, -24, 2, -4, -48, -24, -2, -4, -48, 48], "withholdReward": true, "trial_id": "mdp_143798438087", "block": "test2", "trialIndex": 34, "score": 41, "costs": -2, "simulationMode": [null, null, null], "rewards": [-2, -8, 48], "path": ["0", "0", "1", "2", "3"], "rt": [4733, 98, 52], "actions": ["up", "up", "right"], "actionTimes": [5552, 6159, 6727], "queries": {"click": {"state": {"target": ["5", "6", "8", "7", "1", "2", "4", "3"], "time": [1168, 1598, 2234, 2776, 3436, 3780, 4132, 4684]}, "edge": {"target": [], "time": []}}, "mouseover": {"state": {"target": ["5", "6", "8", "7", "1", "2", "4", "3"], "time": [1053, 1552, 2081, 2682, 3328, 3704, 4036, 4532]}, "edge": {"target": [], "time": []}}, "mouseout": {"state": {"target": ["0", "5", "6", "8", "6", "7", "1", "2", "4", "2", "3", "1", "0"], "time": [948, 1435, 1808, 2538, 2633, 3114, 3663, 3987, 4330, 4467, 4912, 4980, 7529]}, "edge": {"target": [], "time": []}}}, "displayed_time": "9.82", "trialTime": 10175, "trial_type": "mouselab-mdp", "trial_index": 42, "time_elapsed": 1000730, "internal_node_id": "0.0-4.0-3.0-2.0"}}, {"uniqueid": "w38554829:a12912973", "current_trial": 43, "dateTime": 1664555919700, "trialdata": {"revealed_states": [], "num_clicks_accrued": [0, 0, 0, 0, 0, 0, 0, 0, 0, 0, 0, 0, 0], "stateRewards": ["", 2, 8, 24, -48, 4, 8, 24, 48, 2, -8, -24, 24], "withholdReward": false, "trial_id": "mdp_939899431582", "block": "test2", "trialIndex": 35, "score": 37, "costs": -2, "simulationMode": [null, null, null], "rewards": [2, 8, 24], "path": ["0", "0", "1", "2", "3"], "rt": [4939, 545, 214], "actions": ["up", "up", "right"], "actionTimes": [5622, 6678, 7414], "queries": {"click": {"state": {"target": ["9", "10", "11", "12", "1", "2", "4", "3"], "time": [1322, 1712, 2170, 2630, 3452, 3872, 4240, 4791]}, "edge": {"target": [], "time": []}}, "mouseover": {"state": {"target": ["9", "10", "11", "12", "0", "1", "2", "4", "3", "5"], "time": [1069, 1585, 2080, 2492, 3154, 3382, 3791, 4179, 4615, 5357]}, "edge": {"target": [], "time": []}}, "mouseout": {"state": {"target": ["0", "9", "10", "11", "10", "12", "0", "1", "2", "4", "2", "3", "5"], "time": [793, 1554, 2048, 2344, 2443, 2898, 3304, 3740, 4064, 4439, 4581, 5164, 8569]}, "edge": {"target": [], "time": []}}}, "displayed_time": "10.69", "trialTime": 11174, "trial_type": "mouselab-mdp", "trial_index": 43, "time_elapsed": 1011994, "internal_node_id": "0.0-4.0-3.0-3.0"}}, {"uniqueid": "w38554829:a12912973", "current_trial": 44, "dateTime": 1664555928739, "trialdata": {"revealed_states": [], "num_clicks_accrued": [0, 0, 0, 0, 0, 0, 0, 0, 0, 0, 0, 0, 0], "stateRewards": ["", 4, -4, 48, -48, 4, -4, 24, -24, 4, 8, -24, -48], "withholdReward": true, "trial_id": "mdp_433630527224", "block": "test2", "trialIndex": 36, "score": 51.25, "costs": -1.75, "simulationMode": [null, null, null], "rewards": [4, -4, 48], "path": ["0", "0", "1", "2", "3"], "rt": [4441, 148, 149], "actions": ["up", "up", "right"], "actionTimes": [5091, 5763, 6427], "queries": {"click": {"state": {"target": ["5", "6", "8", "7", "1", "2", "3"], "time": [894, 1781, 2039, 2673, 3384, 3711, 4111]}, "edge": {"target": [], "time": []}}, "mouseover": {"state": {"target": ["5", "6", "6", "8", "7", "1", "2", "3"], "time": [792, 1414, 1691, 1967, 2602, 3242, 3639, 4023]}, "edge": {"target": [], "time": []}}, "mouseout": {"state": {"target": ["0", "5", "6", "6", "8", "6", "7", "1", "2", "3", "2", "1", "0"], "time": [732, 1132, 1464, 1908, 2346, 2461, 3123, 3586, 3961, 4324, 4401, 7116, 7141]}, "edge": {"target": [], "time": []}}}, "displayed_time": "8.65", "trialTime": 8954, "trial_type": "mouselab-mdp", "trial_index": 44, "time_elapsed": 1021034, "internal_node_id": "0.0-4.0-3.0-4.0"}}, {"uniqueid": "w38554829:a12912973", "current_trial": 45, "dateTime": 1664555937899, "trialdata": {"revealed_states": [], "num_clicks_accrued": [0, 0, 0, 0, 0, 0, 0, 0, 0, 0, 0, 0, 0], "stateRewards": ["", 2, 8, 48, 24, 2, 8, 48, 48, -2, -4, -24, -48], "withholdReward": true, "trial_id": "mdp_717636349175", "block": "test2", "trialIndex": 37, "score": 37.25, "costs": -1.75, "simulationMode": [null, null, null], "rewards": [2, 8, 24], "path": ["0", "0", "1", "2", "4"], "rt": [4206, 95, 49], "actions": ["up", "up", "left"], "actionTimes": [4962, 5570, 6138], "queries": {"click": {"state": {"target": ["9", "10", "12", "11", "1", "2", "4"], "time": [1035, 1396, 1670, 2320, 3404, 3716, 4150]}, "edge": {"target": [], "time": []}}, "mouseover": {"state": {"target": ["9", "10", "12", "11", "1", "1", "2", "4"], "time": [1002, 1295, 1594, 2207, 3018, 3277, 3614, 3908]}, "edge": {"target": [], "time": []}}, "mouseout": {"state": {"target": ["0", "9", "10", "12", "10", "11", "1", "1", "2", "4", "1", "1"], "time": [652, 1263, 1545, 1954, 2158, 2511, 3144, 3585, 3868, 4336, 4721, 5268]}, "edge": {"target": [], "time": []}}}, "displayed_time": "8.76", "trialTime": 9082, "trial_type": "mouselab-mdp", "trial_index": 45, "time_elapsed": 1030194, "internal_node_id": "0.0-4.0-3.0-5.0"}}, {"uniqueid": "w38554829:a12912973", "current_trial": 46, "dateTime": 1664555947948, "trialdata": {"revealed_states": [], "num_clicks_accrued": [0, 0, 0, 0, 0, 0, 0, 0, 0, 0, 0, 0, 0], "stateRewards": ["", 2, 8, 24, 24, 2, -8, -24, -48, 2, 8, -48, 48], "withholdReward": true, "trial_id": "mdp_745175888812", "block": "test2", "trialIndex": 38, "score": 38.25, "costs": -0.75, "simulationMode": [null, null, null], "rewards": [2, 8, 24], "path": ["0", "0", "1", "2", "3"], "rt": [1768, 87, 87], "actions": ["up", "up", "right"], "actionTimes": [2201, 2809, 3409], "queries": {"click": {"state": {"target": ["1", "2", "3"], "time": [727, 1227, 1639]}, "edge": {"target": [], "time": []}}, "mouseover": {"state": {"target": ["1", "2", "3"], "time": [624, 1162, 1544]}, "edge": {"target": [], "time": []}}, "mouseout": {"state": {"target": ["1", "2", "3", "5"], "time": [1094, 1488, 1865, 7538]}, "edge": {"target": [], "time": []}}}, "displayed_time": "9.43", "trialTime": 9920, "trial_type": "mouselab-mdp", "trial_index": 46, "time_elapsed": 1040243, "internal_node_id": "0.0-4.0-3.0-6.0"}}, {"uniqueid": "w38554829:a12912973", "current_trial": 47, "dateTime": 1664555959371, "trialdata": {"revealed_states": [], "num_clicks_accrued": [0, 0, 0, 0, 0, 0, 0, 0, 0, 0, 0, 0, 0], "stateRewards": ["", 4, -8, -48, 24, 4, 4, -24, -24, 2, 4, -48, 24], "withholdReward": true, "trial_id": "mdp_626971397185", "block": "test2", "trialIndex": 39, "score": 32, "costs": -3, "simulationMode": [null, null, null], "rewards": [2, 4, 24], "path": ["0", "0", "9", "10", "12"], "rt": [6796, 441, 427], "actions": ["left", "left", "down"], "actionTimes": [7511, 8462, 9422], "queries": {"click": {"state": {"target": ["5", "6", "8", "7", "1", "2", "4", "3", "9", "10", "11", "12"], "time": [966, 1352, 1780, 2474, 3088, 3384, 4236, 4786, 5524, 5896, 6316, 6753]}, "edge": {"target": [], "time": []}}, "mouseover": {"state": {"target": ["5", "6", "8", "7", "1", "2", "4", "4", "3", "9", "10", "11", "12"], "time": [850, 1266, 1678, 2372, 2955, 3287, 3696, 4055, 4681, 5345, 5757, 6243, 6658]}, "edge": {"target": [], "time": []}}, "mouseout": {"state": {"target": ["5", "6", "8", "6", "7", "6", "5", "1", "2", "4", "4", "2", "3", "1", "9", "10", "11", "10", "12"], "time": [1220, 1536, 2247, 2328, 2649, 2771, 2869, 3259, 3670, 3751, 4440, 4597, 5155, 5277, 5675, 6155, 6473, 6617, 6948]}, "edge": {"target": [], "time": []}}}, "displayed_time": "10.71", "trialTime": 11077, "trial_type": "mouselab-mdp", "trial_index": 47, "time_elapsed": 1051666, "internal_node_id": "0.0-4.0-3.0-7.0"}}, {"uniqueid": "w38554829:a12912973", "current_trial": 48, "dateTime": 1664555969235, "trialdata": {"revealed_states": [], "num_clicks_accrued": [0, 0, 0, 0, 0, 0, 0, 0, 0, 0, 0, 0, 0], "stateRewards": ["", -4, 8, -24, 48, 2, -8, 24, 48, 2, -8, -24, -48], "withholdReward": false, "trial_id": "mdp_493778446445", "block": "test2", "trialIndex": 40, "score": 55.25, "costs": -1.75, "simulationMode": [null, null, null], "rewards": [-4, 8, 48], "path": ["0", "0", "1", "2", "4"], "rt": [3633, 62, 64], "actions": ["up", "up", "left"], "actionTimes": [4060, 4636, 5211], "queries": {"click": {"state": {"target": ["9", "10", "12", "11", "1", "2", "4"], "time": [726, 1152, 1468, 2114, 2782, 3114, 3456]}, "edge": {"target": [], "time": []}}, "mouseover": {"state": {"target": ["9", "10", "12", "11", "1", "2", "4"], "time": [668, 1070, 1421, 2045, 2663, 3033, 3356]}, "edge": {"target": [], "time": []}}, "mouseout": {"state": {"target": ["0", "9", "10", "12", "10", "11", "1", "2", "4", "2"], "time": [235, 1043, 1338, 1791, 1967, 2445, 2972, 3298, 3639, 3821]}, "edge": {"target": [], "time": []}}}, "displayed_time": "9.43", "trialTime": 9771, "trial_type": "mouselab-mdp", "trial_index": 48, "time_elapsed": 1061530, "internal_node_id": "0.0-4.0-3.0-8.0"}}, {"uniqueid": "w38554829:a12912973", "current_trial": 49, "dateTime": 1664555978299, "trialdata": {"revealed_states": [], "num_clicks_accrued": [0, 0, 0, 0, 0, 0, 0, 0, 0, 0, 0, 0, 0], "stateRewards": ["", -2, 8, -48, 48, -4, -8, 24, 24, -2, -4, 48, -48], "withholdReward": true, "trial_id": "mdp_867247318592", "block": "test2", "trialIndex": 41, "score": 57.5, "costs": -1.5, "simulationMode": [null, null, null], "rewards": [-2, 8, 48], "path": ["0", "0", "1", "2", "4"], "rt": [3005, 498, 192], "actions": ["up", "up", "left"], "actionTimes": [3619, 4633, 5337], "queries": {"click": {"state": {"target": ["5", "6", "7", "1", "2", "4"], "time": [972, 1332, 1756, 2366, 2688, 3112]}, "edge": {"target": [], "time": []}}, "mouseover": {"state": {"target": ["5", "6", "7", "1", "2", "4"], "time": [848, 1241, 1641, 2217, 2625, 3007]}, "edge": {"target": [], "time": []}}, "mouseout": {"state": {"target": ["1", "0", "5", "6", "7", "1", "2", "4", "2", "1", "5"], "time": [311, 784, 1186, 1616, 1940, 2574, 2948, 3316, 3953, 4326, 5765]}, "edge": {"target": [], "time": []}}}, "displayed_time": "8.62", "trialTime": 8977, "trial_type": "mouselab-mdp", "trial_index": 49, "time_elapsed": 1070594, "internal_node_id": "0.0-4.0-3.0-9.0"}}, {"uniqueid": "w38554829:a12912973", "current_trial": 50, "dateTime": 1664555987203, "trialdata": {"revealed_states": [], "num_clicks_accrued": [0, 0, 0, 0, 0, 0, 0, 0, 0, 0, 0, 0, 0], "stateRewards": ["", 4, -8, -24, 48, -4, 8, -24, -48, -4, -4, 24, 48], "withholdReward": true, "trial_id": "mdp_282352776624", "block": "test2", "trialIndex": 42, "score": 44.25, "costs": -0.75, "simulationMode": [null, null, null], "rewards": [-4, -4, 48], "path": ["0", "0", "9", "10", "12"], "rt": [1915, 22, 33], "actions": ["left", "left", "down"], "actionTimes": [2401, 2945, 3490], "queries": {"click": {"state": {"target": ["9", "10", "12"], "time": [769, 1210, 1527]}, "edge": {"target": [], "time": []}}, "mouseover": {"state": {"target": ["9", "10", "12", "1"], "time": [700, 1104, 1447, 2109]}, "edge": {"target": [], "time": []}}, "mouseout": {"state": {"target": ["5", "9", "10", "12", "9", "1", "0"], "time": [109, 1079, 1403, 1773, 1958, 2296, 4486]}, "edge": {"target": [], "time": []}}}, "displayed_time": "8.49", "trialTime": 8817, "trial_type": "mouselab-mdp", "trial_index": 50, "time_elapsed": 1079498, "internal_node_id": "0.0-4.0-3.0-10.0"}}, {"uniqueid": "w38554829:a12912973", "current_trial": 51, "dateTime": 1664555997067, "trialdata": {"revealed_states": [], "num_clicks_accrued": [0, 0, 0, 0, 0, 0, 0, 0, 0, 0, 0, 0, 0], "stateRewards": ["", 2, 4, 48, 24, -4, 8, 48, 48, 2, -4, -48, -24], "withholdReward": true, "trial_id": "mdp_822099887466", "block": "test2", "trialIndex": 43, "score": 33.25, "costs": -1.75, "simulationMode": [null, null, null], "rewards": [2, 4, 24], "path": ["0", "0", "1", "2", "4"], "rt": [3334, 16, 378], "actions": ["up", "up", "left"], "actionTimes": [3810, 4346, 5242], "queries": {"click": {"state": {"target": ["9", "10", "12", "11", "1", "2", "4"], "time": [741, 1141, 1472, 1995, 2454, 2810, 3161]}, "edge": {"target": [], "time": []}}, "mouseover": {"state": {"target": ["9", "10", "12", "11", "1", "2", "4"], "time": [684, 1040, 1385, 1903, 2326, 2734, 3066]}, "edge": {"target": [], "time": []}}, "mouseout": {"state": {"target": ["0", "9", "10", "12", "10", "11", "1", "2", "4", "2"], "time": [590, 989, 1335, 1743, 1852, 2155, 2701, 3033, 3376, 4108]}, "edge": {"target": [], "time": []}}}, "displayed_time": "9.48", "trialTime": 9778, "trial_type": "mouselab-mdp", "trial_index": 51, "time_elapsed": 1089361, "internal_node_id": "0.0-4.0-3.0-11.0"}}, {"uniqueid": "w38554829:a12912973", "current_trial": 52, "dateTime": 1664556007915, "trialdata": {"revealed_states": [], "num_clicks_accrued": [0, 0, 0, 0, 0, 0, 0, 0, 0, 0, 0, 0, 0], "stateRewards": ["", 2, 4, -48, 48, -4, 8, -48, -24, -4, -4, 48, 48], "withholdReward": false, "trial_id": "mdp_613582696541", "block": "test2", "trialIndex": 44, "score": 57.5, "costs": -1.5, "simulationMode": [null, null, null], "rewards": [2, 4, 48], "path": ["0", "0", "1", "2", "4"], "rt": [2940, 65, 86], "actions": ["up", "up", "left"], "actionTimes": [3386, 3961, 4569], "queries": {"click": {"state": {"target": ["5", "6", "7", "1", "2", "4"], "time": [677, 1057, 1499, 2043, 2452, 2826]}, "edge": {"target": [], "time": []}}, "mouseover": {"state": {"target": ["5", "6", "7", "1", "2", "4"], "time": [614, 1017, 1418, 1936, 2364, 2707]}, "edge": {"target": [], "time": []}}, "mouseout": {"state": {"target": ["5", "6", "7", "1", "2", "4", "9"], "time": [903, 1383, 1685, 2313, 2675, 3131, 5690]}, "edge": {"target": [], "time": []}}}, "displayed_time": "9.45", "trialTime": 10761, "trial_type": "mouselab-mdp", "trial_index": 52, "time_elapsed": 1100210, "internal_node_id": "0.0-4.0-3.0-12.0"}}, {"uniqueid": "w38554829:a12912973", "current_trial": 53, "dateTime": 1664556018034, "trialdata": {"revealed_states": [], "num_clicks_accrued": [0, 0, 0, 0, 0, 0, 0, 0, 0, 0, 0, 0, 0], "stateRewards": ["", -4, 4, 48, 24, -4, 4, -24, 48, -2, -8, 24, -48], "withholdReward": true, "trial_id": "mdp_261501605436", "block": "test2", "trialIndex": 45, "score": 51.5, "costs": -1.5, "simulationMode": [null, null, null], "rewards": [-4, 4, 48], "path": ["0", "0", "1", "2", "3"], "rt": [3656, 466, 215], "actions": ["up", "up", "right"], "actionTimes": [4292, 5275, 6011], "queries": {"click": {"state": {"target": ["9", "10", "12", "1", "2", "3"], "time": [1277, 1597, 1885, 2785, 3123, 3661]}, "edge": {"target": [], "time": []}}, "mouseover": {"state": {"target": ["9", "10", "12", "1", "2", "3"], "time": [851, 1513, 1790, 2685, 3033, 3554]}, "edge": {"target": [], "time": []}}, "mouseout": {"state": {"target": ["0", "9", "10", "12", "9", "1", "2", "3", "2", "1", "6"], "time": [715, 1428, 1747, 2122, 2265, 3005, 3495, 3852, 4519, 4626, 8210]}, "edge": {"target": [], "time": []}}}, "displayed_time": "9.64", "trialTime": 10003, "trial_type": "mouselab-mdp", "trial_index": 53, "time_elapsed": 1110329, "internal_node_id": "0.0-4.0-3.0-13.0"}}, {"uniqueid": "w38554829:a12912973", "current_trial": 54, "dateTime": 1664556027035, "trialdata": {"revealed_states": [], "num_clicks_accrued": [0, 0, 0, 0, 0, 0, 0, 0, 0, 0, 0, 0, 0], "stateRewards": ["", 4, -4, 48, 24, 2, -8, 24, -48, -2, -4, -48, -48], "withholdReward": true, "trial_id": "mdp_655302318695", "block": "test2", "trialIndex": 46, "score": 52, "costs": -1, "simulationMode": [null, null, null], "rewards": [4, -4, 48], "path": ["0", "0", "1", "2", "3"], "rt": [2441, 47, 31], "actions": ["up", "up", "right"], "actionTimes": [2872, 3440, 3984], "queries": {"click": {"state": {"target": ["1", "2", "4", "3"], "time": [601, 903, 1678, 2232]}, "edge": {"target": [], "time": []}}, "mouseover": {"state": {"target": ["1", "2", "4", "4", "3"], "time": [528, 824, 1111, 1377, 1974]}, "edge": {"target": [], "time": []}}, "mouseout": {"state": {"target": ["5", "1", "2", "4", "4", "2", "3"], "time": [145, 780, 1090, 1148, 1873, 1950, 2408]}, "edge": {"target": [], "time": []}}}, "displayed_time": "8.43", "trialTime": 8744, "trial_type": "mouselab-mdp", "trial_index": 54, "time_elapsed": 1119329, "internal_node_id": "0.0-4.0-3.0-14.0"}}, {"uniqueid": "w38554829:a12912973", "current_trial": 55, "dateTime": 1664556037980, "trialdata": {"revealed_states": [], "num_clicks_accrued": [0, 0, 0, 0, 0, 0, 0, 0, 0, 0, 0, 0, 0], "stateRewards": ["", -4, -4, -48, -24, 2, 8, 24, -48, 4, 4, 48, 48], "withholdReward": true, "trial_id": "mdp_693501840209", "block": "test2", "trialIndex": 47, "score": 38, "costs": -1, "simulationMode": [null, null, null], "rewards": [2, 8, 24], "path": ["0", "0", "5", "6", "7"], "rt": [2621, 523, 310], "actions": ["right", "right", "up"], "actionTimes": [3033, 4177, 5010], "queries": {"click": {"state": {"target": ["5", "6", "8", "7"], "time": [595, 1381, 1630, 2275]}, "edge": {"target": [], "time": []}}, "mouseover": {"state": {"target": ["5", "6", "8", "6", "8", "7"], "time": [540, 1027, 1150, 1288, 1548, 2172]}, "edge": {"target": [], "time": []}}, "mouseout": {"state": {"target": ["5", "6", "8", "6", "8", "6", "7", "6"], "time": [815, 1061, 1255, 1507, 2058, 2140, 2460, 3546]}, "edge": {"target": [], "time": []}}}, "displayed_time": "10.41", "trialTime": 10817, "trial_type": "mouselab-mdp", "trial_index": 55, "time_elapsed": 1130275, "internal_node_id": "0.0-4.0-3.0-15.0"}}, {"uniqueid": "w38554829:a12912973", "current_trial": 56, "dateTime": 1664556047903, "trialdata": {"revealed_states": [], "num_clicks_accrued": [0, 0, 0, 0, 0, 0, 0, 0, 0, 0, 0, 0, 0], "stateRewards": ["", -2, 4, -24, -48, -4, 8, -24, 48, 4, 4, -48, 24], "withholdReward": false, "trial_id": "mdp_341117665701", "block": "test2", "trialIndex": 48, "score": 36.25, "costs": -0.75, "simulationMode": [null, null, null], "rewards": [4, 4, 24], "path": ["0", "0", "9", "10", "12"], "rt": [1701, 1120, 762], "actions": ["left", "left", "down"], "actionTimes": [2090, 3722, 5026], "queries": {"click": {"state": {"target": ["9", "10", "12"], "time": [753, 1122, 1442]}, "edge": {"target": [], "time": []}}, "mouseover": {"state": {"target": ["9", "10", "12"], "time": [627, 1003, 1339]}, "edge": {"target": [], "time": []}}, "mouseout": {"state": {"target": ["0", "9", "10", "12", "11", "10"], "time": [573, 938, 1286, 1626, 3794, 3957]}, "edge": {"target": [], "time": []}}}, "displayed_time": "9.39", "trialTime": 9653, "trial_type": "mouselab-mdp", "trial_index": 56, "time_elapsed": 1140198, "internal_node_id": "0.0-4.0-3.0-16.0"}}, {"uniqueid": "w38554829:a12912973", "current_trial": 57, "dateTime": 1664556057090, "trialdata": {"revealed_states": [], "num_clicks_accrued": [0, 0, 0, 0, 0, 0, 0, 0, 0, 0, 0, 0, 0], "stateRewards": ["", 4, 4, 48, -48, -2, -8, -48, -24, 2, 4, -24, -48], "withholdReward": true, "trial_id": "mdp_239929662917", "block": "test2", "trialIndex": 49, "score": 59, "costs": -2, "simulationMode": [null, null, null], "rewards": [4, 4, 48], "path": ["0", "0", "1", "2", "3"], "rt": [5134, 433, 405], "actions": ["up", "up", "right"], "actionTimes": [5498, 6457, 7385], "queries": {"click": {"state": {"target": ["9", "10", "12", "11", "1", "2", "4", "3"], "time": [634, 1016, 1374, 2126, 3456, 3784, 4456, 4978]}, "edge": {"target": [], "time": []}}, "mouseover": {"state": {"target": ["0", "9", "10", "12", "11", "1", "1", "2", "4", "3"], "time": [429, 538, 902, 1280, 1992, 2843, 3275, 3676, 4325, 4879]}, "edge": {"target": [], "time": []}}, "mouseout": {"state": {"target": ["0", "0", "9", "10", "12", "10", "11", "1", "1", "2", "4", "2", "2", "3", "5"], "time": [415, 482, 879, 1191, 1595, 1878, 2299, 3004, 3642, 4136, 4639, 4681, 4836, 5167, 6221]}, "edge": {"target": [], "time": []}}}, "displayed_time": "7.90", "trialTime": 8881, "trial_type": "mouselab-mdp", "trial_index": 57, "time_elapsed": 1149385, "internal_node_id": "0.0-4.0-3.0-17.0"}}, {"uniqueid": "w38554829:a12912973", "current_trial": 58, "dateTime": 1664556065994, "trialdata": {"revealed_states": [], "num_clicks_accrued": [0, 0, 0, 0, 0, 0, 0, 0, 0, 0, 0, 0, 0], "stateRewards": ["", -4, 8, -24, 24, -2, -8, 24, -24, 4, -4, -48, 48], "withholdReward": true, "trial_id": "mdp_297684722007", "block": "test2", "trialIndex": 50, "score": 51.25, "costs": -1.75, "simulationMode": [null, null, null], "rewards": [4, -4, 48], "path": ["0", "0", "9", "10", "12"], "rt": [3855, 22, 330], "actions": ["left", "left", "down"], "actionTimes": [4407, 4954, 5806], "queries": {"click": {"state": {"target": ["1", "2", "3", "4", "9", "10", "12"], "time": [755, 1244, 1642, 2096, 2787, 3182, 3565]}, "edge": {"target": [], "time": []}}, "mouseover": {"state": {"target": ["1", "2", "3", "4", "9", "10", "12"], "time": [675, 1140, 1568, 2024, 2629, 3092, 3399]}, "edge": {"target": [], "time": []}}, "mouseout": {"state": {"target": ["0", "1", "2", "3", "2", "4", "9", "10", "12"], "time": [434, 940, 1473, 1847, 1941, 2439, 3051, 3352, 3775]}, "edge": {"target": [], "time": []}}}, "displayed_time": "8.55", "trialTime": 8806, "trial_type": "mouselab-mdp", "trial_index": 58, "time_elapsed": 1158289, "internal_node_id": "0.0-4.0-3.0-18.0"}}, {"uniqueid": "w38554829:a12912973", "current_trial": 59, "dateTime": 1664556076498, "trialdata": {"revealed_states": [], "num_clicks_accrued": [0, 0, 0, 0, 0, 0, 0, 0, 0, 0, 0, 0, 0], "stateRewards": ["", -4, -4, -24, -48, -4, 8, -24, -48, 4, -8, 24, -24], "withholdReward": false, "trial_id": "mdp_924927483179", "block": "test2", "trialIndex": 51, "score": 22, "costs": -3, "simulationMode": [null, null, null], "rewards": [4, -8, 24], "path": ["0", "0", "9", "10", "11"], "rt": [7286, 49, 65], "actions": ["left", "left", "up"], "actionTimes": [7665, 8232, 8808], "queries": {"click": {"state": {"target": ["5", "6", "8", "7", "1", "2", "4", "3", "9", "10", "12", "11"], "time": [1081, 1350, 1677, 2200, 2777, 3078, 3485, 3953, 4667, 4952, 5346, 5887]}, "edge": {"target": [], "time": []}}, "mouseover": {"state": {"target": ["5", "5", "6", "8", "7", "1", "2", "4", "3", "9", "9", "10", "12", "11"], "time": [490, 979, 1260, 1572, 2058, 2640, 3025, 3412, 3832, 4363, 4562, 4916, 5211, 5755]}, "edge": {"target": [], "time": []}}, "mouseout": {"state": {"target": ["0", "5", "5", "6", "8", "6", "7", "1", "2", "4", "2", "3", "1", "9", "9", "10", "12", "10", "11", "9"], "time": [34, 540, 1223, 1506, 1955, 2009, 2437, 2984, 3350, 3679, 3777, 4266, 4338, 4402, 4817, 5122, 5624, 5710, 6052, 6270]}, "edge": {"target": [], "time": []}}}, "displayed_time": "9.33", "trialTime": 10152, "trial_type": "mouselab-mdp", "trial_index": 59, "time_elapsed": 1168793, "internal_node_id": "0.0-4.0-3.0-19.0"}}, {"uniqueid": "w38554829:a12912973", "current_trial": 60, "dateTime": 1664556085722, "trialdata": {"revealed_states": [], "num_clicks_accrued": [0, 0, 0, 0, 0, 0, 0, 0, 0, 0, 0, 0, 0], "stateRewards": ["", -2, -8, -48, 24, 2, -4, -48, 48, 2, 4, 24, -24], "withholdReward": true, "trial_id": "mdp_849341543762", "block": "test2", "trialIndex": 52, "score": 48.25, "costs": -2.75, "simulationMode": [null, null, null], "rewards": [2, -4, 48], "path": ["0", "0", "5", "6", "8"], "rt": [5695, 27, 665], "actions": ["right", "right", "down"], "actionTimes": [6256, 6789, 7974], "queries": {"click": {"state": {"target": ["9", "10", "12", "11", "1", "2", "4", "3", "5", "6", "8"], "time": [792, 1222, 1507, 2172, 2740, 3139, 3546, 4138, 4663, 5045, 5440]}, "edge": {"target": [], "time": []}}, "mouseover": {"state": {"target": ["0", "9", "10", "12", "11", "1", "2", "4", "3", "5", "6", "8", "7"], "time": [670, 714, 1092, 1410, 2094, 2581, 3076, 3404, 4073, 4581, 4941, 5319, 5922]}, "edge": {"target": [], "time": []}}, "mouseout": {"state": {"target": ["0", "0", "9", "10", "12", "10", "11", "1", "2", "4", "2", "3", "5", "6", "8", "6", "7", "6", "8"], "time": [458, 680, 1044, 1376, 1667, 2043, 2342, 3014, 3346, 3743, 3955, 4370, 4837, 5295, 5670, 5837, 6144, 6353, 6412]}, "edge": {"target": [], "time": []}}}, "displayed_time": "8.68", "trialTime": 9125, "trial_type": "mouselab-mdp", "trial_index": 60, "time_elapsed": 1178017, "internal_node_id": "0.0-4.0-3.0-20.0"}}, {"uniqueid": "w38554829:a12912973", "current_trial": 61, "dateTime": 1664556097777, "trialdata": {"revealed_states": [], "num_clicks_accrued": [0, 0, 0, 0, 0, 0, 0, 0, 0, 0, 0, 0, 0], "stateRewards": ["", 2, 4, -48, -24, -4, 4, -24, 24, -2, -8, -24, 24], "withholdReward": true, "trial_id": "mdp_640720803523", "block": "test2", "trialIndex": 53, "score": 26, "costs": -3, "simulationMode": [null, null, null], "rewards": [-4, 4, 24], "path": ["0", "0", "5", "6", "8"], "rt": [9389, 63, 3], "actions": ["right", "right", "down"], "actionTimes": [9966, 10540, 11054], "queries": {"click": {"state": {"target": ["5", "6", "8", "7", "10", "9", "11", "12", "1", "2", "4", "3"], "time": [804, 1249, 1534, 2477, 3377, 3784, 4313, 4807, 5479, 5837, 6317, 6815]}, "edge": {"target": [], "time": []}}, "mouseover": {"state": {"target": ["5", "6", "8", "7", "7", "9", "10", "9", "11", "12", "1", "2", "4", "3"], "time": [718, 1190, 1421, 2262, 2381, 2990, 3271, 3632, 4181, 4699, 5364, 5713, 6177, 6697]}, "edge": {"target": [], "time": []}}, "mouseout": {"state": {"target": ["0", "5", "6", "8", "6", "7", "7", "9", "10", "9", "11", "10", "12", "1", "2", "4", "3", "5"], "time": [629, 1140, 1385, 1815, 1926, 2276, 2805, 3036, 3525, 4079, 4451, 4631, 5036, 5674, 6031, 6500, 6950, 7333]}, "edge": {"target": [], "time": []}}}, "displayed_time": "11.57", "trialTime": 11972, "trial_type": "mouselab-mdp", "trial_index": 61, "time_elapsed": 1190072, "internal_node_id": "0.0-4.0-3.0-21.0"}}, {"uniqueid": "w38554829:a12912973", "current_trial": 62, "dateTime": 1664556107674, "trialdata": {"revealed_states": [], "num_clicks_accrued": [0, 0, 0, 0, 0, 0, 0, 0, 0, 0, 0, 0, 0], "stateRewards": ["", 4, -8, 24, 48, -2, -4, -48, 24, 2, 4, -48, -24], "withholdReward": true, "trial_id": "mdp_749974461966", "block": "test2", "trialIndex": 54, "score": 47.25, "costs": -1.75, "simulationMode": [null, null, null], "rewards": [4, -8, 48], "path": ["0", "0", "1", "2", "4"], "rt": [3505, 22, 4], "actions": ["up", "up", "left"], "actionTimes": [3961, 4511, 5016], "queries": {"click": {"state": {"target": ["9", "10", "12", "11", "1", "2", "4"], "time": [703, 1133, 1416, 2053, 2577, 3005, 3389]}, "edge": {"target": [], "time": []}}, "mouseover": {"state": {"target": ["9", "10", "12", "11", "1", "2", "4"], "time": [639, 992, 1318, 1944, 2454, 2920, 3276]}, "edge": {"target": [], "time": []}}, "mouseout": {"state": {"target": ["0", "9", "10", "12", "10", "11", "1", "2", "4", "2", "0"], "time": [319, 958, 1271, 1596, 1868, 2221, 2880, 3211, 3531, 3649, 4796]}, "edge": {"target": [], "time": []}}}, "displayed_time": "9.46", "trialTime": 9800, "trial_type": "mouselab-mdp", "trial_index": 62, "time_elapsed": 1199969, "internal_node_id": "0.0-4.0-3.0-22.0"}}, {"uniqueid": "w38554829:a12912973", "current_trial": 63, "dateTime": 1664556118682, "trialdata": {"revealed_states": [], "num_clicks_accrued": [0, 0, 0, 0, 0, 0, 0, 0, 0, 0, 0, 0, 0], "stateRewards": ["", 4, 4, 24, -24, -4, -8, 48, -24, 4, 4, 48, 24], "withholdReward": false, "trial_id": "mdp_822446942217", "block": "test2", "trialIndex": 55, "score": 40.25, "costs": -0.75, "simulationMode": [null, null, null], "rewards": [-4, -8, 48], "path": ["0", "0", "5", "6", "7"], "rt": [1822, 508, 145], "actions": ["right", "right", "up"], "actionTimes": [2435, 3458, 4122], "queries": {"click": {"state": {"target": ["5", "6", "7"], "time": [839, 1281, 1726]}, "edge": {"target": [], "time": []}}, "mouseover": {"state": {"target": ["5", "6", "7"], "time": [736, 1201, 1641]}, "edge": {"target": [], "time": []}}, "mouseout": {"state": {"target": ["0", "5", "6", "6", "7", "6"], "time": [471, 1160, 1502, 1615, 2570, 2671]}, "edge": {"target": [], "time": []}}}, "displayed_time": "10.61", "trialTime": 10890, "trial_type": "mouselab-mdp", "trial_index": 63, "time_elapsed": 1210977, "internal_node_id": "0.0-4.0-3.0-23.0"}}, {"uniqueid": "w38554829:a12912973", "current_trial": 64, "dateTime": 1664556127617, "trialdata": {"revealed_states": [], "num_clicks_accrued": [0, 0, 0, 0, 0, 0, 0, 0, 0, 0, 0, 0, 0], "stateRewards": ["", -4, 4, -24, 48, 2, 4, -48, 24, 4, -8, -24, 24], "withholdReward": true, "trial_id": "mdp_740130150937", "block": "test2", "trialIndex": 56, "score": 51.25, "costs": -1.75, "simulationMode": [null, null, null], "rewards": [-4, 4, 48], "path": ["0", "0", "1", "2", "4"], "rt": [3420, 375, 130], "actions": ["up", "up", "left"], "actionTimes": [3991, 4911, 5551], "queries": {"click": {"state": {"target": ["9", "10", "12", "11", "1", "2", "4"], "time": [804, 1129, 1448, 2130, 2570, 2921, 3279]}, "edge": {"target": [], "time": []}}, "mouseover": {"state": {"target": ["9", "10", "12", "11", "1", "2", "4", "3"], "time": [710, 1041, 1337, 2044, 2434, 2845, 3188, 3603]}, "edge": {"target": [], "time": []}}, "mouseout": {"state": {"target": ["0", "9", "10", "12", "11", "1", "2", "4", "2", "3", "0"], "time": [470, 982, 1287, 1709, 2284, 2811, 3144, 3463, 3549, 4006, 5182]}, "edge": {"target": [], "time": []}}}, "displayed_time": "8.57", "trialTime": 8839, "trial_type": "mouselab-mdp", "trial_index": 64, "time_elapsed": 1219912, "internal_node_id": "0.0-4.0-3.0-24.0"}}, {"uniqueid": "w38554829:a12912973", "current_trial": 65, "dateTime": 1664556138562, "trialdata": {"revealed_states": [], "num_clicks_accrued": [0, 0, 0, 0, 0, 0, 0, 0, 0, 0, 0, 0, 0], "stateRewards": ["", 4, -8, 48, 24, 4, -4, 48, 48, -4, 8, -48, 24], "withholdReward": true, "trial_id": "mdp_303828806348", "block": "test2", "trialIndex": 57, "score": 47, "costs": -2, "simulationMode": [null, null, null], "rewards": [4, -8, 48], "path": ["0", "0", "1", "2", "3"], "rt": [4511, 736, 160], "actions": ["up", "up", "right"], "actionTimes": [4990, 6334, 7005], "queries": {"click": {"state": {"target": ["9", "10", "12", "11", "1", "2", "4", "3"], "time": [1283, 1583, 1927, 2562, 2962, 3348, 3885, 4439]}, "edge": {"target": [], "time": []}}, "mouseover": {"state": {"target": ["9", "10", "9", "10", "12", "11", "1", "2", "4", "3"], "time": [913, 1034, 1181, 1492, 1788, 2438, 2809, 3273, 3785, 4276]}, "edge": {"target": [], "time": []}}, "mouseout": {"state": {"target": ["0", "9", "10", "9", "10", "12", "11", "1", "1", "2", "4", "2", "3", "5"], "time": [664, 982, 1143, 1454, 1746, 2310, 2730, 3195, 3241, 3746, 4093, 4205, 4656, 5463]}, "edge": {"target": [], "time": []}}}, "displayed_time": "10.48", "trialTime": 10829, "trial_type": "mouselab-mdp", "trial_index": 65, "time_elapsed": 1230856, "internal_node_id": "0.0-4.0-3.0-25.0"}}, {"uniqueid": "w38554829:a12912973", "current_trial": 66, "dateTime": 1664556146537, "trialdata": {"revealed_states": [], "num_clicks_accrued": [0, 0, 0, 0, 0, 0, 0, 0, 0, 0, 0, 0, 0], "stateRewards": ["", 4, 8, 48, 48, 4, 4, -24, -48, 4, 8, -48, -48], "withholdReward": true, "trial_id": "mdp_984548726931", "block": "test2", "trialIndex": 58, "score": 63.25, "costs": -1.75, "simulationMode": [null, null, null], "rewards": [4, 8, 48], "path": ["0", "0", "1", "2", "3"], "rt": [3102, 629, 186], "actions": ["up", "up", "right"], "actionTimes": [3686, 4894, 5598], "queries": {"click": {"state": {"target": ["5", "6", "8", "7", "1", "2", "3"], "time": [767, 1070, 1390, 1944, 2525, 2812, 3133]}, "edge": {"target": [], "time": []}}, "mouseover": {"state": {"target": ["5", "6", "8", "7", "1", "2", "3"], "time": [689, 976, 1264, 1865, 2418, 2736, 3049]}, "edge": {"target": [], "time": []}}, "mouseout": {"state": {"target": ["0", "5", "6", "8", "6", "7", "1", "2", "3", "1", "0"], "time": [438, 899, 1211, 1679, 1768, 2337, 2704, 2998, 3306, 3891, 4034]}, "edge": {"target": [], "time": []}}}, "displayed_time": "7.58", "trialTime": 7862, "trial_type": "mouselab-mdp", "trial_index": 66, "time_elapsed": 1238832, "internal_node_id": "0.0-4.0-3.0-26.0"}}, {"uniqueid": "w38554829:a12912973", "current_trial": 67, "dateTime": 1664556156818, "trialdata": {"revealed_states": [], "num_clicks_accrued": [0, 0, 0, 0, 0, 0, 0, 0, 0, 0, 0, 0, 0], "stateRewards": ["", -4, -4, -24, 24, 4, 4, -24, -24, -4, 4, 24, 24], "withholdReward": false, "trial_id": "mdp_787781487383", "block": "test2", "trialIndex": 59, "score": 26, "costs": -3, "simulationMode": [null, null, null], "rewards": [-4, 4, 24], "path": ["0", "0", "9", "10", "12"], "rt": [7150, 25, 213], "actions": ["left", "left", "down"], "actionTimes": [7389, 7924, 8660], "queries": {"click": {"state": {"target": ["5", "6", "8", "7", "1", "2", "4", "3", "10", "9", "11", "12"], "time": [523, 831, 1128, 1610, 2191, 2562, 2952, 3408, 4156, 4474, 5033, 5513]}, "edge": {"target": [], "time": []}}, "mouseover": {"state": {"target": ["5", "6", "8", "7", "1", "2", "4", "3", "9", "10", "9", "11", "12"], "time": [389, 804, 1062, 1540, 2160, 2525, 2858, 3236, 3898, 4028, 4380, 4935, 5408]}, "edge": {"target": [], "time": []}}, "mouseout": {"state": {"target": ["0", "5", "6", "8", "6", "7", "1", "2", "4", "2", "3", "1", "9", "10", "9", "10", "11", "10", "12"], "time": [343, 664, 994, 1417, 1479, 1879, 2453, 2817, 3172, 3217, 3804, 3874, 3941, 4340, 4723, 4902, 5183, 5352, 5681]}, "edge": {"target": [], "time": []}}}, "displayed_time": "9.18", "trialTime": 9812, "trial_type": "mouselab-mdp", "trial_index": 67, "time_elapsed": 1249112, "internal_node_id": "0.0-4.0-3.0-27.0"}}, {"uniqueid": "w38554829:a12912973", "current_trial": 68, "dateTime": 1664556172290, "trialdata": {"revealed_states": [], "num_clicks_accrued": [0, 0, 0, 0, 0, 0, 0, 0, 0, 0, 0, 0, 0], "stateRewards": ["", -2, -8, 24, -48, 4, 4, -24, -48, -2, -8, -48, 24], "withholdReward": true, "trial_id": "mdp_556006673466", "block": "test2", "trialIndex": 60, "score": -14, "costs": -3, "simulationMode": [null, null, null], "rewards": [4, 4, -24], "path": ["0", "0", "5", "6", "7"], "rt": [11487, 278, 149], "actions": ["right", "right", "up"], "actionTimes": [12081, 12879, 13551], "queries": {"click": {"state": {"target": ["9", "10", "12", "11", "1", "2", "3", "7", "8", "4", "6", "5"], "time": [1285, 1610, 1924, 3038, 3816, 4414, 4882, 5510, 6198, 7006, 8072, 8764]}, "edge": {"target": [], "time": []}}, "mouseover": {"state": {"target": ["9", "9", "10", "12", "11", "1", "2", "3", "7", "6", "8", "6", "5", "4", "6", "5"], "time": [917, 1198, 1516, 1817, 2930, 3372, 4297, 4709, 5427, 5750, 5917, 6578, 6636, 6899, 7964, 8677]}, "edge": {"target": [], "time": []}}, "mouseout": {"state": {"target": ["0", "9", "9", "10", "12", "9", "11", "1", "2", "3", "7", "6", "8", "6", "5", "1", "4", "1", "1", "6", "5"], "time": [702, 1060, 1466, 1764, 2096, 2384, 3202, 4245, 4651, 5062, 5681, 5861, 6521, 6605, 6657, 6809, 7209, 7566, 7647, 8248, 8954]}, "edge": {"target": [], "time": []}}}, "displayed_time": "14.07", "trialTime": 15367, "trial_type": "mouselab-mdp", "trial_index": 68, "time_elapsed": 1264585, "internal_node_id": "0.0-4.0-3.0-28.0"}}, {"uniqueid": "w38554829:a12912973", "current_trial": 69, "dateTime": 1664556182818, "trialdata": {"revealed_states": [], "num_clicks_accrued": [0, 0, 0, 0, 0, 0, 0, 0, 0, 0, 0, 0, 0], "stateRewards": ["", -2, -4, -24, 24, -2, 4, -24, -24, -4, 4, 24, -24], "withholdReward": true, "trial_id": "mdp_999419261719", "block": "test2", "trialIndex": 61, "score": 27, "costs": -2, "simulationMode": [null, null, null], "rewards": [-4, 4, 24], "path": ["0", "0", "9", "10", "11"], "rt": [7055, 407, 95], "actions": ["left", "left", "up"], "actionTimes": [7687, 8606, 9246], "queries": {"click": {"state": {"target": ["12", "11", "4", "3", "7", "8", "9", "10"], "time": [1399, 1897, 2435, 3049, 3637, 4101, 6845, 7143]}, "edge": {"target": [], "time": []}}, "mouseover": {"state": {"target": ["0", "9", "10", "12", "10", "11", "4", "2", "3", "3", "7", "6", "8", "9", "10"], "time": [883, 1008, 1177, 1242, 1667, 1793, 2250, 2742, 2776, 3016, 3479, 3828, 3942, 5732, 7048]}, "edge": {"target": [], "time": []}}, "mouseout": {"state": {"target": ["0", "0", "9", "10", "12", "10", "11", "4", "2", "3", "3", "7", "6", "8", "9", "10"], "time": [477, 980, 1072, 1186, 1622, 1747, 2156, 2718, 2763, 2819, 3396, 3795, 3892, 4392, 7013, 7311]}, "edge": {"target": [], "time": []}}}, "displayed_time": "9.76", "trialTime": 10422, "trial_type": "mouselab-mdp", "trial_index": 69, "time_elapsed": 1275113, "internal_node_id": "0.0-4.0-3.0-29.0"}}, {"uniqueid": "w38554829:a12912973", "current_trial": 70, "dateTime": 1664556184354, "trialdata": {"rt": 1530, "stimulus": "<h1> End of block! </h1>\n\nYou have reached the end of the block 2/4. If you need a short break, feel free to take one now before moving on.\n\n<br><br>\nIn the next block, you will complete another 30 rounds of this game.\n\n<br><br>\n<div style='text-align: center;'>Press <code>space</code> to begin.</div>\n<br><br>\n<div style='text-align: center;'>(If the experiment doesn't continue, try clicking on the text and then pressing <code>space</code>.)</div>", "response": " ", "trial_id": "mdp_ready_3", "trial_type": "html-keyboard-response", "trial_index": 70, "time_elapsed": 1276649, "internal_node_id": "0.0-4.0-4.0"}}, {"uniqueid": "w38554829:a12912973", "current_trial": 71, "dateTime": 1664556194114, "trialdata": {"revealed_states": [], "num_clicks_accrued": [0, 0, 0, 0, 0, 0, 0, 0, 0, 0, 0, 0, 0], "stateRewards": ["", -4, 4, 48, 24, -4, 4, -24, 48, -2, -8, 24, -48], "withholdReward": true, "trial_id": "mdp_261501605436", "block": "test3", "trialIndex": 62, "score": 51.5, "costs": -1.5, "simulationMode": [null, null, null], "rewards": [-4, 4, 48], "path": ["0", "0", "1", "2", "3"], "rt": [3848, 38, 369], "actions": ["up", "up", "right"], "actionTimes": [5228, 5762, 6650], "queries": {"click": {"state": {"target": ["12", "11", "4", "3", "1", "2"], "time": [2015, 2531, 3191, 3665, 4651, 4963]}, "edge": {"target": [], "time": []}}, "mouseover": {"state": {"target": ["9", "12", "10", "11", "4", "2", "3", "7", "1", "2"], "time": [1571, 1958, 2214, 2364, 3037, 3405, 3498, 3934, 4485, 4887]}, "edge": {"target": [], "time": []}}, "mouseout": {"state": {"target": ["0", "9", "12", "10", "11", "4", "2", "3", "7", "1", "2"], "time": [1481, 1812, 2171, 2318, 2972, 3371, 3453, 3845, 4306, 4824, 5155]}, "edge": {"target": [], "time": []}}}, "displayed_time": "9.38", "trialTime": 9650, "trial_type": "mouselab-mdp", "trial_index": 71, "time_elapsed": 1286408, "internal_node_id": "0.0-4.0-5.0-0.0"}}, {"uniqueid": "w38554829:a12912973", "current_trial": 72, "dateTime": 1664556204869, "trialdata": {"revealed_states": [], "num_clicks_accrued": [0, 0, 0, 0, 0, 0, 0, 0, 0, 0, 0, 0, 0], "stateRewards": ["", -2, 8, -48, 48, -4, -8, 24, 24, -2, -4, 48, -48], "withholdReward": true, "trial_id": "mdp_867247318592", "block": "test3", "trialIndex": 63, "score": 58.5, "costs": -0.5, "simulationMode": [null, null, null], "rewards": [-2, 8, 48], "path": ["0", "0", "1", "2", "4"], "rt": [2300, 432, 190], "actions": ["up", "up", "left"], "actionTimes": [4624, 5576, 6280], "queries": {"click": {"state": {"target": ["3", "4"], "time": [2691, 3365]}, "edge": {"target": [], "time": []}}, "mouseover": {"state": {"target": ["3", "2", "4"], "time": [2533, 3045, 3253]}, "edge": {"target": [], "time": []}}, "mouseout": {"state": {"target": ["0", "3", "2", "3", "3", "3", "2", "4", "9"], "time": [279, 769, 954, 1569, 1992, 3010, 3171, 3679, 6861]}, "edge": {"target": [], "time": []}}}, "displayed_time": "10.32", "trialTime": 10651, "trial_type": "mouselab-mdp", "trial_index": 72, "time_elapsed": 1297164, "internal_node_id": "0.0-4.0-5.0-1.0"}}, {"uniqueid": "w38554829:a12912973", "current_trial": 73, "dateTime": 1664556216771, "trialdata": {"revealed_states": [], "num_clicks_accrued": [0, 0, 0, 0, 0, 0, 0, 0, 0, 0, 0, 0, 0], "stateRewards": ["", 2, -4, -24, 24, 2, 8, 48, 48, 2, -8, 48, -24], "withholdReward": true, "trial_id": "mdp_330392242530", "block": "test3", "trialIndex": 64, "score": 46.5, "costs": -0.5, "simulationMode": [null, null, null], "rewards": [2, -8, 48], "path": ["0", "0", "9", "10", "11"], "rt": [1669, 521, 189], "actions": ["left", "left", "up"], "actionTimes": [3897, 4944, 5648], "queries": {"click": {"state": {"target": ["12", "11"], "time": [2585, 3129]}, "edge": {"target": [], "time": []}}, "mouseover": {"state": {"target": ["0", "12", "10", "11", "4"], "time": [2306, 2458, 2881, 3007, 3522]}, "edge": {"target": [], "time": []}}, "mouseout": {"state": {"target": ["12", "10", "10", "12", "10", "10", "12", "0", "12", "10", "11", "4"], "time": [552, 705, 879, 1221, 1284, 1561, 1866, 2317, 2846, 2940, 3303, 4033]}, "edge": {"target": [], "time": []}}}, "displayed_time": "11.23", "trialTime": 11552, "trial_type": "mouselab-mdp", "trial_index": 73, "time_elapsed": 1309065, "internal_node_id": "0.0-4.0-5.0-2.0"}}, {"uniqueid": "w38554829:a12912973", "current_trial": 74, "dateTime": 1664556228226, "trialdata": {"revealed_states": [], "num_clicks_accrued": [0, 0, 0, 0, 0, 0, 0, 0, 0, 0, 0, 0, 0], "stateRewards": ["", 4, 4, 48, -48, -2, 4, 48, -48, -4, 4, -24, -24], "withholdReward": true, "trial_id": "mdp_753324812898", "block": "test3", "trialIndex": 65, "score": 54.5, "costs": -0.5, "simulationMode": [null, null, null], "rewards": [-2, 4, 48], "path": ["0", "0", "5", "6", "7"], "rt": [2131, 136, 21], "actions": ["right", "right", "up"], "actionTimes": [4598, 5301, 5845], "queries": {"click": {"state": {"target": ["8", "7"], "time": [3176, 3692]}, "edge": {"target": [], "time": []}}, "mouseover": {"state": {"target": ["8", "8", "6", "7"], "time": [2578, 3047, 3434, 3545]}, "edge": {"target": [], "time": []}}, "mouseout": {"state": {"target": ["8", "8", "0", "8", "8", "6", "7", "6"], "time": [849, 2140, 2526, 2725, 3396, 3483, 4760, 4893]}, "edge": {"target": [], "time": []}}}, "displayed_time": "10.63", "trialTime": 11333, "trial_type": "mouselab-mdp", "trial_index": 74, "time_elapsed": 1320521, "internal_node_id": "0.0-4.0-5.0-3.0"}}, {"uniqueid": "w38554829:a12912973", "current_trial": 75, "dateTime": 1664556238210, "trialdata": {"revealed_states": [], "num_clicks_accrued": [0, 0, 0, 0, 0, 0, 0, 0, 0, 0, 0, 0, 0], "stateRewards": ["", 2, 8, 24, 24, 2, -8, -24, -48, 2, 8, -48, 48], "withholdReward": false, "trial_id": "mdp_745175888812", "block": "test3", "trialIndex": 66, "score": 62.25, "costs": -0.75, "simulationMode": [null, null, null], "rewards": [2, 8, 48], "path": ["0", "0", "9", "10", "12"], "rt": [3010, 608, 257], "actions": ["left", "left", "down"], "actionTimes": [3741, 4892, 5660], "queries": {"click": {"state": {"target": ["7", "8", "12"], "time": [1555, 2293, 2971]}, "edge": {"target": [], "time": []}}, "mouseover": {"state": {"target": ["5", "7", "6", "8", "8", "12", "10", "10"], "time": [926, 1251, 1729, 1811, 2207, 2708, 3363, 3519]}, "edge": {"target": [], "time": []}}, "mouseout": {"state": {"target": ["0", "5", "7", "6", "8", "8", "12", "10", "10"], "time": [542, 1072, 1692, 1784, 1839, 2615, 3319, 3410, 3542]}, "edge": {"target": [], "time": []}}}, "displayed_time": "8.73", "trialTime": 9612, "trial_type": "mouselab-mdp", "trial_index": 75, "time_elapsed": 1330505, "internal_node_id": "0.0-4.0-5.0-4.0"}}, {"uniqueid": "w38554829:a12912973", "current_trial": 76, "dateTime": 1664556251802, "trialdata": {"revealed_states": [], "num_clicks_accrued": [0, 0, 0, 0, 0, 0, 0, 0, 0, 0, 0, 0, 0], "stateRewards": ["", -2, 8, 48, 24, 2, -4, 48, -48, 2, 8, 24, -24], "withholdReward": true, "trial_id": "mdp_176207245985", "block": "test3", "trialIndex": 67, "score": 58, "costs": -1, "simulationMode": [null, null, null], "rewards": [-2, 8, 48], "path": ["0", "0", "1", "2", "3"], "rt": [2738, 563, 311], "actions": ["up", "up", "right"], "actionTimes": [5876, 6957, 7781], "queries": {"click": {"state": {"target": ["12", "11", "4", "3"], "time": [3434, 3979, 4459, 5055]}, "edge": {"target": [], "time": []}}, "mouseover": {"state": {"target": ["12", "10", "11", "4", "2", "3", "7"], "time": [3266, 3758, 3870, 4259, 4805, 4855, 5385]}, "edge": {"target": [], "time": []}}, "mouseout": {"state": {"target": ["0", "12", "0", "12", "10", "11", "4", "2", "3", "7", "5"], "time": [987, 2776, 3209, 3734, 3821, 4189, 4788, 4834, 5227, 5656, 6075]}, "edge": {"target": [], "time": []}}}, "displayed_time": "13.14", "trialTime": 13493, "trial_type": "mouselab-mdp", "trial_index": 76, "time_elapsed": 1344097, "internal_node_id": "0.0-4.0-5.0-5.0"}}, {"uniqueid": "w38554829:a12912973", "current_trial": 77, "dateTime": 1664556261058, "trialdata": {"revealed_states": [], "num_clicks_accrued": [0, 0, 0, 0, 0, 0, 0, 0, 0, 0, 0, 0, 0], "stateRewards": ["", -2, 8, 48, 24, 2, -8, -24, -48, -4, 8, -48, 24], "withholdReward": true, "trial_id": "mdp_224053025943", "block": "test3", "trialIndex": 68, "score": 58, "costs": -1, "simulationMode": [null, null, null], "rewards": [-2, 8, 48], "path": ["0", "0", "1", "2", "3"], "rt": [2957, 596, 448], "actions": ["up", "up", "right"], "actionTimes": [3738, 4850, 5810], "queries": {"click": {"state": {"target": ["12", "11", "4", "3"], "time": [1456, 1942, 2330, 2994]}, "edge": {"target": [], "time": []}}, "mouseover": {"state": {"target": ["9", "12", "10", "11", "4", "2", "3", "3", "7"], "time": [1176, 1296, 1710, 1802, 2189, 2547, 2588, 2900, 3479]}, "edge": {"target": [], "time": []}}, "mouseout": {"state": {"target": ["0", "9", "12", "10", "11", "4", "2", "3", "3", "7", "5", "0"], "time": [619, 1220, 1690, 1744, 2122, 2516, 2575, 2617, 3201, 3744, 3882, 6375]}, "edge": {"target": [], "time": []}}}, "displayed_time": "8.78", "trialTime": 9130, "trial_type": "mouselab-mdp", "trial_index": 77, "time_elapsed": 1353353, "internal_node_id": "0.0-4.0-5.0-6.0"}}, {"uniqueid": "w38554829:a12912973", "current_trial": 78, "dateTime": 1664556272225, "trialdata": {"revealed_states": [], "num_clicks_accrued": [0, 0, 0, 0, 0, 0, 0, 0, 0, 0, 0, 0, 0], "stateRewards": ["", 2, 4, 48, 48, 4, -8, 24, -48, -4, -8, -24, -48], "withholdReward": false, "trial_id": "mdp_343818007251", "block": "test3", "trialIndex": 69, "score": 58.25, "costs": -0.75, "simulationMode": [null, null, null], "rewards": [2, 4, 48], "path": ["0", "0", "1", "2", "4"], "rt": [2541, 64, 187], "actions": ["up", "up", "left"], "actionTimes": [4261, 4996, 5700], "queries": {"click": {"state": {"target": ["11", "12", "4"], "time": [2320, 2725, 3394]}, "edge": {"target": [], "time": []}}, "mouseover": {"state": {"target": ["0", "9", "11", "10", "12", "4", "2", "3", "1"], "time": [1974, 2093, 2186, 2518, 2644, 3261, 3623, 3701, 4038]}, "edge": {"target": [], "time": []}}, "mouseout": {"state": {"target": ["0", "0", "9", "11", "10", "12", "4", "2", "3", "1", "0"], "time": [1520, 2062, 2107, 2478, 2579, 2907, 3592, 3673, 3991, 4107, 4407]}, "edge": {"target": [], "time": []}}}, "displayed_time": "10.72", "trialTime": 11059, "trial_type": "mouselab-mdp", "trial_index": 78, "time_elapsed": 1364520, "internal_node_id": "0.0-4.0-5.0-7.0"}}, {"uniqueid": "w38554829:a12912973", "current_trial": 79, "dateTime": 1664556281356, "trialdata": {"revealed_states": [], "num_clicks_accrued": [0, 0, 0, 0, 0, 0, 0, 0, 0, 0, 0, 0, 0], "stateRewards": ["", -4, -8, 48, -24, 4, -8, 48, 48, -2, 4, -48, -24], "withholdReward": true, "trial_id": "mdp_925905402462", "block": "test3", "trialIndex": 70, "score": 40.5, "costs": -0.5, "simulationMode": [null, null, null], "rewards": [-4, -8, 48], "path": ["0", "0", "1", "2", "3"], "rt": [1565, 167, 378], "actions": ["up", "up", "right"], "actionTimes": [1903, 2767, 3663], "queries": {"click": {"state": {"target": ["4", "3"], "time": [942, 1437]}, "edge": {"target": [], "time": []}}, "mouseover": {"state": {"target": ["1", "4", "2", "3"], "time": [557, 807, 1172, 1262]}, "edge": {"target": [], "time": []}}, "mouseout": {"state": {"target": ["0", "1", "4", "2", "3"], "time": [4, 652, 1119, 1225, 1791]}, "edge": {"target": [], "time": []}}}, "displayed_time": "8.34", "trialTime": 8706, "trial_type": "mouselab-mdp", "trial_index": 79, "time_elapsed": 1373651, "internal_node_id": "0.0-4.0-5.0-8.0"}}, {"uniqueid": "w38554829:a12912973", "current_trial": 80, "dateTime": 1664556290321, "trialdata": {"revealed_states": [], "num_clicks_accrued": [0, 0, 0, 0, 0, 0, 0, 0, 0, 0, 0, 0, 0], "stateRewards": ["", 4, 4, 48, -48, -2, -8, -48, -24, 2, 4, -24, -48], "withholdReward": true, "trial_id": "mdp_239929662917", "block": "test3", "trialIndex": 71, "score": 60.25, "costs": -0.75, "simulationMode": [null, null, null], "rewards": [4, 4, 48], "path": ["0", "0", "1", "2", "3"], "rt": [2304, 336, 123], "actions": ["up", "up", "right"], "actionTimes": [2710, 3598, 4238], "queries": {"click": {"state": {"target": ["8", "7", "3"], "time": [1046, 1551, 2092]}, "edge": {"target": [], "time": []}}, "mouseover": {"state": {"target": ["5", "8", "6", "7", "3", "2"], "time": [648, 926, 1318, 1430, 1906, 2303]}, "edge": {"target": [], "time": []}}, "mouseout": {"state": {"target": ["0", "5", "8", "6", "7", "3", "2", "1", "0"], "time": [562, 861, 1287, 1368, 1793, 2265, 2408, 2918, 3081]}, "edge": {"target": [], "time": []}}}, "displayed_time": "8.41", "trialTime": 8710, "trial_type": "mouselab-mdp", "trial_index": 80, "time_elapsed": 1382615, "internal_node_id": "0.0-4.0-5.0-9.0"}}, {"uniqueid": "w38554829:a12912973", "current_trial": 81, "dateTime": 1664556299313, "trialdata": {"revealed_states": [], "num_clicks_accrued": [0, 0, 0, 0, 0, 0, 0, 0, 0, 0, 0, 0, 0], "stateRewards": ["", 2, 4, 48, -24, 2, -8, -24, -24, 2, -8, -24, -48], "withholdReward": true, "trial_id": "mdp_274832552938", "block": "test3", "trialIndex": 72, "score": 58.5, "costs": -0.5, "simulationMode": [null, null, null], "rewards": [2, 4, 48], "path": ["0", "0", "1", "2", "3"], "rt": [2361, 551, 38], "actions": ["up", "up", "right"], "actionTimes": [2595, 3874, 4579], "queries": {"click": {"state": {"target": ["4", "3"], "time": [828, 1336]}, "edge": {"target": [], "time": []}}, "mouseover": {"state": {"target": ["1", "4", "2", "3"], "time": [547, 702, 1041, 1256]}, "edge": {"target": [], "time": []}}, "mouseout": {"state": {"target": ["0", "1", "4", "2", "3", "5"], "time": [494, 583, 1011, 1154, 1585, 3249]}, "edge": {"target": [], "time": []}}}, "displayed_time": "8.23", "trialTime": 8626, "trial_type": "mouselab-mdp", "trial_index": 81, "time_elapsed": 1391607, "internal_node_id": "0.0-4.0-5.0-10.0"}}, {"uniqueid": "w38554829:a12912973", "current_trial": 82, "dateTime": 1664556308376, "trialdata": {"revealed_states": [], "num_clicks_accrued": [0, 0, 0, 0, 0, 0, 0, 0, 0, 0, 0, 0, 0], "stateRewards": ["", 2, 8, -48, -24, 4, 4, 24, 48, 4, -4, -48, 48], "withholdReward": true, "trial_id": "mdp_665096999232", "block": "test3", "trialIndex": 73, "score": 60, "costs": -1, "simulationMode": [null, null, null], "rewards": [4, 4, 48], "path": ["0", "0", "5", "6", "8"], "rt": [2540, 57, 416], "actions": ["right", "right", "down"], "actionTimes": [3114, 3690, 4618], "queries": {"click": {"state": {"target": ["4", "3", "7", "8"], "time": [1024, 1476, 2014, 2552]}, "edge": {"target": [], "time": []}}, "mouseover": {"state": {"target": ["1", "4", "2", "3", "7", "6", "8"], "time": [737, 890, 1226, 1352, 1850, 2218, 2386]}, "edge": {"target": [], "time": []}}, "mouseout": {"state": {"target": ["0", "1", "4", "2", "3", "7", "6", "8"], "time": [417, 776, 1187, 1290, 1781, 2183, 2262, 2786]}, "edge": {"target": [], "time": []}}}, "displayed_time": "8.58", "trialTime": 8953, "trial_type": "mouselab-mdp", "trial_index": 82, "time_elapsed": 1400671, "internal_node_id": "0.0-4.0-5.0-11.0"}}, {"uniqueid": "w38554829:a12912973", "current_trial": 83, "dateTime": 1664556319545, "trialdata": {"revealed_states": [], "num_clicks_accrued": [0, 0, 0, 0, 0, 0, 0, 0, 0, 0, 0, 0, 0], "stateRewards": ["", 2, 8, -24, -48, 2, 4, -24, 48, 2, -8, 48, -24], "withholdReward": true, "trial_id": "mdp_791659307216", "block": "test3", "trialIndex": 74, "score": 46.5, "costs": -0.5, "simulationMode": [null, null, null], "rewards": [2, -8, 48], "path": ["0", "0", "9", "10", "11"], "rt": [1688, 93, 479], "actions": ["left", "left", "up"], "actionTimes": [2692, 3396, 4388], "queries": {"click": {"state": {"target": ["12", "11"], "time": [1548, 2050]}, "edge": {"target": [], "time": []}}, "mouseover": {"state": {"target": ["12", "10", "11"], "time": [1381, 1819, 1922]}, "edge": {"target": [], "time": []}}, "mouseout": {"state": {"target": ["0", "0", "12", "10", "11", "9"], "time": [647, 1128, 1778, 1879, 2222, 2904]}, "edge": {"target": [], "time": []}}}, "displayed_time": "9.00", "trialTime": 11052, "trial_type": "mouselab-mdp", "trial_index": 83, "time_elapsed": 1411840, "internal_node_id": "0.0-4.0-5.0-12.0"}}, {"uniqueid": "w38554829:a12912973", "current_trial": 84, "dateTime": 1664556328608, "trialdata": {"revealed_states": [], "num_clicks_accrued": [0, 0, 0, 0, 0, 0, 0, 0, 0, 0, 0, 0, 0], "stateRewards": ["", 4, 8, 48, -48, -4, 8, -24, -24, -4, 8, 48, 48], "withholdReward": true, "trial_id": "mdp_377640328420", "block": "test3", "trialIndex": 75, "score": 56.75, "costs": -0.25, "simulationMode": [null, null, null], "rewards": [-4, 8, 48], "path": ["0", "0", "9", "10", "11"], "rt": [1239, 76, 94], "actions": ["left", "left", "up"], "actionTimes": [1779, 2579, 3187], "queries": {"click": {"state": {"target": ["11"], "time": [1021]}, "edge": {"target": [], "time": []}}, "mouseover": {"state": {"target": ["9", "11", "10", "12"], "time": [708, 901, 1200, 1412]}, "edge": {"target": [], "time": []}}, "mouseout": {"state": {"target": ["0", "9", "11", "10", "12"], "time": [398, 770, 1174, 1260, 2190]}, "edge": {"target": [], "time": []}}}, "displayed_time": "8.54", "trialTime": 8962, "trial_type": "mouselab-mdp", "trial_index": 84, "time_elapsed": 1420903, "internal_node_id": "0.0-4.0-5.0-13.0"}}, {"uniqueid": "w38554829:a12912973", "current_trial": 85, "dateTime": 1664556339137, "trialdata": {"revealed_states": [], "num_clicks_accrued": [0, 0, 0, 0, 0, 0, 0, 0, 0, 0, 0, 0, 0], "stateRewards": ["", -2, 8, -24, 48, -4, 4, -48, 24, 4, -8, 48, -24], "withholdReward": true, "trial_id": "mdp_425320427962", "block": "test3", "trialIndex": 76, "score": 48.5, "costs": -0.5, "simulationMode": [null, null, null], "rewards": [4, -8, 48], "path": ["0", "0", "9", "10", "11"], "rt": [1817, 83, 53], "actions": ["left", "left", "up"], "actionTimes": [2792, 3400, 3968], "queries": {"click": {"state": {"target": ["12", "11"], "time": [1478, 2176]}, "edge": {"target": [], "time": []}}, "mouseover": {"state": {"target": ["12", "10", "11"], "time": [1305, 1794, 2080]}, "edge": {"target": [], "time": []}}, "mouseout": {"state": {"target": ["0", "9", "0", "12", "10", "11", "9"], "time": [429, 574, 1049, 1760, 1858, 2601, 2964]}, "edge": {"target": [], "time": []}}}, "displayed_time": "10.09", "trialTime": 10415, "trial_type": "mouselab-mdp", "trial_index": 85, "time_elapsed": 1431432, "internal_node_id": "0.0-4.0-5.0-14.0"}}, {"uniqueid": "w38554829:a12912973", "current_trial": 86, "dateTime": 1664556349160, "trialdata": {"revealed_states": [], "num_clicks_accrued": [0, 0, 0, 0, 0, 0, 0, 0, 0, 0, 0, 0, 0], "stateRewards": ["", 4, 8, -24, 48, -2, -4, 24, -24, -2, 4, 24, 24], "withholdReward": false, "trial_id": "mdp_948713805479", "block": "test3", "trialIndex": 77, "score": 64.25, "costs": -0.75, "simulationMode": [null, null, null], "rewards": [4, 8, 48], "path": ["0", "0", "1", "2", "4"], "rt": [2505, 566, 239], "actions": ["up", "up", "left"], "actionTimes": [2823, 3975, 4735], "queries": {"click": {"state": {"target": ["12", "11", "4"], "time": [798, 1297, 1773]}, "edge": {"target": [], "time": []}}, "mouseover": {"state": {"target": ["9", "12", "10", "11", "4", "2", "3"], "time": [477, 749, 1069, 1183, 1633, 1984, 2117]}, "edge": {"target": [], "time": []}}, "mouseout": {"state": {"target": ["0", "9", "12", "10", "11", "4", "2", "3", "0"], "time": [445, 522, 1008, 1144, 1465, 1949, 2030, 2305, 3211]}, "edge": {"target": [], "time": []}}}, "displayed_time": "9.32", "trialTime": 9590, "trial_type": "mouselab-mdp", "trial_index": 86, "time_elapsed": 1441455, "internal_node_id": "0.0-4.0-5.0-15.0"}}, {"uniqueid": "w38554829:a12912973", "current_trial": 87, "dateTime": 1664556359400, "trialdata": {"revealed_states": [], "num_clicks_accrued": [0, 0, 0, 0, 0, 0, 0, 0, 0, 0, 0, 0, 0], "stateRewards": ["", -2, -4, 48, -24, 2, -4, -24, -48, 2, 8, -48, -24], 