{"condition": 1, "counterbalance": 0, "assignmentId": "a39673591", "workerId": "w78757160", "hitId": "h28503292", "currenttrial": 137, "bonus": 0, "data": [{"uniqueid": "w78757160:a39673591", "current_trial": 0, "dateTime": 1664554949315, "trialdata": {"success": true, "trial_type": "fullscreen", "trial_index": 0, "time_elapsed": 5724, "internal_node_id": "0.0-0.0"}}, {"uniqueid": "w78757160:a39673591", "current_trial": 1, "dateTime": 1664554972707, "trialdata": {"view_history": [{"page_index": 0, "viewing_time": 23385}], "rt": 23386, "trial_id": "exp_instructions_no_distractor", "trial_type": "instructions", "trial_index": 1, "time_elapsed": 29116, "internal_node_id": "0.0-1.0"}}, {"uniqueid": "w78757160:a39673591", "current_trial": 2, "dateTime": 1664554976991, "trialdata": {"success": true, "trial_type": "fullscreen", "trial_index": 2, "time_elapsed": 33400, "internal_node_id": "0.0-2.0-0.0"}}, {"uniqueid": "w78757160:a39673591", "current_trial": 3, "dateTime": 1664555156776, "trialdata": {"view_history": [{"page_index": 0, "viewing_time": 104492}, {"page_index": 1, "viewing_time": 33670}, {"page_index": 2, "viewing_time": 11998}, {"page_index": 3, "viewing_time": 6047}, {"page_index": 4, "viewing_time": 23577}], "rt": 179784, "trial_id": "mouselab_instructions_1", "trial_type": "instructions", "trial_index": 3, "time_elapsed": 213185, "internal_node_id": "0.0-2.0-1.0"}}, {"uniqueid": "w78757160:a39673591", "current_trial": 4, "dateTime": 1664555167800, "trialdata": {"revealed_states": [], "num_clicks_accrued": [0, 0, 0, 0, 0, 0, 0, 0, 0, 0, 0, 0, 0], "stateRewards": ["", -10, -10, 10, -10, -10, -10, -10, 10, 10, 10, 10, 10], "withholdReward": false, "trial_id": "practice_1", "block": "test", "trialIndex": 0, "score": -28, "costs": 0, "simulationMode": [null, null, null], "rewards": [-10, -10, -10], "path": ["0", "0", "5", "6", "7"], "rt": [1291, 982, 1023], "actions": ["right", "right", "up"], "actionTimes": [3834, 5333, 6858], "queries": {"click": {"state": {"target": [], "time": []}, "edge": {"target": [], "time": []}}, "mouseover": {"state": {"target": [], "time": []}, "edge": {"target": [], "time": []}}, "mouseout": {"state": {"target": [], "time": []}, "edge": {"target": [], "time": []}}}, "displayed_time": "7.37", "trialTime": 10753, "trial_type": "mouselab-mdp", "trial_index": 4, "time_elapsed": 224208, "internal_node_id": "0.0-2.0-2.0-0.0"}}, {"uniqueid": "w78757160:a39673591", "current_trial": 5, "dateTime": 1664555186581, "trialdata": {"revealed_states": [], "num_clicks_accrued": [0, 0, 0, 0, 0, 0, 0, 0, 0, 0, 0, 0, 0], "stateRewards": ["", -10, -10, 10, -10, -10, -10, 10, -10, -10, 10, 10, -10], "withholdReward": false, "trial_id": "practice_2", "block": "test", "trialIndex": 1, "score": -28, "costs": 0, "simulationMode": [null, null, null], "rewards": [-10, -10, -10], "path": ["0", "0", "1", "2", "4"], "rt": [14132, 321, 7], "actions": ["up", "up", "left"], "actionTimes": [15473, 16295, 16815], "queries": {"click": {"state": {"target": [], "time": []}, "edge": {"target": [], "time": []}}, "mouseover": {"state": {"target": ["8"], "time": [1909]}, "edge": {"target": [], "time": []}}, "mouseout": {"state": {"target": ["0", "8"], "time": [1776, 18029]}, "edge": {"target": [], "time": []}}}, "displayed_time": "17.34", "trialTime": 18727, "trial_type": "mouselab-mdp", "trial_index": 5, "time_elapsed": 242990, "internal_node_id": "0.0-2.0-2.0-1.0"}}, {"uniqueid": "w78757160:a39673591", "current_trial": 6, "dateTime": 1664555261768, "trialdata": {"view_history": [{"page_index": 0, "viewing_time": 41460}, {"page_index": 1, "viewing_time": 20500}, {"page_index": 2, "viewing_time": 13224}], "rt": 75185, "trial_id": "mouselab_instructions_2_scarce", "trial_type": "instructions", "trial_index": 6, "time_elapsed": 318177, "internal_node_id": "0.0-2.0-3.0"}}, {"uniqueid": "w78757160:a39673591", "current_trial": 7, "dateTime": 1664555299952, "trialdata": {"rt": 38181, "response": {"Q0": "$-48 to $48", "Q1": "The cost is always $0.25.", "Q2": "The better I perform the higher my bonus will be.", "Q3": "No, the amount of cash at each node of the web may be different each time.", "Q4": "The values of the nodes walked through from start to finish.", "Q5": "No, the spider might forget to count the money on some rounds."}, "question_order": [0, 1, 2, 3, 4, 5], "correct": {"Q0": "$-48 to $48", "Q1": "The cost is always $0.25.", "Q2": "The better I perform the higher my bonus will be.", "Q3": "No, the amount of cash at each node of the web may be different each time.", "Q4": "The values of the nodes walked through from start to finish.", "Q5": "No, the spider might forget to count the money on some rounds."}, "trial_id": "mouselab_quiz_scarce", "trial_type": "survey-multi-choice", "trial_index": 7, "time_elapsed": 356361, "internal_node_id": "0.0-2.0-4.0"}}, {"uniqueid": "w78757160:a39673591", "current_trial": 8, "dateTime": 1664555316545, "trialdata": {"rt": 16584, "stimulus": "\n<h1> Get ready to start the game! </h1>\n\nThank you for reading the instructions. Get ready start with the first of 4 block(s) of this game.\n<br><br>\nIn this first block, you will complete 30 rounds of this game before moving on.\n<br><br>\nRemember, the more money the spider gets, the bigger your bonus will be!\n<br><br>\n<div style='text-align: center;'>Press <code>space</code> to begin.</div>\n\n<br><br>\n(If, at any point, the <code>space</code> key does not take you to the next page, click once on the text and try again.)", "response": " ", "trial_id": "mdp_ready_1", "trial_type": "html-keyboard-response", "trial_index": 8, "time_elapsed": 372954, "internal_node_id": "0.0-4.0-0.0"}}, {"uniqueid": "w78757160:a39673591", "current_trial": 9, "dateTime": 1664555330819, "trialdata": {"revealed_states": [], "num_clicks_accrued": [0, 0, 0, 0, 0, 0, 0, 0, 0, 0, 0, 0, 0], "stateRewards": ["", 2, 4, 48, -24, 2, -8, -24, -24, 2, -8, -24, -48], "withholdReward": false, "trial_id": "mdp_274832552938", "block": "test1", "trialIndex": 2, "score": -25.25, "costs": -0.25, "simulationMode": [null, null, null], "rewards": [2, -8, -24], "path": ["0", "0", "9", "10", "11"], "rt": [4401, 1102, 991], "actions": ["left", "left", "up"], "actionTimes": [6729, 8338, 9826], "queries": {"click": {"state": {"target": ["8"], "time": [4234]}, "edge": {"target": [], "time": []}}, "mouseover": {"state": {"target": ["8"], "time": [3685]}, "edge": {"target": [], "time": []}}, "mouseout": {"state": {"target": ["0", "8"], "time": [3335, 5119]}, "edge": {"target": [], "time": []}}}, "displayed_time": "11.33", "trialTime": 14227, "trial_type": "mouselab-mdp", "trial_index": 9, "time_elapsed": 387227, "internal_node_id": "0.0-4.0-1.0-0.0"}}, {"uniqueid": "w78757160:a39673591", "current_trial": 10, "dateTime": 1664555347492, "trialdata": {"revealed_states": [], "num_clicks_accrued": [0, 0, 0, 0, 0, 0, 0, 0, 0, 0, 0, 0, 0], "stateRewards": ["", 4, 8, 48, -48, -4, 8, -24, -24, -4, 8, 48, 48], "withholdReward": true, "trial_id": "mdp_377640328420", "block": "test1", "trialIndex": 3, "score": 57, "costs": 0, "simulationMode": [null, null, null], "rewards": [-4, 8, 48], "path": ["0", "0", "9", "10", "12"], "rt": [2785, 438, 351], "actions": ["left", "left", "down"], "actionTimes": [6667, 7599, 8446], "queries": {"click": {"state": {"target": [], "time": []}, "edge": {"target": [], "time": []}}, "mouseover": {"state": {"target": [], "time": []}, "edge": {"target": [], "time": []}}, "mouseout": {"state": {"target": ["6", "5", "0"], "time": [3061, 3228, 3562]}, "edge": {"target": [], "time": []}}}, "displayed_time": "13.88", "trialTime": 16629, "trial_type": "mouselab-mdp", "trial_index": 10, "time_elapsed": 403901, "internal_node_id": "0.0-4.0-1.0-1.0"}}, {"uniqueid": "w78757160:a39673591", "current_trial": 11, "dateTime": 1664555359512, "trialdata": {"revealed_states": [], "num_clicks_accrued": [0, 0, 0, 0, 0, 0, 0, 0, 0, 0, 0, 0, 0], "stateRewards": ["", 2, -4, 48, -48, 2, 4, -24, 24, -4, -8, 24, -48], "withholdReward": true, "trial_id": "mdp_238810765895", "block": "test1", "trialIndex": 4, "score": -45, "costs": 0, "simulationMode": [null, null, null], "rewards": [2, -4, -48], "path": ["0", "0", "1", "2", "4"], "rt": [2264, 792, 886], "actions": ["up", "up", "left"], "actionTimes": [3473, 4763, 6140], "queries": {"click": {"state": {"target": [], "time": []}, "edge": {"target": [], "time": []}}, "mouseover": {"state": {"target": [], "time": []}, "edge": {"target": [], "time": []}}, "mouseout": {"state": {"target": ["0"], "time": [1178]}, "edge": {"target": [], "time": []}}}, "displayed_time": "10.21", "trialTime": 11977, "trial_type": "mouselab-mdp", "trial_index": 11, "time_elapsed": 415921, "internal_node_id": "0.0-4.0-1.0-2.0"}}, {"uniqueid": "w78757160:a39673591", "current_trial": 12, "dateTime": 1664555371344, "trialdata": {"revealed_states": [], "num_clicks_accrued": [0, 0, 0, 0, 0, 0, 0, 0, 0, 0, 0, 0, 0], "stateRewards": ["", 2, -4, -48, -48, -2, -4, -24, -48, -2, 8, 24, 24], "withholdReward": false, "trial_id": "mdp_656069446729", "block": "test1", "trialIndex": 5, "score": -45, "costs": 0, "simulationMode": [null, null, null], "rewards": [2, -4, -48], "path": ["0", "0", "1", "2", "3"], "rt": [1196, 700, 799], "actions": ["up", "up", "right"], "actionTimes": [3542, 4750, 6050], "queries": {"click": {"state": {"target": [], "time": []}, "edge": {"target": [], "time": []}}, "mouseover": {"state": {"target": [], "time": []}, "edge": {"target": [], "time": []}}, "mouseout": {"state": {"target": ["0"], "time": [2314]}, "edge": {"target": [], "time": []}}}, "displayed_time": "10.35", "trialTime": 11774, "trial_type": "mouselab-mdp", "trial_index": 12, "time_elapsed": 427753, "internal_node_id": "0.0-4.0-1.0-3.0"}}, {"uniqueid": "w78757160:a39673591", "current_trial": 13, "dateTime": 1664555385242, "trialdata": {"revealed_states": [], "num_clicks_accrued": [0, 0, 0, 0, 0, 0, 0, 0, 0, 0, 0, 0, 0], "stateRewards": ["", -2, -4, -48, 48, -2, -4, 24, 48, -4, -8, -24, 24], "withholdReward": true, "trial_id": "mdp_917590390609", "block": "test1", "trialIndex": 6, "score": 46.75, "costs": -0.25, "simulationMode": [null, null, null], "rewards": [-2, -4, 48], "path": ["0", "0", "5", "6", "8"], "rt": [4265, 398, 425], "actions": ["right", "right", "down"], "actionTimes": [6917, 7813, 8756], "queries": {"click": {"state": {"target": ["8"], "time": [4928]}, "edge": {"target": [], "time": []}}, "mouseover": {"state": {"target": ["0", "8"], "time": [4282, 4597]}, "edge": {"target": [], "time": []}}, "mouseout": {"state": {"target": ["0", "0", "8"], "time": [2613, 4298, 5665]}, "edge": {"target": [], "time": []}}}, "displayed_time": "9.65", "trialTime": 13853, "trial_type": "mouselab-mdp", "trial_index": 13, "time_elapsed": 441651, "internal_node_id": "0.0-4.0-1.0-4.0"}}, {"uniqueid": "w78757160:a39673591", "current_trial": 14, "dateTime": 1664555397581, "trialdata": {"revealed_states": [], "num_clicks_accrued": [0, 0, 0, 0, 0, 0, 0, 0, 0, 0, 0, 0, 0], "stateRewards": ["", -2, 4, -24, -24, -2, 4, 48, 24, -4, -8, 24, -48], "withholdReward": true, "trial_id": "mdp_191839460481", "block": "test1", "trialIndex": 7, "score": 54.75, "costs": -0.25, "simulationMode": [null, null, null], "rewards": [-2, 4, 48], "path": ["0", "0", "5", "6", "7"], "rt": [4178, 541, 407], "actions": ["right", "right", "up"], "actionTimes": [7679, 8723, 9638], "queries": {"click": {"state": {"target": ["4"], "time": [5451]}, "edge": {"target": [], "time": []}}, "mouseover": {"state": {"target": ["1", "4"], "time": [4632, 4798]}, "edge": {"target": [], "time": []}}, "mouseout": {"state": {"target": ["0", "0", "1", "4"], "time": [3115, 4231, 4648, 5981]}, "edge": {"target": [], "time": []}}}, "displayed_time": "10.50", "trialTime": 12295, "trial_type": "mouselab-mdp", "trial_index": 14, "time_elapsed": 453990, "internal_node_id": "0.0-4.0-1.0-5.0"}}, {"uniqueid": "w78757160:a39673591", "current_trial": 15, "dateTime": 1664555408295, "trialdata": {"revealed_states": [], "num_clicks_accrued": [0, 0, 0, 0, 0, 0, 0, 0, 0, 0, 0, 0, 0], "stateRewards": ["", -4, 4, 48, 24, -4, 4, -24, 48, -2, -8, 24, -48], "withholdReward": true, "trial_id": "mdp_261501605436", "block": "test1", "trialIndex": 8, "score": 18.75, "costs": -0.25, "simulationMode": [null, null, null], "rewards": [-2, -8, 24], "path": ["0", "0", "9", "10", "11"], "rt": [4230, 319, 582], "actions": ["left", "left", "up"], "actionTimes": [5611, 6441, 7521], "queries": {"click": {"state": {"target": ["11"], "time": [4132]}, "edge": {"target": [], "time": []}}, "mouseover": {"state": {"target": ["11", "9"], "time": [2673, 4672]}, "edge": {"target": [], "time": []}}, "mouseout": {"state": {"target": ["0", "11", "9"], "time": [1107, 4625, 4689]}, "edge": {"target": [], "time": []}}}, "displayed_time": "8.38", "trialTime": 10668, "trial_type": "mouselab-mdp", "trial_index": 15, "time_elapsed": 464704, "internal_node_id": "0.0-4.0-1.0-6.0"}}, {"uniqueid": "w78757160:a39673591", "current_trial": 16, "dateTime": 1664555422468, "trialdata": {"revealed_states": [], "num_clicks_accrued": [0, 0, 0, 0, 0, 0, 0, 0, 0, 0, 0, 0, 0], "stateRewards": ["", -4, -4, -24, 24, 4, 4, -24, -24, -4, 4, 24, 24], "withholdReward": false, "trial_id": "mdp_787781487383", "block": "test1", "trialIndex": 9, "score": 20.75, "costs": -0.25, "simulationMode": [null, null, null], "rewards": [-4, -4, 24], "path": ["0", "0", "1", "2", "4"], "rt": [6007, 492, 559], "actions": ["up", "up", "left"], "actionTimes": [7388, 8368, 9417], "queries": {"click": {"state": {"target": ["4"], "time": [4689]}, "edge": {"target": [], "time": []}}, "mouseover": {"state": {"target": ["1", "2", "4", "1"], "time": [3075, 3358, 4141, 5574]}, "edge": {"target": [], "time": []}}, "mouseout": {"state": {"target": ["0", "1", "2", "4", "1"], "time": [1141, 3158, 4058, 5541, 5624]}, "edge": {"target": [], "time": []}}}, "displayed_time": "9.91", "trialTime": 14127, "trial_type": "mouselab-mdp", "trial_index": 16, "time_elapsed": 478877, "internal_node_id": "0.0-4.0-1.0-7.0"}}, {"uniqueid": "w78757160:a39673591", "current_trial": 17, "dateTime": 1664555438046, "trialdata": {"revealed_states": [], "num_clicks_accrued": [0, 0, 0, 0, 0, 0, 0, 0, 0, 0, 0, 0, 0], "stateRewards": ["", -2, 8, 48, 48, 2, 4, -48, 24, -4, -8, 48, 24], "withholdReward": false, "trial_id": "mdp_572910394648", "block": "test1", "trialIndex": 10, "score": 34.75, "costs": -0.25, "simulationMode": [null, null, null], "rewards": [2, 4, 24], "path": ["0", "0", "5", "6", "8"], "rt": [2893, 486, 773], "actions": ["right", "right", "down"], "actionTimes": [6422, 7411, 8698], "queries": {"click": {"state": {"target": ["7"], "time": [4996]}, "edge": {"target": [], "time": []}}, "mouseover": {"state": {"target": ["7"], "time": [4725]}, "edge": {"target": [], "time": []}}, "mouseout": {"state": {"target": ["0", "7", "5"], "time": [4381, 13959, 14058]}, "edge": {"target": [], "time": []}}}, "displayed_time": "12.53", "trialTime": 15525, "trial_type": "mouselab-mdp", "trial_index": 17, "time_elapsed": 494455, "internal_node_id": "0.0-4.0-1.0-8.0"}}, {"uniqueid": "w78757160:a39673591", "current_trial": 18, "dateTime": 1664555452933, "trialdata": {"revealed_states": [], "num_clicks_accrued": [0, 0, 0, 0, 0, 0, 0, 0, 0, 0, 0, 0, 0], "stateRewards": ["", 4, -8, 24, 48, 2, -4, 48, 48, 4, -8, 48, 48], "withholdReward": true, "trial_id": "mdp_962498334245", "block": "test1", "trialIndex": 11, "score": 49, "costs": 0, "simulationMode": [null, null, null], "rewards": [4, -8, 48], "path": ["0", "0", "1", "2", "4"], "rt": [2682, 426, 400], "actions": ["up", "up", "left"], "actionTimes": [6605, 7527, 8418], "queries": {"click": {"state": {"target": [], "time": []}, "edge": {"target": [], "time": []}}, "mouseover": {"state": {"target": ["4"], "time": [4601]}, "edge": {"target": [], "time": []}}, "mouseout": {"state": {"target": ["0"], "time": [4406]}, "edge": {"target": [], "time": []}}}, "displayed_time": "13.93", "trialTime": 14840, "trial_type": "mouselab-mdp", "trial_index": 18, "time_elapsed": 509342, "internal_node_id": "0.0-4.0-1.0-9.0"}}, {"uniqueid": "w78757160:a39673591", "current_trial": 19, "dateTime": 1664555464693, "trialdata": {"revealed_states": [], "num_clicks_accrued": [0, 0, 0, 0, 0, 0, 0, 0, 0, 0, 0, 0, 0], "stateRewards": ["", 2, -8, -24, -48, -2, -4, 48, 48, 4, 8, 48, 48], "withholdReward": true, "trial_id": "mdp_347285045422", "block": "test1", "trialIndex": 12, "score": 64.75, "costs": -0.25, "simulationMode": [null, null, null], "rewards": [4, 8, 48], "path": ["0", "0", "9", "10", "11"], "rt": [3527, 400, 604], "actions": ["left", "left", "up"], "actionTimes": [5290, 6195, 7299], "queries": {"click": {"state": {"target": ["11"], "time": [4060]}, "edge": {"target": [], "time": []}}, "mouseover": {"state": {"target": ["1", "4", "11", "11"], "time": [2845, 3312, 3479, 3746]}, "edge": {"target": [], "time": []}}, "mouseout": {"state": {"target": ["4", "1", "0", "1", "4", "11"], "time": [1295, 1395, 2612, 3245, 3328, 3495]}, "edge": {"target": [], "time": []}}}, "displayed_time": "10.76", "trialTime": 11712, "trial_type": "mouselab-mdp", "trial_index": 19, "time_elapsed": 521102, "internal_node_id": "0.0-4.0-1.0-10.0"}}, {"uniqueid": "w78757160:a39673591", "current_trial": 20, "dateTime": 1664555479101, "trialdata": {"revealed_states": [], "num_clicks_accrued": [0, 0, 0, 0, 0, 0, 0, 0, 0, 0, 0, 0, 0], "stateRewards": ["", 2, 8, 24, 24, 2, -8, -24, -48, 2, 8, -48, 48], "withholdReward": true, "trial_id": "mdp_745175888812", "block": "test1", "trialIndex": 13, "score": 62.75, "costs": -0.25, "simulationMode": [null, null, null], "rewards": [2, 8, 48], "path": ["0", "0", "9", "10", "12"], "rt": [2742, 339, 768], "actions": ["left", "left", "down"], "actionTimes": [6170, 7008, 8287], "queries": {"click": {"state": {"target": ["12"], "time": [4396]}, "edge": {"target": [], "time": []}}, "mouseover": {"state": {"target": ["12"], "time": [4186]}, "edge": {"target": [], "time": []}}, "mouseout": {"state": {"target": ["11", "0", "0", "12"], "time": [836, 1185, 3885, 5086]}, "edge": {"target": [], "time": []}}}, "displayed_time": "13.43", "trialTime": 14362, "trial_type": "mouselab-mdp", "trial_index": 20, "time_elapsed": 535510, "internal_node_id": "0.0-4.0-1.0-11.0"}}, {"uniqueid": "w78757160:a39673591", "current_trial": 21, "dateTime": 1664555491611, "trialdata": {"revealed_states": [], "num_clicks_accrued": [0, 0, 0, 0, 0, 0, 0, 0, 0, 0, 0, 0, 0], "stateRewards": ["", -4, 4, -48, -48, -4, 8, -24, 24, 2, -4, 48, 48], "withholdReward": true, "trial_id": "mdp_821566905048", "block": "test1", "trialIndex": 14, "score": 50.75, "costs": -0.25, "simulationMode": [null, null, null], "rewards": [2, -4, 48], "path": ["0", "0", "9", "10", "11"], "rt": [2669, 368, 916], "actions": ["left", "left", "up"], "actionTimes": [3870, 4729, 6143], "queries": {"click": {"state": {"target": ["7"], "time": [2375]}, "edge": {"target": [], "time": []}}, "mouseover": {"state": {"target": ["7"], "time": [1978]}, "edge": {"target": [], "time": []}}, "mouseout": {"state": {"target": ["0"], "time": [1644]}, "edge": {"target": [], "time": []}}}, "displayed_time": "11.20", "trialTime": 12464, "trial_type": "mouselab-mdp", "trial_index": 21, "time_elapsed": 548019, "internal_node_id": "0.0-4.0-1.0-12.0"}}, {"uniqueid": "w78757160:a39673591", "current_trial": 22, "dateTime": 1664555503293, "trialdata": {"revealed_states": [], "num_clicks_accrued": [0, 0, 0, 0, 0, 0, 0, 0, 0, 0, 0, 0, 0], "stateRewards": ["", 4, 4, 48, -48, 4, 4, -48, 24, 2, 8, 24, -48], "withholdReward": true, "trial_id": "mdp_291674656283", "block": "test1", "trialIndex": 15, "score": 60.75, "costs": -0.25, "simulationMode": [null, null, null], "rewards": [4, 4, 48], "path": ["0", "0", "1", "2", "3"], "rt": [1959, 962, 1045], "actions": ["up", "up", "right"], "actionTimes": [3062, 4538, 6086], "queries": {"click": {"state": {"target": ["3"], "time": [1907]}, "edge": {"target": [], "time": []}}, "mouseover": {"state": {"target": ["3"], "time": [1625]}, "edge": {"target": [], "time": []}}, "mouseout": {"state": {"target": ["7", "5", "3", "3"], "time": [659, 775, 7503, 7540]}, "edge": {"target": [], "time": []}}}, "displayed_time": "10.10", "trialTime": 11630, "trial_type": "mouselab-mdp", "trial_index": 22, "time_elapsed": 559702, "internal_node_id": "0.0-4.0-1.0-13.0"}}, {"uniqueid": "w78757160:a39673591", "current_trial": 23, "dateTime": 1664555514445, "trialdata": {"revealed_states": [], "num_clicks_accrued": [0, 0, 0, 0, 0, 0, 0, 0, 0, 0, 0, 0, 0], "stateRewards": ["", 2, 8, 24, -48, 4, 8, 24, 24, 4, -8, 48, 48], "withholdReward": true, "trial_id": "mdp_646103824875", "block": "test1", "trialIndex": 16, "score": -33, "costs": 0, "simulationMode": [null, null, null], "rewards": [2, 8, -48], "path": ["0", "0", "1", "2", "4"], "rt": [2247, 692, 500], "actions": ["up", "up", "left"], "actionTimes": [5471, 6654, 7662], "queries": {"click": {"state": {"target": [], "time": []}, "edge": {"target": [], "time": []}}, "mouseover": {"state": {"target": ["4"], "time": [4345]}, "edge": {"target": [], "time": []}}, "mouseout": {"state": {"target": ["7", "0"], "time": [1646, 4046]}, "edge": {"target": [], "time": []}}}, "displayed_time": "10.23", "trialTime": 11104, "trial_type": "mouselab-mdp", "trial_index": 23, "time_elapsed": 570854, "internal_node_id": "0.0-4.0-1.0-14.0"}}, {"uniqueid": "w78757160:a39673591", "current_trial": 24, "dateTime": 1664555524995, "trialdata": {"revealed_states": [], "num_clicks_accrued": [0, 0, 0, 0, 0, 0, 0, 0, 0, 0, 0, 0, 0], "stateRewards": ["", -2, -8, -24, -48, -2, -4, 48, -48, 4, 4, -48, 48], "withholdReward": true, "trial_id": "mdp_156977432949", "block": "test1", "trialIndex": 17, "score": -35, "costs": 0, "simulationMode": [null, null, null], "rewards": [4, 4, -48], "path": ["0", "0", "9", "10", "11"], "rt": [1114, 777, 542], "actions": ["left", "left", "up"], "actionTimes": [3547, 4837, 5869], "queries": {"click": {"state": {"target": [], "time": []}, "edge": {"target": [], "time": []}}, "mouseover": {"state": {"target": [], "time": []}, "edge": {"target": [], "time": []}}, "mouseout": {"state": {"target": ["4", "0"], "time": [1757, 2093]}, "edge": {"target": [], "time": []}}}, "displayed_time": "9.43", "trialTime": 10504, "trial_type": "mouselab-mdp", "trial_index": 24, "time_elapsed": 581404, "internal_node_id": "0.0-4.0-1.0-15.0"}}, {"uniqueid": "w78757160:a39673591", "current_trial": 25, "dateTime": 1664555535196, "trialdata": {"revealed_states": [], "num_clicks_accrued": [0, 0, 0, 0, 0, 0, 0, 0, 0, 0, 0, 0, 0], "stateRewards": ["", -4, -8, 24, -48, 2, 4, -48, -48, 2, -8, 24, 48], "withholdReward": true, "trial_id": "mdp_111262146724", "block": "test1", "trialIndex": 18, "score": 22.75, "costs": -0.25, "simulationMode": [null, null, null], "rewards": [2, -8, 24], "path": ["0", "0", "9", "10", "11"], "rt": [4449, 486, 681], "actions": ["left", "left", "up"], "actionTimes": [5522, 6510, 7704], "queries": {"click": {"state": {"target": ["8"], "time": [4012]}, "edge": {"target": [], "time": []}}, "mouseover": {"state": {"target": ["5", "6", "8", "8"], "time": [1723, 2040, 2373, 3771]}, "edge": {"target": [], "time": []}}, "mouseout": {"state": {"target": ["0", "0", "5", "6", "8", "8"], "time": [688, 1707, 1790, 2340, 2475, 9622]}, "edge": {"target": [], "time": []}}}, "displayed_time": "9.07", "trialTime": 10153, "trial_type": "mouselab-mdp", "trial_index": 25, "time_elapsed": 591605, "internal_node_id": "0.0-4.0-1.0-16.0"}}, {"uniqueid": "w78757160:a39673591", "current_trial": 26, "dateTime": 1664555544443, "trialdata": {"revealed_states": [], "num_clicks_accrued": [0, 0, 0, 0, 0, 0, 0, 0, 0, 0, 0, 0, 0], "stateRewards": ["", -4, -4, -24, -48, -4, 8, -24, -48, 4, -8, 24, -24], "withholdReward": true, "trial_id": "mdp_924927483179", "block": "test1", "trialIndex": 19, "score": -23.25, "costs": -0.25, "simulationMode": [null, null, null], "rewards": [4, -8, -24], "path": ["0", "0", "9", "10", "12"], "rt": [2461, 498, 484], "actions": ["left", "left", "down"], "actionTimes": [3699, 4688, 5689], "queries": {"click": {"state": {"target": ["3"], "time": [2401]}, "edge": {"target": [], "time": []}}, "mouseover": {"state": {"target": ["3"], "time": [2164]}, "edge": {"target": [], "time": []}}, "mouseout": {"state": {"target": ["0"], "time": [1672]}, "edge": {"target": [], "time": []}}}, "displayed_time": "8.24", "trialTime": 9200, "trial_type": "mouselab-mdp", "trial_index": 26, "time_elapsed": 600852, "internal_node_id": "0.0-4.0-1.0-17.0"}}, {"uniqueid": "w78757160:a39673591", "current_trial": 27, "dateTime": 1664555554380, "trialdata": {"revealed_states": [], "num_clicks_accrued": [0, 0, 0, 0, 0, 0, 0, 0, 0, 0, 0, 0, 0], "stateRewards": ["", 2, 4, 48, 24, -4, 8, 48, 48, 2, -4, -48, -24], "withholdReward": false, "trial_id": "mdp_822099887466", "block": "test1", "trialIndex": 20, "score": 57, "costs": 0, "simulationMode": [null, null, null], "rewards": [-4, 8, 48], "path": ["0", "0", "5", "6", "8"], "rt": [1469, 458, 523], "actions": ["right", "right", "down"], "actionTimes": [3010, 3962, 4994], "queries": {"click": {"state": {"target": [], "time": []}, "edge": {"target": [], "time": []}}, "mouseover": {"state": {"target": [], "time": []}, "edge": {"target": [], "time": []}}, "mouseout": {"state": {"target": ["3", "0"], "time": [937, 1271]}, "edge": {"target": [], "time": []}}}, "displayed_time": "8.54", "trialTime": 9887, "trial_type": "mouselab-mdp", "trial_index": 27, "time_elapsed": 610789, "internal_node_id": "0.0-4.0-1.0-18.0"}}, {"uniqueid": "w78757160:a39673591", "current_trial": 28, "dateTime": 1664555567716, "trialdata": {"revealed_states": [], "num_clicks_accrued": [0, 0, 0, 0, 0, 0, 0, 0, 0, 0, 0, 0, 0], "stateRewards": ["", -2, 4, -24, 24, -4, -8, 24, -48, -4, -4, -48, -24], "withholdReward": false, "trial_id": "mdp_753137520419", "block": "test1", "trialIndex": 21, "score": -17, "costs": 0, "simulationMode": [null, null, null], "rewards": [-2, 4, -24], "path": ["0", "0", "1", "2", "3"], "rt": [2526, 653, 3442], "actions": ["up", "up", "right"], "actionTimes": [4417, 5574, 9528], "queries": {"click": {"state": {"target": [], "time": []}, "edge": {"target": [], "time": []}}, "mouseover": {"state": {"target": [], "time": []}, "edge": {"target": [], "time": []}}, "mouseout": {"state": {"target": ["0", "0", "1", "3"], "time": [1287, 7037, 7102, 12895]}, "edge": {"target": [], "time": []}}}, "displayed_time": "11.89", "trialTime": 13288, "trial_type": "mouselab-mdp", "trial_index": 28, "time_elapsed": 624124, "internal_node_id": "0.0-4.0-1.0-19.0"}}, {"uniqueid": "w78757160:a39673591", "current_trial": 29, "dateTime": 1664555577433, "trialdata": {"revealed_states": [], "num_clicks_accrued": [0, 0, 0, 0, 0, 0, 0, 0, 0, 0, 0, 0, 0], "stateRewards": ["", -2, -8, 24, -48, 4, 4, -24, -48, -2, -8, -48, 24], "withholdReward": false, "trial_id": "mdp_556006673466", "block": "test1", "trialIndex": 22, "score": -35.25, "costs": -0.25, "simulationMode": [null, null, null], "rewards": [4, 4, -48], "path": ["0", "0", "5", "6", "8"], "rt": [3184, 493, 396], "actions": ["right", "right", "down"], "actionTimes": [4381, 5366, 6252], "queries": {"click": {"state": {"target": ["4"], "time": [2566]}, "edge": {"target": [], "time": []}}, "mouseover": {"state": {"target": ["1", "4"], "time": [1823, 2306]}, "edge": {"target": [], "time": []}}, "mouseout": {"state": {"target": ["0", "1", "4", "0"], "time": [1790, 1839, 7322, 7455]}, "edge": {"target": [], "time": []}}}, "displayed_time": "8.20", "trialTime": 9661, "trial_type": "mouselab-mdp", "trial_index": 29, "time_elapsed": 633842, "internal_node_id": "0.0-4.0-1.0-20.0"}}, {"uniqueid": "w78757160:a39673591", "current_trial": 30, "dateTime": 1664555591637, "trialdata": {"revealed_states": [], "num_clicks_accrued": [0, 0, 0, 0, 0, 0, 0, 0, 0, 0, 0, 0, 0], "stateRewards": ["", -2, 8, -24, 24, 2, -8, 48, -24, 2, 8, -24, -24], "withholdReward": false, "trial_id": "mdp_674708270444", "block": "test1", "trialIndex": 23, "score": 46.75, "costs": -0.25, "simulationMode": [null, null, null], "rewards": [2, -8, 48], "path": ["0", "0", "5", "6", "7"], "rt": [2863, 88, 908], "actions": ["right", "right", "up"], "actionTimes": [6666, 7247, 8651], "queries": {"click": {"state": {"target": ["11"], "time": [5044]}, "edge": {"target": [], "time": []}}, "mouseover": {"state": {"target": ["9", "10", "11", "11"], "time": [4293, 4359, 4426, 4793]}, "edge": {"target": [], "time": []}}, "mouseout": {"state": {"target": ["0", "9", "10", "11"], "time": [3443, 4326, 4409, 4476]}, "edge": {"target": [], "time": []}}}, "displayed_time": "12.80", "trialTime": 14153, "trial_type": "mouselab-mdp", "trial_index": 30, "time_elapsed": 648046, "internal_node_id": "0.0-4.0-1.0-21.0"}}, {"uniqueid": "w78757160:a39673591", "current_trial": 31, "dateTime": 1664555608605, "trialdata": {"revealed_states": [], "num_clicks_accrued": [0, 0, 0, 0, 0, 0, 0, 0, 0, 0, 0, 0, 0], "stateRewards": ["", -4, -8, -48, -48, 4, -8, 48, 48, 2, 8, 48, 24], "withholdReward": true, "trial_id": "mdp_880437222492", "block": "test1", "trialIndex": 24, "score": 39, "costs": 0, "simulationMode": [null, null, null], "rewards": [2, 8, 24], "path": ["0", "0", "9", "10", "12"], "rt": [1735, 1269, 661], "actions": ["left", "left", "down"], "actionTimes": [4789, 6552, 7727], "queries": {"click": {"state": {"target": [], "time": []}, "edge": {"target": [], "time": []}}, "mouseover": {"state": {"target": [], "time": []}, "edge": {"target": [], "time": []}}, "mouseout": {"state": {"target": ["11", "1", "0"], "time": [2283, 2349, 16191]}, "edge": {"target": [], "time": []}}}, "displayed_time": "13.06", "trialTime": 16912, "trial_type": "mouselab-mdp", "trial_index": 31, "time_elapsed": 665014, "internal_node_id": "0.0-4.0-1.0-22.0"}}, {"uniqueid": "w78757160:a39673591", "current_trial": 32, "dateTime": 1664555617536, "trialdata": {"revealed_states": [], "num_clicks_accrued": [0, 0, 0, 0, 0, 0, 0, 0, 0, 0, 0, 0, 0], "stateRewards": ["", -2, 4, -24, 48, 4, -8, 48, -48, 2, -8, 48, 24], "withholdReward": true, "trial_id": "mdp_501111216502", "block": "test1", "trialIndex": 25, "score": 22.75, "costs": -0.25, "simulationMode": [null, null, null], "rewards": [2, -8, 24], "path": ["0", "0", "9", "10", "12"], "rt": [3101, 449, 501], "actions": ["left", "left", "down"], "actionTimes": [4137, 5102, 6120], "queries": {"click": {"state": {"target": ["3"], "time": [2508]}, "edge": {"target": [], "time": []}}, "mouseover": {"state": {"target": ["3"], "time": [2302]}, "edge": {"target": [], "time": []}}, "mouseout": {"state": {"target": ["3"], "time": [7272]}, "edge": {"target": [], "time": []}}}, "displayed_time": "8.04", "trialTime": 8882, "trial_type": "mouselab-mdp", "trial_index": 32, "time_elapsed": 673945, "internal_node_id": "0.0-4.0-1.0-23.0"}}, {"uniqueid": "w78757160:a39673591", "current_trial": 33, "dateTime": 1664555626296, "trialdata": {"revealed_states": [], "num_clicks_accrued": [0, 0, 0, 0, 0, 0, 0, 0, 0, 0, 0, 0, 0], "stateRewards": ["", 2, 8, 48, 24, 2, 8, 48, 48, -2, -4, -24, -48], "withholdReward": true, "trial_id": "mdp_717636349175", "block": "test1", "trialIndex": 26, "score": 63, "costs": 0, "simulationMode": [null, null, null], "rewards": [2, 8, 48], "path": ["0", "0", "1", "2", "3"], "rt": [1138, 493, 450], "actions": ["up", "up", "right"], "actionTimes": [2373, 3379, 4335], "queries": {"click": {"state": {"target": [], "time": []}, "edge": {"target": [], "time": []}}, "mouseover": {"state": {"target": [], "time": []}, "edge": {"target": [], "time": []}}, "mouseout": {"state": {"target": ["5"], "time": [702]}, "edge": {"target": [], "time": []}}}, "displayed_time": "8.24", "trialTime": 8710, "trial_type": "mouselab-mdp", "trial_index": 33, "time_elapsed": 682705, "internal_node_id": "0.0-4.0-1.0-24.0"}}, {"uniqueid": "w78757160:a39673591", "current_trial": 34, "dateTime": 1664555640475, "trialdata": {"revealed_states": [], "num_clicks_accrued": [0, 0, 0, 0, 0, 0, 0, 0, 0, 0, 0, 0, 0], "stateRewards": ["", 2, 4, 48, -48, 2, 4, 24, -24, 2, -4, -24, -48], "withholdReward": true, "trial_id": "mdp_706591889062", "block": "test1", "trialIndex": 27, "score": 34.75, "costs": -0.25, "simulationMode": [null, null, null], "rewards": [2, 4, 24], "path": ["0", "0", "5", "6", "7"], "rt": [2648, 366, 537], "actions": ["right", "right", "up"], "actionTimes": [3773, 4643, 5680], "queries": {"click": {"state": {"target": ["12"], "time": [2365]}, "edge": {"target": [], "time": []}}, "mouseover": {"state": {"target": ["9", "12"], "time": [1676, 2043]}, "edge": {"target": [], "time": []}}, "mouseout": {"state": {"target": ["0", "0", "9", "12"], "time": [759, 1661, 1743, 2876]}, "edge": {"target": [], "time": []}}}, "displayed_time": "11.13", "trialTime": 14131, "trial_type": "mouselab-mdp", "trial_index": 34, "time_elapsed": 696884, "internal_node_id": "0.0-4.0-1.0-25.0"}}, {"uniqueid": "w78757160:a39673591", "current_trial": 35, "dateTime": 1664555652239, "trialdata": {"revealed_states": [], "num_clicks_accrued": [0, 0, 0, 0, 0, 0, 0, 0, 0, 0, 0, 0, 0], "stateRewards": ["", -4, 8, -24, -24, 4, -8, 48, -24, -4, -8, -24, -48], "withholdReward": true, "trial_id": "mdp_391766721791", "block": "test1", "trialIndex": 28, "score": -23.25, "costs": -0.25, "simulationMode": [null, null, null], "rewards": [4, -8, -24], "path": ["0", "0", "5", "6", "8"], "rt": [2512, 459, 661], "actions": ["right", "right", "down"], "actionTimes": [4077, 5037, 6205], "queries": {"click": {"state": {"target": ["4"], "time": [2700]}, "edge": {"target": [], "time": []}}, "mouseover": {"state": {"target": ["4"], "time": [2460]}, "edge": {"target": [], "time": []}}, "mouseout": {"state": {"target": ["0"], "time": [1328]}, "edge": {"target": [], "time": []}}}, "displayed_time": "10.57", "trialTime": 11714, "trial_type": "mouselab-mdp", "trial_index": 35, "time_elapsed": 708648, "internal_node_id": "0.0-4.0-1.0-26.0"}}, {"uniqueid": "w78757160:a39673591", "current_trial": 36, "dateTime": 1664555663274, "trialdata": {"revealed_states": [], "num_clicks_accrued": [0, 0, 0, 0, 0, 0, 0, 0, 0, 0, 0, 0, 0], "stateRewards": ["", -4, 8, 24, -48, -4, -8, -24, 24, 2, -4, -48, 24], "withholdReward": true, "trial_id": "mdp_898449441629", "block": "test1", "trialIndex": 29, "score": 26.75, "costs": -0.25, "simulationMode": [null, null, null], "rewards": [2, -4, 24], "path": ["0", "0", "9", "10", "12"], "rt": [2312, 253, 554], "actions": ["left", "left", "down"], "actionTimes": [5376, 6137, 7203], "queries": {"click": {"state": {"target": ["11"], "time": [4135]}, "edge": {"target": [], "time": []}}, "mouseover": {"state": {"target": ["11"], "time": [3851]}, "edge": {"target": [], "time": []}}, "mouseout": {"state": {"target": ["4", "10", "5", "0", "0", "11", "9"], "time": [901, 1267, 1600, 1849, 3516, 10465, 10669]}, "edge": {"target": [], "time": []}}}, "displayed_time": "10.06", "trialTime": 10990, "trial_type": "mouselab-mdp", "trial_index": 36, "time_elapsed": 719683, "internal_node_id": "0.0-4.0-1.0-27.0"}}, {"uniqueid": "w78757160:a39673591", "current_trial": 37, "dateTime": 1664555674505, "trialdata": {"revealed_states": [], "num_clicks_accrued": [0, 0, 0, 0, 0, 0, 0, 0, 0, 0, 0, 0, 0], "stateRewards": ["", 4, -8, 48, -24, 4, -4, -48, -48, 4, -4, 24, 24], "withholdReward": true, "trial_id": "mdp_221562928904", "block": "test1", "trialIndex": 30, "score": 48.75, "costs": -0.25, "simulationMode": [null, null, null], "rewards": [4, -8, 48], "path": ["0", "0", "1", "2", "3"], "rt": [2360, 710, 751], "actions": ["up", "up", "right"], "actionTimes": [3593, 4801, 6042], "queries": {"click": {"state": {"target": ["3"], "time": [2225]}, "edge": {"target": [], "time": []}}, "mouseover": {"state": {"target": ["3"], "time": [1924]}, "edge": {"target": [], "time": []}}, "mouseout": {"state": {"target": ["0", "3", "5"], "time": [975, 7032, 7106]}, "edge": {"target": [], "time": []}}}, "displayed_time": "10.23", "trialTime": 11180, "trial_type": "mouselab-mdp", "trial_index": 37, "time_elapsed": 730914, "internal_node_id": "0.0-4.0-1.0-28.0"}}, {"uniqueid": "w78757160:a39673591", "current_trial": 38, "dateTime": 1664555685133, "trialdata": {"revealed_states": [], "num_clicks_accrued": [0, 0, 0, 0, 0, 0, 0, 0, 0, 0, 0, 0, 0], "stateRewards": ["", -2, 4, -48, 24, -4, 8, 48, 24, -2, 4, -48, -24], "withholdReward": true, "trial_id": "mdp_740882974347", "block": "test1", "trialIndex": 31, "score": -41, "costs": 0, "simulationMode": [null, null, null], "rewards": [-2, 4, -48], "path": ["0", "0", "9", "10", "11"], "rt": [1631, 26, 422], "actions": ["left", "left", "up"], "actionTimes": [3045, 3585, 4498], "queries": {"click": {"state": {"target": [], "time": []}, "edge": {"target": [], "time": []}}, "mouseover": {"state": {"target": ["0"], "time": [2276]}, "edge": {"target": [], "time": []}}, "mouseout": {"state": {"target": ["0", "0"], "time": [1176, 2293]}, "edge": {"target": [], "time": []}}}, "displayed_time": "9.41", "trialTime": 10577, "trial_type": "mouselab-mdp", "trial_index": 38, "time_elapsed": 741541, "internal_node_id": "0.0-4.0-1.0-29.0"}}, {"uniqueid": "w78757160:a39673591", "current_trial": 39, "dateTime": 1664555735191, "trialdata": {"rt": 50053, "stimulus": "<h1> End of block! </h1>\n\nYou have reached the end of the block 1/4. If you need a short break, feel free to take one now before moving on.\n\n<br><br>\nIn the next block, you will complete another 30 rounds of this game.\n\n<br><br>\n<div style='text-align: center;'>Press <code>space</code> to begin.</div>\n<br><br>\n<div style='text-align: center;'>(If the experiment doesn't continue, try clicking on the text and then pressing <code>space</code>.)</div>", "response": " ", "trial_id": "mdp_ready_2", "trial_type": "html-keyboard-response", "trial_index": 39, "time_elapsed": 791600, "internal_node_id": "0.0-4.0-2.0"}}, {"uniqueid": "w78757160:a39673591", "current_trial": 40, "dateTime": 1664555748940, "trialdata": {"revealed_states": [], "num_clicks_accrued": [0, 0, 0, 0, 0, 0, 0, 0, 0, 0, 0, 0, 0], "stateRewards": ["", -2, -8, -24, -48, 4, -8, 48, 24, 2, 4, -48, -48], "withholdReward": false, "trial_id": "mdp_898082967464", "block": "test2", "trialIndex": 32, "score": -53, "costs": 0, "simulationMode": [null, null, null], "rewards": [-2, -8, -48], "path": ["0", "0", "1", "2", "4"], "rt": [6092, 355, 357], "actions": ["up", "up", "left"], "actionTimes": [9444, 10302, 11154], "queries": {"click": {"state": {"target": [], "time": []}, "edge": {"target": [], "time": []}}, "mouseover": {"state": {"target": [], "time": []}, "edge": {"target": [], "time": []}}, "mouseout": {"state": {"target": ["5", "0", "9"], "time": [2597, 2630, 2797]}, "edge": {"target": [], "time": []}}}, "displayed_time": "12.36", "trialTime": 13698, "trial_type": "mouselab-mdp", "trial_index": 40, "time_elapsed": 805349, "internal_node_id": "0.0-4.0-3.0-0.0"}}, {"uniqueid": "w78757160:a39673591", "current_trial": 41, "dateTime": 1664555761707, "trialdata": {"revealed_states": [], "num_clicks_accrued": [0, 0, 0, 0, 0, 0, 0, 0, 0, 0, 0, 0, 0], "stateRewards": ["", 4, 4, -48, -48, 4, 4, -24, -24, -4, 8, -48, 24], "withholdReward": false, "trial_id": "mdp_669785455541", "block": "test2", "trialIndex": 33, "score": -11.25, "costs": -0.25, "simulationMode": [null, null, null], "rewards": [4, 4, -24], "path": ["0", "0", "5", "6", "8"], "rt": [3179, 384, 282], "actions": ["right", "right", "down"], "actionTimes": [6873, 7748, 8530], "queries": {"click": {"state": {"target": ["11"], "time": [5295]}, "edge": {"target": [], "time": []}}, "mouseover": {"state": {"target": ["11"], "time": [4898]}, "edge": {"target": [], "time": []}}, "mouseout": {"state": {"target": ["0", "0"], "time": [2078, 3347]}, "edge": {"target": [], "time": []}}}, "displayed_time": "11.70", "trialTime": 12717, "trial_type": "mouselab-mdp", "trial_index": 41, "time_elapsed": 818116, "internal_node_id": "0.0-4.0-3.0-1.0"}}, {"uniqueid": "w78757160:a39673591", "current_trial": 42, "dateTime": 1664555774255, "trialdata": {"revealed_states": [], "num_clicks_accrued": [0, 0, 0, 0, 0, 0, 0, 0, 0, 0, 0, 0, 0], "stateRewards": ["", 4, 4, 24, -24, -4, -8, 48, -24, 4, 4, 48, 24], "withholdReward": true, "trial_id": "mdp_822446942217", "block": "test2", "trialIndex": 34, "score": -11.25, "costs": -0.25, "simulationMode": [null, null, null], "rewards": [4, 4, -24], "path": ["0", "0", "1", "2", "4"], "rt": [1873, 387, 491], "actions": ["up", "up", "left"], "actionTimes": [3175, 4078, 5066], "queries": {"click": {"state": {"target": ["3"], "time": [2069]}, "edge": {"target": [], "time": []}}, "mouseover": {"state": {"target": ["1", "3"], "time": [1724, 1792]}, "edge": {"target": [], "time": []}}, "mouseout": {"state": {"target": ["11", "1", "3", "7", "7"], "time": [844, 1741, 5874, 5991, 6494]}, "edge": {"target": [], "time": []}}}, "displayed_time": "11.30", "trialTime": 12493, "trial_type": "mouselab-mdp", "trial_index": 42, "time_elapsed": 830664, "internal_node_id": "0.0-4.0-3.0-2.0"}}, {"uniqueid": "w78757160:a39673591", "current_trial": 43, "dateTime": 1664555784994, "trialdata": {"revealed_states": [], "num_clicks_accrued": [0, 0, 0, 0, 0, 0, 0, 0, 0, 0, 0, 0, 0], "stateRewards": ["", 2, -4, -48, 24, -4, 4, 24, 24, 2, -8, -24, -48], "withholdReward": false, "trial_id": "mdp_807654778305", "block": "test2", "trialIndex": 35, "score": 27, "costs": 0, "simulationMode": [null, null, null], "rewards": [2, -4, 24], "path": ["0", "0", "1", "2", "4"], "rt": [1415, 404, 345], "actions": ["up", "up", "left"], "actionTimes": [4292, 5199, 6057], "queries": {"click": {"state": {"target": [], "time": []}, "edge": {"target": [], "time": []}}, "mouseover": {"state": {"target": [], "time": []}, "edge": {"target": [], "time": []}}, "mouseout": {"state": {"target": ["0", "0"], "time": [1295, 2579]}, "edge": {"target": [], "time": []}}}, "displayed_time": "9.88", "trialTime": 10688, "trial_type": "mouselab-mdp", "trial_index": 43, "time_elapsed": 841403, "internal_node_id": "0.0-4.0-3.0-3.0"}}, {"uniqueid": "w78757160:a39673591", "current_trial": 44, "dateTime": 1664555796450, "trialdata": {"revealed_states": [], "num_clicks_accrued": [0, 0, 0, 0, 0, 0, 0, 0, 0, 0, 0, 0, 0], "stateRewards": ["", 4, 4, 48, -48, -2, 4, 48, -48, -4, 4, -24, -24], "withholdReward": true, "trial_id": "mdp_753324812898", "block": "test2", "trialIndex": 36, "score": -19.25, "costs": -0.25, "simulationMode": [null, null, null], "rewards": [-4, 4, -24], "path": ["0", "0", "9", "10", "11"], "rt": [2486, 292, 531], "actions": ["left", "left", "up"], "actionTimes": [3707, 4511, 5550], "queries": {"click": {"state": {"target": ["8"], "time": [2525]}, "edge": {"target": [], "time": []}}, "mouseover": {"state": {"target": ["5", "8"], "time": [1785, 2252]}, "edge": {"target": [], "time": []}}, "mouseout": {"state": {"target": ["0", "5", "8"], "time": [887, 1802, 10201]}, "edge": {"target": [], "time": []}}}, "displayed_time": "8.22", "trialTime": 11401, "trial_type": "mouselab-mdp", "trial_index": 44, "time_elapsed": 852859, "internal_node_id": "0.0-4.0-3.0-4.0"}}, {"uniqueid": "w78757160:a39673591", "current_trial": 45, "dateTime": 1664555806876, "trialdata": {"revealed_states": [], "num_clicks_accrued": [0, 0, 0, 0, 0, 0, 0, 0, 0, 0, 0, 0, 0], "stateRewards": ["", -2, -8, -24, 24, -2, -8, -48, 24, -2, -8, 24, 24], "withholdReward": true, "trial_id": "mdp_336617436097", "block": "test2", "trialIndex": 37, "score": -29, "costs": 0, "simulationMode": [null, null, null], "rewards": [-2, -8, -24], "path": ["0", "0", "1", "2", "3"], "rt": [1206, 413, 644], "actions": ["up", "up", "right"], "actionTimes": [2823, 3735, 4866], "queries": {"click": {"state": {"target": [], "time": []}, "edge": {"target": [], "time": []}}, "mouseover": {"state": {"target": [], "time": []}, "edge": {"target": [], "time": []}}, "mouseout": {"state": {"target": ["0"], "time": [1270]}, "edge": {"target": [], "time": []}}}, "displayed_time": "8.62", "trialTime": 10365, "trial_type": "mouselab-mdp", "trial_index": 45, "time_elapsed": 863285, "internal_node_id": "0.0-4.0-3.0-5.0"}}, {"uniqueid": "w78757160:a39673591", "current_trial": 46, "dateTime": 1664555819556, "trialdata": {"revealed_states": [], "num_clicks_accrued": [0, 0, 0, 0, 0, 0, 0, 0, 0, 0, 0, 0, 0], "stateRewards": ["", -2, -4, -48, -48, 4, -4, 48, 24, 4, 4, 48, 48], "withholdReward": true, "trial_id": "mdp_950960813932", "block": "test2", "trialIndex": 38, "score": 61, "costs": 0, "simulationMode": [null, null, null], "rewards": [4, 4, 48], "path": ["0", "0", "9", "10", "12"], "rt": [1444, 361, 294], "actions": ["left", "left", "down"], "actionTimes": [6289, 7147, 7930], "queries": {"click": {"state": {"target": [], "time": []}, "edge": {"target": [], "time": []}}, "mouseover": {"state": {"target": [], "time": []}, "edge": {"target": [], "time": []}}, "mouseout": {"state": {"target": ["0"], "time": [4419]}, "edge": {"target": [], "time": []}}}, "displayed_time": "11.85", "trialTime": 12628, "trial_type": "mouselab-mdp", "trial_index": 46, "time_elapsed": 875965, "internal_node_id": "0.0-4.0-3.0-6.0"}}, {"uniqueid": "w78757160:a39673591", "current_trial": 47, "dateTime": 1664555831588, "trialdata": {"revealed_states": [], "num_clicks_accrued": [0, 0, 0, 0, 0, 0, 0, 0, 0, 0, 0, 0, 0], "stateRewards": ["", -4, -8, 48, 48, -4, 4, 48, -24, 4, 8, -24, -48], "withholdReward": false, "trial_id": "mdp_142906093415", "block": "test2", "trialIndex": 39, "score": 52.75, "costs": -0.25, "simulationMode": [null, null, null], "rewards": [-4, 4, 48], "path": ["0", "0", "5", "6", "7"], "rt": [2996, 553, 1055], "actions": ["right", "right", "up"], "actionTimes": [4428, 5478, 7046], "queries": {"click": {"state": {"target": ["7"], "time": [3119]}, "edge": {"target": [], "time": []}}, "mouseover": {"state": {"target": ["0", "5", "8", "6", "7"], "time": [2224, 2357, 2525, 2708, 2757]}, "edge": {"target": [], "time": []}}, "mouseout": {"state": {"target": ["0", "0", "5", "8", "6"], "time": [1399, 2291, 2390, 2674, 2742]}, "edge": {"target": [], "time": []}}}, "displayed_time": "10.43", "trialTime": 11983, "trial_type": "mouselab-mdp", "trial_index": 47, "time_elapsed": 887997, "internal_node_id": "0.0-4.0-3.0-7.0"}}, {"uniqueid": "w78757160:a39673591", "current_trial": 48, "dateTime": 1664555846755, "trialdata": {"revealed_states": [], "num_clicks_accrued": [0, 0, 0, 0, 0, 0, 0, 0, 0, 0, 0, 0, 0], "stateRewards": ["", 2, -8, 24, 24, 2, 4, -48, -48, 4, 4, -24, 48], "withholdReward": true, "trial_id": "mdp_985707010949", "block": "test2", "trialIndex": 40, "score": 22.75, "costs": -0.25, "simulationMode": [null, null, null], "rewards": [2, -8, 24], "path": ["0", "0", "1", "2", "4"], "rt": [2893, 478, 840], "actions": ["up", "up", "left"], "actionTimes": [7805, 8794, 10140], "queries": {"click": {"state": {"target": ["4"], "time": [6517]}, "edge": {"target": [], "time": []}}, "mouseover": {"state": {"target": ["1", "4", "4", "1"], "time": [5517, 5783, 6300, 7000]}, "edge": {"target": [], "time": []}}, "mouseout": {"state": {"target": ["7", "1", "4", "4"], "time": [4183, 5533, 5817, 6967]}, "edge": {"target": [], "time": []}}}, "displayed_time": "13.91", "trialTime": 15111, "trial_type": "mouselab-mdp", "trial_index": 48, "time_elapsed": 903164, "internal_node_id": "0.0-4.0-3.0-8.0"}}, {"uniqueid": "w78757160:a39673591", "current_trial": 49, "dateTime": 1664555859292, "trialdata": {"revealed_states": [], "num_clicks_accrued": [0, 0, 0, 0, 0, 0, 0, 0, 0, 0, 0, 0, 0], "stateRewards": ["", -4, -8, 24, 48, 2, -4, -24, 24, -4, 8, 48, 48], "withholdReward": true, "trial_id": "mdp_496672670022", "block": "test2", "trialIndex": 41, "score": 16.75, "costs": -0.25, "simulationMode": [null, null, null], "rewards": [-4, -8, 24], "path": ["0", "0", "1", "2", "3"], "rt": [2747, 474, 579], "actions": ["up", "up", "right"], "actionTimes": [4666, 5641, 6713], "queries": {"click": {"state": {"target": ["3"], "time": [3450]}, "edge": {"target": [], "time": []}}, "mouseover": {"state": {"target": ["3", "3"], "time": [2783, 3201]}, "edge": {"target": [], "time": []}}, "mouseout": {"state": {"target": ["1", "3"], "time": [1501, 2834]}, "edge": {"target": [], "time": []}}}, "displayed_time": "11.92", "trialTime": 12483, "trial_type": "mouselab-mdp", "trial_index": 49, "time_elapsed": 915701, "internal_node_id": "0.0-4.0-3.0-9.0"}}, {"uniqueid": "w78757160:a39673591", "current_trial": 50, "dateTime": 1664555879632, "trialdata": {"revealed_states": [], "num_clicks_accrued": [0, 0, 0, 0, 0, 0, 0, 0, 0, 0, 0, 0, 0], "stateRewards": ["", -2, 8, -48, 48, 4, -8, -48, 48, 4, -4, -24, 48], "withholdReward": true, "trial_id": "mdp_144739116828", "block": "test2", "trialIndex": 42, "score": 52.75, "costs": -0.25, "simulationMode": [null, null, null], "rewards": [4, -4, 48], "path": ["0", "0", "9", "10", "12"], "rt": [2718, 360, 613], "actions": ["left", "left", "down"], "actionTimes": [4381, 5255, 6374], "queries": {"click": {"state": {"target": ["12"], "time": [2772]}, "edge": {"target": [], "time": []}}, "mouseover": {"state": {"target": ["12"], "time": [2461]}, "edge": {"target": [], "time": []}}, "mouseout": {"state": {"target": ["3", "0", "12"], "time": [1161, 2144, 3378]}, "edge": {"target": [], "time": []}}}, "displayed_time": "11.66", "trialTime": 20286, "trial_type": "mouselab-mdp", "trial_index": 50, "time_elapsed": 936041, "internal_node_id": "0.0-4.0-3.0-10.0"}}, {"uniqueid": "w78757160:a39673591", "current_trial": 51, "dateTime": 1664555889487, "trialdata": {"revealed_states": [], "num_clicks_accrued": [0, 0, 0, 0, 0, 0, 0, 0, 0, 0, 0, 0, 0], "stateRewards": ["", -4, 8, -48, -48, -4, 4, -24, -48, 2, -4, -24, 24], "withholdReward": true, "trial_id": "mdp_183773275291", "block": "test2", "trialIndex": 43, "score": -21, "costs": 0, "simulationMode": [null, null, null], "rewards": [2, -4, -24], "path": ["0", "0", "9", "10", "11"], "rt": [1398, 367, 486], "actions": ["left", "left", "up"], "actionTimes": [3689, 4555, 5556], "queries": {"click": {"state": {"target": [], "time": []}, "edge": {"target": [], "time": []}}, "mouseover": {"state": {"target": [], "time": []}, "edge": {"target": [], "time": []}}, "mouseout": {"state": {"target": [], "time": []}, "edge": {"target": [], "time": []}}}, "displayed_time": "9.31", "trialTime": 9803, "trial_type": "mouselab-mdp", "trial_index": 51, "time_elapsed": 945896, "internal_node_id": "0.0-4.0-3.0-11.0"}}, {"uniqueid": "w78757160:a39673591", "current_trial": 52, "dateTime": 1664555902241, "trialdata": {"revealed_states": [], "num_clicks_accrued": [0, 0, 0, 0, 0, 0, 0, 0, 0, 0, 0, 0, 0], "stateRewards": ["", -4, 4, 24, 24, -2, 8, 24, -48, 4, -8, -24, -48], "withholdReward": true, "trial_id": "mdp_651542905861", "block": "test2", "trialIndex": 44, "score": 28.75, "costs": -0.25, "simulationMode": [null, null, null], "rewards": [-4, 4, 24], "path": ["0", "0", "1", "2", "3"], "rt": [2953, 375, 351], "actions": ["up", "up", "right"], "actionTimes": [4210, 5073, 5931], "queries": {"click": {"state": {"target": ["3"], "time": [3123]}, "edge": {"target": [], "time": []}}, "mouseover": {"state": {"target": ["1", "3"], "time": [1780, 2867]}, "edge": {"target": [], "time": []}}, "mouseout": {"state": {"target": ["0", "1", "3", "0"], "time": [1735, 1832, 8796, 11576]}, "edge": {"target": [], "time": []}}}, "displayed_time": "11.26", "trialTime": 12701, "trial_type": "mouselab-mdp", "trial_index": 52, "time_elapsed": 958650, "internal_node_id": "0.0-4.0-3.0-12.0"}}, {"uniqueid": "w78757160:a39673591", "current_trial": 53, "dateTime": 1664555913598, "trialdata": {"revealed_states": [], "num_clicks_accrued": [0, 0, 0, 0, 0, 0, 0, 0, 0, 0, 0, 0, 0], "stateRewards": ["", 2, 8, 48, 24, 2, 8, 48, 48, -2, -4, -24, -48], "withholdReward": true, "trial_id": "mdp_717636349175", "block": "test2", "trialIndex": 45, "score": 62.75, "costs": -0.25, "simulationMode": [null, null, null], "rewards": [2, 8, 48], "path": ["0", "0", "1", "2", "3"], "rt": [5045, 692, 415], "actions": ["up", "up", "right"], "actionTimes": [7295, 8482, 9405], "queries": {"click": {"state": {"target": ["12"], "time": [3765]}, "edge": {"target": [], "time": []}}, "mouseover": {"state": {"target": ["0", "12"], "time": [2558, 3532]}, "edge": {"target": [], "time": []}}, "mouseout": {"state": {"target": ["0", "0"], "time": [2041, 2573]}, "edge": {"target": [], "time": []}}}, "displayed_time": "9.92", "trialTime": 11303, "trial_type": "mouselab-mdp", "trial_index": 53, "time_elapsed": 970007, "internal_node_id": "0.0-4.0-3.0-13.0"}}, {"uniqueid": "w78757160:a39673591", "current_trial": 54, "dateTime": 1664555924159, "trialdata": {"revealed_states": [], "num_clicks_accrued": [0, 0, 0, 0, 0, 0, 0, 0, 0, 0, 0, 0, 0], "stateRewards": ["", -4, 4, -24, 48, 2, 4, -48, 24, 4, -8, -24, 24], "withholdReward": false, "trial_id": "mdp_740130150937", "block": "test2", "trialIndex": 46, "score": 24.75, "costs": -0.25, "simulationMode": [null, null, null], "rewards": [4, -8, 24], "path": ["0", "0", "9", "10", "12"], "rt": [2404, 534, 378], "actions": ["left", "left", "down"], "actionTimes": [4478, 5514, 6407], "queries": {"click": {"state": {"target": ["12"], "time": [2967]}, "edge": {"target": [], "time": []}}, "mouseover": {"state": {"target": ["0", "9", "12", "12"], "time": [2375, 2382, 2412, 2663]}, "edge": {"target": [], "time": []}}, "mouseout": {"state": {"target": ["12", "0", "0", "9", "12", "12"], "time": [866, 1780, 2381, 2396, 2479, 9785]}, "edge": {"target": [], "time": []}}}, "displayed_time": "9.07", "trialTime": 10504, "trial_type": "mouselab-mdp", "trial_index": 54, "time_elapsed": 980568, "internal_node_id": "0.0-4.0-3.0-14.0"}}, {"uniqueid": "w78757160:a39673591", "current_trial": 55, "dateTime": 1664555939309, "trialdata": {"revealed_states": [], "num_clicks_accrued": [0, 0, 0, 0, 0, 0, 0, 0, 0, 0, 0, 0, 0], "stateRewards": ["", 2, -4, -48, 24, 4, 4, 48, -48, -2, -4, -24, -48], "withholdReward": true, "trial_id": "mdp_858916930936", "block": "test2", "trialIndex": 47, "score": -49.25, "costs": -0.25, "simulationMode": [null, null, null], "rewards": [-2, -4, -48], "path": ["0", "0", "9", "10", "12"], "rt": [2839, 356, 388], "actions": ["left", "left", "down"], "actionTimes": [6725, 7591, 8474], "queries": {"click": {"state": {"target": ["3"], "time": [5070]}, "edge": {"target": [], "time": []}}, "mouseover": {"state": {"target": ["3", "3"], "time": [4352, 4652]}, "edge": {"target": [], "time": []}}, "mouseout": {"state": {"target": ["0", "0", "3", "3", "6"], "time": [1719, 2753, 4436, 9219, 9368]}, "edge": {"target": [], "time": []}}}, "displayed_time": "13.89", "trialTime": 15095, "trial_type": "mouselab-mdp", "trial_index": 55, "time_elapsed": 995718, "internal_node_id": "0.0-4.0-3.0-15.0"}}, {"uniqueid": "w78757160:a39673591", "current_trial": 56, "dateTime": 1664555951850, "trialdata": {"revealed_states": [], "num_clicks_accrued": [0, 0, 0, 0, 0, 0, 0, 0, 0, 0, 0, 0, 0], "stateRewards": ["", -2, 4, -24, 48, 4, -8, 48, -48, 2, -8, 48, 24], "withholdReward": true, "trial_id": "mdp_501111216502", "block": "test2", "trialIndex": 48, "score": 48.75, "costs": -0.25, "simulationMode": [null, null, null], "rewards": [4, -8, 48], "path": ["0", "0", "5", "6", "7"], "rt": [3671, 561, 412], "actions": ["right", "right", "up"], "actionTimes": [5337, 6416, 7316], "queries": {"click": {"state": {"target": ["7"], "time": [4146]}, "edge": {"target": [], "time": []}}, "mouseover": {"state": {"target": ["7"], "time": [3871]}, "edge": {"target": [], "time": []}}, "mouseout": {"state": {"target": ["0", "7", "8"], "time": [3438, 8106, 11438]}, "edge": {"target": [], "time": []}}}, "displayed_time": "11.67", "trialTime": 12490, "trial_type": "mouselab-mdp", "trial_index": 56, "time_elapsed": 1008258, "internal_node_id": "0.0-4.0-3.0-16.0"}}, {"uniqueid": "w78757160:a39673591", "current_trial": 57, "dateTime": 1664555966783, "trialdata": {"revealed_states": [], "num_clicks_accrued": [0, 0, 0, 0, 0, 0, 0, 0, 0, 0, 0, 0, 0], "stateRewards": ["", -4, -4, -24, -24, -2, 4, 48, -24, -2, -4, -24, 48], "withholdReward": true, "trial_id": "mdp_855903341564", "block": "test2", "trialIndex": 49, "score": 54.75, "costs": -0.25, "simulationMode": [null, null, null], "rewards": [-2, 4, 48], "path": ["0", "0", "5", "6", "7"], "rt": [2608, 463, 463], "actions": ["right", "right", "up"], "actionTimes": [4612, 5586, 6537], "queries": {"click": {"state": {"target": ["4"], "time": [2934]}, "edge": {"target": [], "time": []}}, "mouseover": {"state": {"target": ["4"], "time": [2690]}, "edge": {"target": [], "time": []}}, "mouseout": {"state": {"target": ["4", "0"], "time": [9323, 9390]}, "edge": {"target": [], "time": []}}}, "displayed_time": "12.01", "trialTime": 14878, "trial_type": "mouselab-mdp", "trial_index": 57, "time_elapsed": 1023192, "internal_node_id": "0.0-4.0-3.0-17.0"}}, {"uniqueid": "w78757160:a39673591", "current_trial": 58, "dateTime": 1664555979238, "trialdata": {"revealed_states": [], "num_clicks_accrued": [0, 0, 0, 0, 0, 0, 0, 0, 0, 0, 0, 0, 0], "stateRewards": ["", 2, -8, -24, -48, -2, -4, 48, 48, 4, 8, 48, 48], "withholdReward": true, "trial_id": "mdp_347285045422", "block": "test2", "trialIndex": 50, "score": 46.5, "costs": -0.5, "simulationMode": [null, null, null], "rewards": [-2, -4, 48], "path": ["0", "0", "5", "6", "8"], "rt": [7574, 283, 259], "actions": ["right", "right", "down"], "actionTimes": [9045, 9820, 10596], "queries": {"click": {"state": {"target": ["4", "2"], "time": [3265, 6933]}, "edge": {"target": [], "time": []}}, "mouseover": {"state": {"target": ["1", "2", "4", "2", "2"], "time": [2154, 2456, 2738, 6137, 6370]}, "edge": {"target": [], "time": []}}, "mouseout": {"state": {"target": ["0", "1", "2", "4", "2", "2"], "time": [2138, 2421, 2704, 6121, 6187, 7387]}, "edge": {"target": [], "time": []}}}, "displayed_time": "11.09", "trialTime": 12399, "trial_type": "mouselab-mdp", "trial_index": 58, "time_elapsed": 1035647, "internal_node_id": "0.0-4.0-3.0-18.0"}}, {"uniqueid": "w78757160:a39673591", "current_trial": 59, "dateTime": 1664555994644, "trialdata": {"revealed_states": [], "num_clicks_accrued": [0, 0, 0, 0, 0, 0, 0, 0, 0, 0, 0, 0, 0], "stateRewards": ["", 2, 8, 48, 24, -4, 4, -48, 24, 2, 8, 48, 48], "withholdReward": false, "trial_id": "mdp_367344599162", "block": "test2", "trialIndex": 51, "score": 28.25, "costs": -0.75, "simulationMode": [null, null, null], "rewards": [-4, 4, 24], "path": ["0", "0", "5", "6", "8"], "rt": [7515, 178, 1408], "actions": ["right", "right", "down"], "actionTimes": [8980, 9655, 11568], "queries": {"click": {"state": {"target": ["8", "6", "5"], "time": [2515, 4464, 7525]}, "edge": {"target": [], "time": []}}, "mouseover": {"state": {"target": ["5", "6", "8", "6", "5"], "time": [1910, 1943, 2176, 4095, 7209]}, "edge": {"target": [], "time": []}}, "mouseout": {"state": {"target": ["5", "6", "8", "6", "5", "8"], "time": [1927, 1960, 3843, 7096, 7942, 8010]}, "edge": {"target": [], "time": []}}}, "displayed_time": "12.06", "trialTime": 15345, "trial_type": "mouselab-mdp", "trial_index": 59, "time_elapsed": 1051053, "internal_node_id": "0.0-4.0-3.0-19.0"}}, {"uniqueid": "w78757160:a39673591", "current_trial": 60, "dateTime": 1664556011419, "trialdata": {"revealed_states": [], "num_clicks_accrued": [0, 0, 0, 0, 0, 0, 0, 0, 0, 0, 0, 0, 0], "stateRewards": ["", -4, 8, 24, 24, 2, 4, -48, 24, -2, -4, -24, -24], "withholdReward": false, "trial_id": "mdp_752328329546", "block": "test2", "trialIndex": 52, "score": 34.5, "costs": -0.5, "simulationMode": [null, null, null], "rewards": [2, 4, 24], "path": ["0", "0", "5", "6", "8"], "rt": [7002, 254, 702], "actions": ["right", "right", "down"], "actionTimes": [12518, 13267, 14465], "queries": {"click": {"state": {"target": ["10", "6"], "time": [9915, 11398]}, "edge": {"target": [], "time": []}}, "mouseover": {"state": {"target": ["0", "0", "9", "10", "9", "5", "6"], "time": [6447, 6882, 8930, 9530, 10796, 10847, 10896]}, "edge": {"target": [], "time": []}}, "mouseout": {"state": {"target": ["0", "0", "0", "9", "10", "9", "5", "6"], "time": [6164, 6530, 6930, 9480, 10768, 10813, 10880, 16363]}, "edge": {"target": [], "time": []}}}, "displayed_time": "14.98", "trialTime": 16725, "trial_type": "mouselab-mdp", "trial_index": 60, "time_elapsed": 1067828, "internal_node_id": "0.0-4.0-3.0-20.0"}}, {"uniqueid": "w78757160:a39673591", "current_trial": 61, "dateTime": 1664556028183, "trialdata": {"revealed_states": [], "num_clicks_accrued": [0, 0, 0, 0, 0, 0, 0, 0, 0, 0, 0, 0, 0], "stateRewards": ["", 2, 8, 48, -48, -2, -4, -24, 24, 4, -4, 48, -48], "withholdReward": true, "trial_id": "mdp_105734044587", "block": "test2", "trialIndex": 53, "score": 62.5, "costs": -0.5, "simulationMode": [null, null, null], "rewards": [2, 8, 48], "path": ["0", "0", "1", "2", "3"], "rt": [4799, 239, 182], "actions": ["up", "up", "right"], "actionTimes": [10565, 11321, 12013], "queries": {"click": {"state": {"target": ["3", "2"], "time": [7023, 9050]}, "edge": {"target": [], "time": []}}, "mouseover": {"state": {"target": ["1", "3", "2", "1"], "time": [6314, 6816, 8818, 9631]}, "edge": {"target": [], "time": []}}, "mouseout": {"state": {"target": ["0", "1", "1", "3", "2", "1"], "time": [3698, 4748, 6331, 8098, 9598, 9731]}, "edge": {"target": [], "time": []}}}, "displayed_time": "14.77", "trialTime": 16710, "trial_type": "mouselab-mdp", "trial_index": 61, "time_elapsed": 1084592, "internal_node_id": "0.0-4.0-3.0-21.0"}}, {"uniqueid": "w78757160:a39673591", "current_trial": 62, "dateTime": 1664556038548, "trialdata": {"revealed_states": [], "num_clicks_accrued": [0, 0, 0, 0, 0, 0, 0, 0, 0, 0, 0, 0, 0], "stateRewards": ["", -4, -4, -24, 48, -4, -8, -24, 48, 2, 4, 48, 48], "withholdReward": true, "trial_id": "mdp_810954007398", "block": "test2", "trialIndex": 54, "score": 44.75, "costs": -0.25, "simulationMode": [null, null, null], "rewards": [-4, -4, 48], "path": ["0", "0", "1", "2", "4"], "rt": [2349, 311, 642], "actions": ["up", "up", "left"], "actionTimes": [4324, 5125, 6272], "queries": {"click": {"state": {"target": ["4"], "time": [2972]}, "edge": {"target": [], "time": []}}, "mouseover": {"state": {"target": ["4"], "time": [2680]}, "edge": {"target": [], "time": []}}, "mouseout": {"state": {"target": ["0", "4", "9"], "time": [2396, 7962, 8146]}, "edge": {"target": [], "time": []}}}, "displayed_time": "8.97", "trialTime": 10308, "trial_type": "mouselab-mdp", "trial_index": 62, "time_elapsed": 1094957, "internal_node_id": "0.0-4.0-3.0-22.0"}}, {"uniqueid": "w78757160:a39673591", "current_trial": 63, "dateTime": 1664556047604, "trialdata": {"revealed_states": [], "num_clicks_accrued": [0, 0, 0, 0, 0, 0, 0, 0, 0, 0, 0, 0, 0], "stateRewards": ["", 4, -4, 48, -48, -4, -4, 48, -48, 4, 4, -48, -24], "withholdReward": true, "trial_id": "mdp_490058671112", "block": "test2", "trialIndex": 55, "score": 52.5, "costs": -0.5, "simulationMode": [null, null, null], "rewards": [4, -4, 48], "path": ["0", "0", "1", "2", "3"], "rt": [3467, 280, 510], "actions": ["up", "up", "right"], "actionTimes": [4622, 5394, 6407], "queries": {"click": {"state": {"target": ["12", "3"], "time": [2142, 3432]}, "edge": {"target": [], "time": []}}, "mouseover": {"state": {"target": ["12", "3"], "time": [1848, 3081]}, "edge": {"target": [], "time": []}}, "mouseout": {"state": {"target": ["0", "12", "3"], "time": [1519, 2734, 8681]}, "edge": {"target": [], "time": []}}}, "displayed_time": "8.16", "trialTime": 9000, "trial_type": "mouselab-mdp", "trial_index": 63, "time_elapsed": 1104013, "internal_node_id": "0.0-4.0-3.0-23.0"}}, {"uniqueid": "w78757160:a39673591", "current_trial": 64, "dateTime": 1664556058942, "trialdata": {"revealed_states": [], "num_clicks_accrued": [0, 0, 0, 0, 0, 0, 0, 0, 0, 0, 0, 0, 0], "stateRewards": ["", 4, 8, 48, -48, -4, 8, -24, -24, -4, 8, 48, 48], "withholdReward": false, "trial_id": "mdp_377640328420", "block": "test2", "trialIndex": 56, "score": 56, "costs": -1, "simulationMode": [null, null, null], "rewards": [-4, 8, 48], "path": ["0", "0", "9", "10", "12"], "rt": [7538, 227, 180], "actions": ["left", "left", "down"], "actionTimes": [8391, 9116, 9802], "queries": {"click": {"state": {"target": ["4", "8", "7", "12"], "time": [2753, 4239, 5484, 7067]}, "edge": {"target": [], "time": []}}, "mouseover": {"state": {"target": ["4", "1", "5", "8", "6", "7", "9", "12"], "time": [2507, 3272, 3305, 3872, 4872, 5122, 6139, 6372]}, "edge": {"target": [], "time": []}}, "mouseout": {"state": {"target": ["0", "4", "1", "5", "8", "6", "7", "9", "12"], "time": [1223, 3249, 3289, 3639, 4839, 5006, 6040, 6205, 10823]}, "edge": {"target": [], "time": []}}}, "displayed_time": "10.30", "trialTime": 11281, "trial_type": "mouselab-mdp", "trial_index": 64, "time_elapsed": 1115351, "internal_node_id": "0.0-4.0-3.0-24.0"}}, {"uniqueid": "w78757160:a39673591", "current_trial": 65, "dateTime": 1664556069662, "trialdata": {"revealed_states": [], "num_clicks_accrued": [0, 0, 0, 0, 0, 0, 0, 0, 0, 0, 0, 0, 0], "stateRewards": ["", 2, -8, -24, 48, 4, -8, -24, -24, 2, 8, -24, 24], "withholdReward": true, "trial_id": "mdp_480787552818", "block": "test2", "trialIndex": 57, "score": 46.25, "costs": -0.75, "simulationMode": [null, null, null], "rewards": [2, -8, 48], "path": ["0", "0", "1", "2", "4"], "rt": [4590, 235, 549], "actions": ["up", "up", "left"], "actionTimes": [6457, 7204, 8268], "queries": {"click": {"state": {"target": ["3", "11", "4"], "time": [2775, 4290, 5235]}, "edge": {"target": [], "time": []}}, "mouseover": {"state": {"target": ["3", "1", "9", "10", "12", "10", "11", "4", "1"], "time": [2436, 3286, 3403, 3503, 3553, 3669, 3702, 4869, 5786]}, "edge": {"target": [], "time": []}}, "mouseout": {"state": {"target": ["0", "3", "1", "9", "10", "12", "10", "11", "4", "1", "0"], "time": [2324, 3270, 3303, 3436, 3519, 3652, 3686, 4836, 5725, 5819, 9202]}, "edge": {"target": [], "time": []}}}, "displayed_time": "9.87", "trialTime": 10666, "trial_type": "mouselab-mdp", "trial_index": 65, "time_elapsed": 1126071, "internal_node_id": "0.0-4.0-3.0-25.0"}}, {"uniqueid": "w78757160:a39673591", "current_trial": 66, "dateTime": 1664556081642, "trialdata": {"revealed_states": [], "num_clicks_accrued": [0, 0, 0, 0, 0, 0, 0, 0, 0, 0, 0, 0, 0], "stateRewards": ["", 2, -4, 24, 24, 2, 4, 24, 24, -4, 8, 24, 48], "withholdReward": true, "trial_id": "mdp_268430387178", "block": "test2", "trialIndex": 58, "score": 56.25, "costs": -0.75, "simulationMode": [null, null, null], "rewards": [-4, 8, 48], "path": ["0", "0", "9", "10", "12"], "rt": [5850, 761, 666], "actions": ["left", "left", "down"], "actionTimes": [7600, 8875, 10046], "queries": {"click": {"state": {"target": ["8", "11", "12"], "time": [2952, 4430, 6531]}, "edge": {"target": [], "time": []}}, "mouseover": {"state": {"target": ["8", "10", "11", "10", "12"], "time": [2663, 3914, 4114, 5697, 6198]}, "edge": {"target": [], "time": []}}, "mouseout": {"state": {"target": ["0", "8", "10", "11", "10"], "time": [2364, 3780, 3948, 5666, 5747]}, "edge": {"target": [], "time": []}}}, "displayed_time": "10.58", "trialTime": 11925, "trial_type": "mouselab-mdp", "trial_index": 66, "time_elapsed": 1138051, "internal_node_id": "0.0-4.0-3.0-26.0"}}, {"uniqueid": "w78757160:a39673591", "current_trial": 67, "dateTime": 1664556092707, "trialdata": {"revealed_states": [], "num_clicks_accrued": [0, 0, 0, 0, 0, 0, 0, 0, 0, 0, 0, 0, 0], "stateRewards": ["", 4, -8, 24, 48, -2, -4, -48, 24, 2, 4, -48, -24], "withholdReward": true, "trial_id": "mdp_749974461966", "block": "test2", "trialIndex": 59, "score": 48.5, "costs": -0.5, "simulationMode": [null, null, null], "rewards": [4, -8, 48], "path": ["0", "0", "1", "2", "4"], "rt": [3288, 164, 364], "actions": ["up", "up", "left"], "actionTimes": [4712, 5376, 6242], "queries": {"click": {"state": {"target": ["3", "4"], "time": [2232, 3501]}, "edge": {"target": [], "time": []}}, "mouseover": {"state": {"target": ["3", "2", "4"], "time": [1912, 2928, 3211]}, "edge": {"target": [], "time": []}}, "mouseout": {"state": {"target": ["12", "9", "0", "3", "2", "4"], "time": [763, 844, 1079, 2911, 2962, 7895]}, "edge": {"target": [], "time": []}}}, "displayed_time": "10.42", "trialTime": 11006, "trial_type": "mouselab-mdp", "trial_index": 67, "time_elapsed": 1149116, "internal_node_id": "0.0-4.0-3.0-27.0"}}, {"uniqueid": "w78757160:a39673591", "current_trial": 68, "dateTime": 1664556104960, "trialdata": {"revealed_states": [], "num_clicks_accrued": [0, 0, 0, 0, 0, 0, 0, 0, 0, 0, 0, 0, 0], "stateRewards": ["", -4, -4, 48, 24, -4, -4, -24, -48, -4, 4, 48, -24], "withholdReward": true, "trial_id": "mdp_896503755738", "block": "test2", "trialIndex": 60, "score": 52.25, "costs": -0.75, "simulationMode": [null, null, null], "rewards": [-4, 4, 48], "path": ["0", "0", "9", "10", "11"], "rt": [5684, 361, 618], "actions": ["left", "left", "up"], "actionTimes": [7056, 7926, 9034], "queries": {"click": {"state": {"target": ["8", "12", "11"], "time": [2941, 4666, 5739]}, "edge": {"target": [], "time": []}}, "mouseover": {"state": {"target": ["1", "6", "8", "12", "10", "11"], "time": [2199, 2382, 2649, 3882, 5249, 5468]}, "edge": {"target": [], "time": []}}, "mouseout": {"state": {"target": ["0", "1", "6", "8", "12", "10", "11", "9"], "time": [2146, 2267, 2399, 3600, 5215, 5316, 10800, 10865]}, "edge": {"target": [], "time": []}}}, "displayed_time": "11.37", "trialTime": 12197, "trial_type": "mouselab-mdp", "trial_index": 68, "time_elapsed": 1161368, "internal_node_id": "0.0-4.0-3.0-28.0"}}, {"uniqueid": "w78757160:a39673591", "current_trial": 69, "dateTime": 1664556118692, "trialdata": {"revealed_states": [], "num_clicks_accrued": [0, 0, 0, 0, 0, 0, 0, 0, 0, 0, 0, 0, 0], "stateRewards": ["", -4, -8, -24, 24, 4, 4, -48, -48, -4, -4, 24, -48], "withholdReward": true, "trial_id": "mdp_431592223624", "block": "test2", "trialIndex": 61, "score": 15.5, "costs": -1.5, "simulationMode": [null, null, null], "rewards": [-4, -8, 24], "path": ["0", "0", "1", "2", "4"], "rt": [9197, 71, 239], "actions": ["up", "up", "left"], "actionTimes": [11067, 11637, 12388], "queries": {"click": {"state": {"target": ["3", "7", "11", "12", "8", "4"], "time": [2733, 4337, 5837, 6940, 8118, 9183]}, "edge": {"target": [], "time": []}}, "mouseover": {"state": {"target": ["3", "7", "7", "7", "11", "11", "10", "12", "8", "1", "4"], "time": [2367, 3517, 3684, 4117, 5033, 5433, 6483, 6616, 7801, 8683, 8950]}, "edge": {"target": [], "time": []}}, "mouseout": {"state": {"target": ["0", "3", "7", "7", "7", "11", "11", "10", "12", "8", "1"], "time": [2300, 3484, 3533, 3766, 4900, 5050, 6467, 6550, 7433, 8633, 8699]}, "edge": {"target": [], "time": []}}}, "displayed_time": "12.90", "trialTime": 13682, "trial_type": "mouselab-mdp", "trial_index": 69, "time_elapsed": 1175100, "internal_node_id": "0.0-4.0-3.0-29.0"}}, {"uniqueid": "w78757160:a39673591", "current_trial": 70, "dateTime": 1664556121891, "trialdata": {"rt": 3196, "stimulus": "<h1> End of block! </h1>\n\nYou have reached the end of the block 2/4. If you need a short break, feel free to take one now before moving on.\n\n<br><br>\nIn the next block, you will complete another 30 rounds of this game.\n\n<br><br>\n<div style='text-align: center;'>Press <code>space</code> to begin.</div>\n<br><br>\n<div style='text-align: center;'>(If the experiment doesn't continue, try clicking on the text and then pressing <code>space</code>.)</div>", "response": " ", "trial_id": "mdp_ready_3", "trial_type": "html-keyboard-response", "trial_index": 70, "time_elapsed": 1178300, "internal_node_id": "0.0-4.0-4.0"}}, {"uniqueid": "w78757160:a39673591", "current_trial": 71, "dateTime": 1664556130792, "trialdata": {"revealed_states": [], "num_clicks_accrued": [0, 0, 0, 0, 0, 0, 0, 0, 0, 0, 0, 0, 0], "stateRewards": ["", 2, -8, 48, -24, 2, -4, 24, 48, 4, -4, 48, -24], "withholdReward": true, "trial_id": "mdp_656500928756", "block": "test3", "trialIndex": 62, "score": 52.5, "costs": -0.5, "simulationMode": [null, null, null], "rewards": [4, -4, 48], "path": ["0", "0", "9", "10", "11"], "rt": [3132, 403, 639], "actions": ["left", "left", "up"], "actionTimes": [4266, 5158, 6309], "queries": {"click": {"state": {"target": ["4", "11"], "time": [1973, 3083]}, "edge": {"target": [], "time": []}}, "mouseover": {"state": {"target": ["4", "10", "11"], "time": [1653, 2586, 2754]}, "edge": {"target": [], "time": []}}, "mouseout": {"state": {"target": ["2", "1", "4", "10"], "time": [538, 569, 2520, 2720]}, "edge": {"target": [], "time": []}}}, "displayed_time": "8.14", "trialTime": 8838, "trial_type": "mouselab-mdp", "trial_index": 71, "time_elapsed": 1187201, "internal_node_id": "0.0-4.0-5.0-0.0"}}, {"uniqueid": "w78757160:a39673591", "current_trial": 72, "dateTime": 1664556142554, "trialdata": {"revealed_states": [], "num_clicks_accrued": [0, 0, 0, 0, 0, 0, 0, 0, 0, 0, 0, 0, 0], "stateRewards": ["", -2, 8, -24, 48, -4, 4, -48, 24, 4, -8, 48, -24], "withholdReward": true, "trial_id": "mdp_425320427962", "block": "test3", "trialIndex": 63, "score": 58, "costs": -1, "simulationMode": [null, null, null], "rewards": [-2, 8, 48], "path": ["0", "0", "1", "2", "4"], "rt": [5598, 344, 462], "actions": ["up", "up", "left"], "actionTimes": [8493, 9334, 10301], "queries": {"click": {"state": {"target": ["8", "7", "3", "4"], "time": [3802, 5483, 6375, 7290]}, "edge": {"target": [], "time": []}}, "mouseover": {"state": {"target": ["0", "8", "6", "7", "3", "2", "4"], "time": [3285, 3372, 5039, 5256, 6022, 6923, 7005]}, "edge": {"target": [], "time": []}}, "mouseout": {"state": {"target": ["11", "0", "8", "6", "7", "3", "2"], "time": [2388, 3291, 4889, 5139, 6006, 6877, 6956]}, "edge": {"target": [], "time": []}}}, "displayed_time": "10.90", "trialTime": 11704, "trial_type": "mouselab-mdp", "trial_index": 72, "time_elapsed": 1198963, "internal_node_id": "0.0-4.0-5.0-1.0"}}, {"uniqueid": "w78757160:a39673591", "current_trial": 73, "dateTime": 1664556152281, "trialdata": {"revealed_states": [], "num_clicks_accrued": [0, 0, 0, 0, 0, 0, 0, 0, 0, 0, 0, 0, 0], "stateRewards": ["", 2, -4, 24, 48, -2, 4, -48, -48, -4, 4, 24, -24], "withholdReward": true, "trial_id": "mdp_900363662757", "block": "test3", "trialIndex": 64, "score": 50.5, "costs": -0.5, "simulationMode": [null, null, null], "rewards": [2, -4, 48], "path": ["0", "0", "1", "2", "4"], "rt": [3638, 206, 156], "actions": ["up", "up", "left"], "actionTimes": [4941, 5648, 6315], "queries": {"click": {"state": {"target": ["12", "4"], "time": [2150, 3793]}, "edge": {"target": [], "time": []}}, "mouseover": {"state": {"target": ["9", "12", "10", "4", "4"], "time": [1676, 1744, 2792, 2992, 3447]}, "edge": {"target": [], "time": []}}, "mouseout": {"state": {"target": ["4", "1", "9", "12", "10", "4"], "time": [675, 859, 1692, 2770, 2809, 3108]}, "edge": {"target": [], "time": []}}}, "displayed_time": "9.30", "trialTime": 9669, "trial_type": "mouselab-mdp", "trial_index": 73, "time_elapsed": 1208690, "internal_node_id": "0.0-4.0-5.0-2.0"}}, {"uniqueid": "w78757160:a39673591", "current_trial": 74, "dateTime": 1664556167727, "trialdata": {"revealed_states": [], "num_clicks_accrued": [0, 0, 0, 0, 0, 0, 0, 0, 0, 0, 0, 0, 0], "stateRewards": ["", 2, -4, -48, -48, -2, -4, -24, -48, -2, 8, 24, 24], "withholdReward": true, "trial_id": "mdp_656069446729", "block": "test3", "trialIndex": 65, "score": 33.5, "costs": -1.5, "simulationMode": [null, null, null], "rewards": [-2, 8, 24], "path": ["0", "0", "9", "10", "12"], "rt": [9008, 141, 983], "actions": ["left", "left", "down"], "actionTimes": [11547, 12203, 13695], "queries": {"click": {"state": {"target": ["3", "7", "12", "11", "4", "8"], "time": [3350, 4243, 5398, 6545, 7835, 9726]}, "edge": {"target": [], "time": []}}, "mouseover": {"state": {"target": ["3", "7", "9", "12", "11", "4", "1", "5", "8", "8"], "time": [2962, 3963, 4828, 5145, 6195, 7578, 8311, 8395, 8711, 9515]}, "edge": {"target": [], "time": []}}, "mouseout": {"state": {"target": ["4", "1", "5", "0", "3", "7", "9", "12", "11", "4", "1", "5", "8", "8"], "time": [1895, 1929, 1995, 2899, 3879, 4762, 4977, 5995, 7122, 8295, 8344, 8578, 8778, 10279]}, "edge": {"target": [], "time": []}}}, "displayed_time": "14.20", "trialTime": 15386, "trial_type": "mouselab-mdp", "trial_index": 74, "time_elapsed": 1224136, "internal_node_id": "0.0-4.0-5.0-3.0"}}, {"uniqueid": "w78757160:a39673591", "current_trial": 75, "dateTime": 1664556178409, "trialdata": {"revealed_states": [], "num_clicks_accrued": [0, 0, 0, 0, 0, 0, 0, 0, 0, 0, 0, 0, 0], "stateRewards": ["", 2, 8, 48, -48, -2, -4, -24, 24, 4, -4, 48, -48], "withholdReward": true, "trial_id": "mdp_105734044587", "block": "test3", "trialIndex": 66, "score": -43, "costs": 0, "simulationMode": [null, null, null], "rewards": [4, -4, -48], "path": ["0", "0", "9", "10", "12"], "rt": [865, 56, 83], "actions": ["left", "left", "down"], "actionTimes": [2615, 3187, 3764], "queries": {"click": {"state": {"target": [], "time": []}, "edge": {"target": [], "time": []}}, "mouseover": {"state": {"target": [], "time": []}, "edge": {"target": [], "time": []}}, "mouseout": {"state": {"target": ["0"], "time": [6448]}, "edge": {"target": [], "time": []}}}, "displayed_time": "9.75", "trialTime": 10621, "trial_type": "mouselab-mdp", "trial_index": 75, "time_elapsed": 1234817, "internal_node_id": "0.0-4.0-5.0-4.0"}}, {"uniqueid": "w78757160:a39673591", "current_trial": 76, "dateTime": 1664556189377, "trialdata": {"revealed_states": [], "num_clicks_accrued": [0, 0, 0, 0, 0, 0, 0, 0, 0, 0, 0, 0, 0], "stateRewards": ["", -4, -8, -24, 24, 4, 4, -48, -48, -4, -4, 24, -48], "withholdReward": true, "trial_id": "mdp_431592223624", "block": "test3", "trialIndex": 67, "score": -35, "costs": 0, "simulationMode": [null, null, null], "rewards": [4, 4, -48], "path": ["0", "0", "5", "6", "7"], "rt": [960, 75, 64], "actions": ["right", "right", "up"], "actionTimes": [2329, 2893, 3464], "queries": {"click": {"state": {"target": [], "time": []}, "edge": {"target": [], "time": []}}, "mouseover": {"state": {"target": [], "time": []}, "edge": {"target": [], "time": []}}, "mouseout": {"state": {"target": [], "time": []}, "edge": {"target": [], "time": []}}}, "displayed_time": "10.37", "trialTime": 10910, "trial_type": "mouselab-mdp", "trial_index": 76, "time_elapsed": 1245786, "internal_node_id": "0.0-4.0-5.0-5.0"}}, {"uniqueid": "w78757160:a39673591", "current_trial": 77, "dateTime": 1664556201609, "trialdata": {"revealed_states": [], "num_clicks_accrued": [0, 0, 0, 0, 0, 0, 0, 0, 0, 0, 0, 0, 0], "stateRewards": ["", -2, 4, 24, 48, 2, 4, -48, -48, 2, 8, 48, -48], "withholdReward": false, "trial_id": "mdp_409609775558", "block": "test3", "trialIndex": 68, "score": 55, "costs": 0, "simulationMode": [null, null, null], "rewards": [-2, 4, 48], "path": ["0", "0", "1", "2", "4"], "rt": [787, 247, 1588], "actions": ["up", "up", "left"], "actionTimes": [2031, 2766, 4856], "queries": {"click": {"state": {"target": [], "time": []}, "edge": {"target": [], "time": []}}, "mouseover": {"state": {"target": [], "time": []}, "edge": {"target": [], "time": []}}, "mouseout": {"state": {"target": [], "time": []}, "edge": {"target": [], "time": []}}}, "displayed_time": "11.24", "trialTime": 12178, "trial_type": "mouselab-mdp", "trial_index": 77, "time_elapsed": 1258018, "internal_node_id": "0.0-4.0-5.0-6.0"}}, {"uniqueid": "w78757160:a39673591", "current_trial": 78, "dateTime": 1664556210849, "trialdata": {"revealed_states": [], "num_clicks_accrued": [0, 0, 0, 0, 0, 0, 0, 0, 0, 0, 0, 0, 0], "stateRewards": ["", 4, 4, 48, -48, 4, 4, -48, 24, 2, 8, 24, -48], "withholdReward": true, "trial_id": "mdp_291674656283", "block": "test3", "trialIndex": 69, "score": 61, "costs": 0, "simulationMode": [null, null, null], "rewards": [4, 4, 48], "path": ["0", "0", "1", "2", "3"], "rt": [2128, 379, 499], "actions": ["up", "up", "right"], "actionTimes": [3275, 4163, 5166], "queries": {"click": {"state": {"target": [], "time": []}, "edge": {"target": [], "time": []}}, "mouseover": {"state": {"target": ["3"], "time": [2050]}, "edge": {"target": [], "time": []}}, "mouseout": {"state": {"target": ["0"], "time": [868]}, "edge": {"target": [], "time": []}}}, "displayed_time": "8.15", "trialTime": 9185, "trial_type": "mouselab-mdp", "trial_index": 78, "time_elapsed": 1267258, "internal_node_id": "0.0-4.0-5.0-7.0"}}, {"uniqueid": "w78757160:a39673591", "current_trial": 79, "dateTime": 1664556224492, "trialdata": {"revealed_states": [], "num_clicks_accrued": [0, 0, 0, 0, 0, 0, 0, 0, 0, 0, 0, 0, 0], "stateRewards": ["", -2, -4, -24, -48, 2, -8, -24, -24, 4, -8, 48, 48], "withholdReward": true, "trial_id": "mdp_950599994674", "block": "test3", "trialIndex": 70, "score": -25, "costs": 0, "simulationMode": [null, null, null], "rewards": [2, -8, -24], "path": ["0", "0", "5", "6", "8"], "rt": [809, 430, 300], "actions": ["right", "right", "down"], "actionTimes": [3393, 4335, 5138], "queries": {"click": {"state": {"target": [], "time": []}, "edge": {"target": [], "time": []}}, "mouseover": {"state": {"target": [], "time": []}, "edge": {"target": [], "time": []}}, "mouseout": {"state": {"target": ["3", "0"], "time": [1187, 9604]}, "edge": {"target": [], "time": []}}}, "displayed_time": "12.59", "trialTime": 13584, "trial_type": "mouselab-mdp", "trial_index": 79, "time_elapsed": 1280901, "internal_node_id": "0.0-4.0-5.0-8.0"}}, {"uniqueid": "w78757160:a39673591", "current_trial": 80, "dateTime": 1664556238261, "trialdata": {"revealed_states": [], "num_clicks_accrued": [0, 0, 0, 0, 0, 0, 0, 0, 0, 0, 0, 0, 0], "stateRewards": ["", -4, -4, -24, 48, 2, 4, -24, -48, -2, 4, 24, 24], "withholdReward": false, "trial_id": "mdp_360934723192", "block": "test3", "trialIndex": 71, "score": -27, "costs": 0, "simulationMode": [null, null, null], "rewards": [-4, -4, -24], "path": ["0", "0", "1", "2", "3"], "rt": [912, 297, 565], "actions": ["up", "up", "right"], "actionTimes": [3042, 3840, 4908], "queries": {"click": {"state": {"target": [], "time": []}, "edge": {"target": [], "time": []}}, "mouseover": {"state": {"target": [], "time": []}, "edge": {"target": [], "time": []}}, "mouseout": {"state": {"target": ["0", "0"], "time": [1442, 6708]}, "edge": {"target": [], "time": []}}}, "displayed_time": "12.13", "trialTime": 13709, "trial_type": "mouselab-mdp", "trial_index": 80, "time_elapsed": 1294670, "internal_node_id": "0.0-4.0-5.0-9.0"}}, {"uniqueid": "w78757160:a39673591", "current_trial": 81, "dateTime": 1664556251443, "trialdata": {"revealed_states": [], "num_clicks_accrued": [0, 0, 0, 0, 0, 0, 0, 0, 0, 0, 0, 0, 0], "stateRewards": ["", -4, -8, -48, 48, -2, 8, 48, 48, -2, -4, -48, -48], "withholdReward": true, "trial_id": "mdp_752833580638", "block": "test3", "trialIndex": 72, "score": 41, "costs": 0, "simulationMode": [null, null, null], "rewards": [-4, -8, 48], "path": ["0", "0", "1", "2", "4"], "rt": [1885, 266, 121], "actions": ["up", "up", "left"], "actionTimes": [4358, 5132, 5769], "queries": {"click": {"state": {"target": [], "time": []}, "edge": {"target": [], "time": []}}, "mouseover": {"state": {"target": [], "time": []}, "edge": {"target": [], "time": []}}, "mouseout": {"state": {"target": ["0"], "time": [8964]}, "edge": {"target": [], "time": []}}}, "displayed_time": "11.47", "trialTime": 13116, "trial_type": "mouselab-mdp", "trial_index": 81, "time_elapsed": 1307852, "internal_node_id": "0.0-4.0-5.0-10.0"}}, {"uniqueid": "w78757160:a39673591", "current_trial": 82, "dateTime": 1664556263785, "trialdata": {"revealed_states": [], "num_clicks_accrued": [0, 0, 0, 0, 0, 0, 0, 0, 0, 0, 0, 0, 0], "stateRewards": ["", 2, 4, 48, 48, 4, -8, 24, -48, -4, -8, -24, -48], "withholdReward": true, "trial_id": "mdp_343818007251", "block": "test3", "trialIndex": 73, "score": 58.75, "costs": -0.25, "simulationMode": [null, null, null], "rewards": [2, 4, 48], "path": ["0", "0", "1", "2", "4"], "rt": [4303, 180, 300], "actions": ["up", "up", "left"], "actionTimes": [6420, 7115, 7903], "queries": {"click": {"state": {"target": ["4"], "time": [5289]}, "edge": {"target": [], "time": []}}, "mouseover": {"state": {"target": ["4"], "time": [3069]}, "edge": {"target": [], "time": []}}, "mouseout": {"state": {"target": ["0"], "time": [2619]}, "edge": {"target": [], "time": []}}}, "displayed_time": "11.12", "trialTime": 12280, "trial_type": "mouselab-mdp", "trial_index": 82, "time_elapsed": 1320194, "internal_node_id": "0.0-4.0-5.0-11.0"}}, {"uniqueid": "w78757160:a39673591", "current_trial": 83, "dateTime": 1664556281332, "trialdata": {"revealed_states": [], "num_clicks_accrued": [0, 0, 0, 0, 0, 0, 0, 0, 0, 0, 0, 0, 0], "stateRewards": ["", -2, 8, 48, 48, 2, 4, -48, 24, -4, -8, 48, 24], "withholdReward": false, "trial_id": "mdp_572910394648", "block": "test3", "trialIndex": 74, "score": 41, "costs": 0, "simulationMode": [null, null, null], "rewards": [-4, -8, 48], "path": ["0", "0", "9", "10", "11"], "rt": [1043, 439, 275], "actions": ["left", "left", "up"], "actionTimes": [6182, 7132, 7918], "queries": {"click": {"state": {"target": [], "time": []}, "edge": {"target": [], "time": []}}, "mouseover": {"state": {"target": [], "time": []}, "edge": {"target": [], "time": []}}, "mouseout": {"state": {"target": ["4", "0"], "time": [4596, 16760]}, "edge": {"target": [], "time": []}}}, "displayed_time": "14.14", "trialTime": 17485, "trial_type": "mouselab-mdp", "trial_index": 83, "time_elapsed": 1337741, "internal_node_id": "0.0-4.0-5.0-12.0"}}, {"uniqueid": "w78757160:a39673591", "current_trial": 84, "dateTime": 1664556296395, "trialdata": {"revealed_states": [], "num_clicks_accrued": [0, 0, 0, 0, 0, 0, 0, 0, 0, 0, 0, 0, 0], "stateRewards": ["", -4, -4, 24, -24, 4, 4, 24, 48, 4, -4, 48, -48], "withholdReward": false, "trial_id": "mdp_522385334882", "block": "test3", "trialIndex": 75, "score": 20.75, "costs": -0.25, "simulationMode": [null, null, null], "rewards": [-4, -4, 24], "path": ["0", "0", "1", "2", "3"], "rt": [1866, 292, 225], "actions": ["up", "up", "right"], "actionTimes": [5587, 6390, 7123], "queries": {"click": {"state": {"target": ["3"], "time": [4703]}, "edge": {"target": [], "time": []}}, "mouseover": {"state": {"target": ["3"], "time": [4454]}, "edge": {"target": [], "time": []}}, "mouseout": {"state": {"target": ["0", "3"], "time": [4132, 14452]}, "edge": {"target": [], "time": []}}}, "displayed_time": "12.72", "trialTime": 15007, "trial_type": "mouselab-mdp", "trial_index": 84, "time_elapsed": 1352804, "internal_node_id": "0.0-4.0-5.0-13.0"}}, {"uniqueid": "w78757160:a39673591", "current_trial": 85, "dateTime": 1664556309925, "trialdata": {"revealed_states": [], "num_clicks_accrued": [0, 0, 0, 0, 0, 0, 0, 0, 0, 0, 0, 0, 0], "stateRewards": ["", -4, 8, 24, -48, -4, -8, -24, 24, 2, -4, -48, 24], "withholdReward": false, "trial_id": "mdp_898449441629", "block": "test3", "trialIndex": 76, "score": 26.75, "costs": -0.25, "simulationMode": [null, null, null], "rewards": [2, -4, 24], "path": ["0", "0", "9", "10", "12"], "rt": [2434, 596, 1303], "actions": ["left", "left", "down"], "actionTimes": [4710, 5806, 7597], "queries": {"click": {"state": {"target": ["4"], "time": [3193]}, "edge": {"target": [], "time": []}}, "mouseover": {"state": {"target": ["4"], "time": [2827]}, "edge": {"target": [], "time": []}}, "mouseout": {"state": {"target": ["9", "11", "11", "9", "0", "0"], "time": [1377, 1411, 1627, 1843, 1893, 2744]}, "edge": {"target": [], "time": []}}}, "displayed_time": "10.28", "trialTime": 13467, "trial_type": "mouselab-mdp", "trial_index": 85, "time_elapsed": 1366334, "internal_node_id": "0.0-4.0-5.0-14.0"}}, {"uniqueid": "w78757160:a39673591", "current_trial": 86, "dateTime": 1664556325379, "trialdata": {"revealed_states": [], "num_clicks_accrued": [0, 0, 0, 0, 0, 0, 0, 0, 0, 0, 0, 0, 0], "stateRewards": ["", 2, 8, -48, -24, 2, -4, -48, 24, 2, -4, -24, -24], "withholdReward": true, "trial_id": "mdp_954659099093", "block": "test3", "trialIndex": 77, "score": -9, "costs": 0, "simulationMode": [null, null, null], "rewards": [2, 8, -24], "path": ["0", "0", "1", "2", "4"], "rt": [3042, 250, 499], "actions": ["up", "up", "left"], "actionTimes": [4915, 5675, 6674], "queries": {"click": {"state": {"target": [], "time": []}, "edge": {"target": [], "time": []}}, "mouseover": {"state": {"target": ["5", "6"], "time": [3792, 3842]}, "edge": {"target": [], "time": []}}, "mouseout": {"state": {"target": ["4", "5"], "time": [909, 3808]}, "edge": {"target": [], "time": []}}}, "displayed_time": "10.87", "trialTime": 15388, "trial_type": "mouselab-mdp", "trial_index": 86, "time_elapsed": 1381788, "internal_node_id": "0.0-4.0-5.0-15.0"}}, {"uniqueid": "w78757160:a39673591", "current_trial": 87, "dateTime": 1664556337541, "trialdata": {"revealed_states": [], "num_clicks_accrued": [0, 0, 0, 0, 0, 0, 0, 0, 0, 0, 0, 0, 0], "stateRewards": ["", 2, 4, 24, 48, -2, 8, 24, -24, -4, -4, 48, 48], "withholdReward": false, "trial_id": "mdp_753439303214", "block": "test3", "trialIndex": 78, "score": 44.75, "costs": -0.25, "simulationMode": [null, null, null], "rewards": [-4, -4, 48], "path": ["0", "0", "9", "10", "11"], "rt": [3001, 316, 270], "actions": ["left", "left", "up"], "actionTimes": [4688, 5493, 6280], "queries": {"click": {"state": {"target": ["8"], "time": [3448]}, "edge": {"target": [], "time": []}}, "mouseover": {"state": {"target": ["6", "8"], "time": [2260, 2293]}, "edge": {"target": [], "time": []}}, "mouseout": {"state": {"target": ["6", "5", "6", "8"], "time": [1299, 1343, 2277, 11308]}, "edge": {"target": [], "time": []}}}, "displayed_time": "10.69", "trialTime": 12103, "trial_type": "mouselab-mdp", "trial_index": 87, "time_elapsed": 1393950, "internal_node_id": "0.0-4.0-5.0-16.0"}}, {"uniqueid": "w78757160:a39673591", "current_trial": 88, "dateTime": 1664556359918, "trialdata": {"revealed_states": [], "num_clicks_accrued": [0, 0, 0, 0, 0, 0, 0, 0, 0, 0, 0, 0, 0], "stateRewards": ["", 2, 8, 24, -48, 4, 8, 24, 24, 4, -8, 48, 48], "withholdReward": true, "trial_id": "mdp_646103824875", "block": "test3", "trialIndex": 79, "score": 40.75, "costs": -0.25, "simulationMode": [null, null, null], "rewards": [4, 8, 24], "path": ["0", "0", "5", "6", "8"], "rt": [2069, 2, 1045], "actions": ["right", "right", "down"], "actionTimes": [15114, 15622, 17198], "queries": {"click": {"state": {"target": ["4"], "time": [13996]}, "edge": {"target": [], "time": []}}, "mouseover": {"state": {"target": ["1", "4"], "time": [13554, 13586]}, "edge": {"target": [], "time": []}}, "mouseout": {"state": {"target": ["5", "1"], "time": [12720, 13570]}, "edge": {"target": [], "time": []}}}, "displayed_time": "21.05", "trialTime": 22309, "trial_type": "mouselab-mdp", "trial_index": 88, "time_elapsed": 1416326, "internal_node_id": "0.0-4.0-5.0-17.0"}}, {"uniqueid": "w78757160:a39673591", "current_trial": 89, "dateTime": 1664556373664, "trialdata": {"revealed_states": [], "num_clicks_accrued": [0, 0, 0, 0, 0, 0, 0, 0, 0, 0, 0, 0, 0], "stateRewards": ["", 2, 8, -24, -48, 2, 4, -24, 48, 2, -8, 48, -24], "withholdReward": true, "trial_id": "mdp_791659307216", "block": "test3", "trialIndex": 80, "score": -25.25, "costs": -0.25, "simulationMode": [null, null, null], "rewards": [2, -8, -24], "path": ["0", "0", "9", "10", "12"], "rt": [2200, 168, 278], "actions": ["left", "left", "down"], "actionTimes": [5362, 6027, 6820], "queries": {"click": {"state": {"target": ["3"], "time": [4017]}, "edge": {"target": [], "time": []}}, "mouseover": {"state": {"target": ["3"], "time": [3692]}, "edge": {"target": [], "time": []}}, "mouseout": {"state": {"target": ["4", "2", "0"], "time": [1211, 1659, 3537]}, "edge": {"target": [], "time": []}}}, "displayed_time": "12.16", "trialTime": 13679, "trial_type": "mouselab-mdp", "trial_index": 89, "time_elapsed": 1430072, "internal_node_id": "0.0-4.0-5.0-18.0"}}, {"uniqueid": "w78757160:a39673591", "current_trial": 90, "dateTime": 1664556385355, "trialdata": {"revealed_states": [], "num_clicks_accrued": [0, 0, 0, 0, 0, 0, 0, 0, 0, 0, 0, 0, 0], "stateRewards": ["", 2, 4, 48, -48, 2, -4, 48, 24, -2, -8, -24, 48], "withholdReward": true, "trial_id": "mdp_962424406744", "block": "test3", "trialIndex": 81, "score": 27, "costs": 0, "simulationMode": [null, null, null], "rewards": [2, -4, 24], "path": ["0", "0", "5", "6", "8"], "rt": [1964, 249, 352], "actions": ["right", "right", "down"], "actionTimes": [3177, 3914, 4784], "queries": {"click": {"state": {"target": [], "time": []}, "edge": {"target": [], "time": []}}, "mouseover": {"state": {"target": ["2"], "time": [2168]}, "edge": {"target": [], "time": []}}, "mouseout": {"state": {"target": ["3", "3", "0", "2"], "time": [547, 730, 897, 2198]}, "edge": {"target": [], "time": []}}}, "displayed_time": "11.21", "trialTime": 11628, "trial_type": "mouselab-mdp", "trial_index": 90, "time_elapsed": 1441764, "internal_node_id": "0.0-4.0-5.0-19.0"}}, {"uniqueid": "w78757160:a39673591", "current_trial": 91, "dateTime": 1664556396395, "trialdata": {"revealed_states": [], "num_clicks_accrued": [0, 0, 0, 0, 0, 0, 0, 0, 0, 0, 0, 0, 0], "stateRewards": ["", 4, 8, 48, -48, -4, 8, -24, -24, -4, 8, 48, 48], "withholdReward": true, "trial_id": "mdp_377640328420", "block": "test3", "trialIndex": 82, "score": 56, "costs": -1, "simulationMode": [null, null, null], "rewards": [-4, 8, 48], "path": ["0", "0", "9", "10", "11"], "rt": [6308, 227, 319], "actions": ["left", "left", "up"], "actionTimes": [7747, 8462, 9286], "queries": {"click": {"state": {"target": ["4", "8", "7", "11"], "time": [2414, 3667, 4798, 6209]}, "edge": {"target": [], "time": []}}, "mouseover": {"state": {"target": ["1", "4", "2", "3", "7", "6", "8", "7", "9", "10", "11", "11"], "time": [1868, 2152, 2900, 3052, 3184, 3251, 3351, 4534, 5367, 5434, 5667, 5883]}, "edge": {"target": [], "time": []}}, "mouseout": {"state": {"target": ["0", "0", "1", "4", "2", "3", "7", "6", "8", "7", "9", "10", "11"], "time": [701, 1835, 1968, 2884, 2984, 3134, 3234, 3301, 4206, 5301, 5400, 5651, 5684]}, "edge": {"target": [], "time": []}}}, "displayed_time": "9.80", "trialTime": 10973, "trial_type": "mouselab-mdp", "trial_index": 91, "time_elapsed": 1452804, "internal_node_id": "0.0-4.0-5.0-20.0"}}, {"uniqueid": "w78757160:a39673591", "current_trial": 92, "dateTime": 1664556406148, "trialdata": {"revealed_states": [], "num_clicks_accrued": [0, 0, 0, 0, 0, 0, 0, 0, 0, 0, 0, 0, 0], "stateRewards": ["", 2, 8, 48, -24, -4, 4, 48, 24, -2, 8, 24, 24], "withholdReward": true, "trial_id": "mdp_123436106791", "block": "test3", "trialIndex": 83, "score": 34.5, "costs": -0.5, "simulationMode": [null, null, null], "rewards": [-2, 8, 24], "path": ["0", "0", "9", "10", "12"], "rt": [4367, 203, 605], "actions": ["left", "left", "down"], "actionTimes": [5979, 6679, 7797], "queries": {"click": {"state": {"target": ["11", "12"], "time": [2885, 4309]}, "edge": {"target": [], "time": []}}, "mouseover": {"state": {"target": ["9", "11", "11", "10", "12"], "time": [2075, 2158, 2608, 3793, 3908]}, "edge": {"target": [], "time": []}}, "mouseout": {"state": {"target": ["11", "0", "0", "9", "11", "11", "10"], "time": [958, 1308, 2026, 2092, 2242, 3724, 3843]}, "edge": {"target": [], "time": []}}}, "displayed_time": "8.61", "trialTime": 9684, "trial_type": "mouselab-mdp", "trial_index": 92, "time_elapsed": 1462557, "internal_node_id": "0.0-4.0-5.0-21.0"}}, {"uniqueid": "w78757160:a39673591", "current_trial": 93, "dateTime": 1664556417758, "trialdata": {"revealed_states": [], "num_clicks_accrued": [0, 0, 0, 0, 0, 0, 0, 0, 0, 0, 0, 0, 0], "stateRewards": ["", 2, 4, 48, 48, -2, 4, 48, -24, -4, 8, -48, 48], "withholdReward": true, "trial_id": "mdp_407586865939", "block": "test3", "trialIndex": 84, "score": 54.75, "costs": -0.25, "simulationMode": [null, null, null], "rewards": [-2, 4, 48], "path": ["0", "0", "5", "6", "7"], "rt": [1879, 227, 261], "actions": ["right", "right", "up"], "actionTimes": [3216, 3954, 4704], "queries": {"click": {"state": {"target": ["7"], "time": [2249]}, "edge": {"target": [], "time": []}}, "mouseover": {"state": {"target": ["5", "7"], "time": [1727, 1993]}, "edge": {"target": [], "time": []}}, "mouseout": {"state": {"target": ["12", "0", "5", "7", "5", "0"], "time": [544, 1043, 1759, 8043, 8109, 8276]}, "edge": {"target": [], "time": []}}}, "displayed_time": "10.34", "trialTime": 11547, "trial_type": "mouselab-mdp", "trial_index": 93, "time_elapsed": 1474167, "internal_node_id": "0.0-4.0-5.0-22.0"}}, {"uniqueid": "w78757160:a39673591", "current_trial": 94, "dateTime": 1664556427934, "trialdata": {"revealed_states": [], "num_clicks_accrued": [0, 0, 0, 0, 0, 0, 0, 0, 0, 0, 0, 0, 0], "stateRewards": ["", 4, -8, 48, -24, -4, 4, 24, 24, -2, -4, 24, 24], "withholdReward": true, "trial_id": "mdp_542168715839", "block": "test3", "trialIndex": 85, "score": 28.5, "costs": -0.5, "simulationMode": [null, null, null], "rewards": [-4, 4, 24], "path": ["0", "0", "5", "6", "8"], "rt": [4728, 225, 398], "actions": ["right", "right", "down"], "actionTimes": [5762, 6479, 7369], "queries": {"click": {"state": {"target": ["7", "8"], "time": [3034, 4219]}, "edge": {"target": [], "time": []}}, "mouseover": {"state": {"target": ["5", "7", "6", "8"], "time": [2421, 2687, 3638, 3888]}, "edge": {"target": [], "time": []}}, "mouseout": {"state": {"target": ["0", "5", "7", "6", "8"], "time": [2388, 2638, 3605, 3654, 4672]}, "edge": {"target": [], "time": []}}}, "displayed_time": "9.04", "trialTime": 10118, "trial_type": "mouselab-mdp", "trial_index": 94, "time_elapsed": 1484342, "internal_node_id": "0.0-4.0-5.0-23.0"}}, {"uniqueid": "w78757160:a39673591", "current_trial": 95, "dateTime": 1664556443725, "trialdata": {"revealed_states": [], "num_clicks_accrued": [0, 0, 0, 0, 0, 0, 0, 0, 0, 0, 0, 0, 0], "stateRewards": ["", -4, 8, -48, -48, -4, 4, -24, -48, 2, -4, -24, 24], "withholdReward": true, "trial_id": "mdp_183773275291", "block": "test3", "trialIndex": 86, "score": 25.5, "costs": -1.5, "simulationMode": [null, null, null], "rewards": [2, -4, 24], "path": ["0", "0", "9", "10", "12"], "rt": [9082, 221, 187], "actions": ["left", "left", "down"], "actionTimes": [12579, 13293, 13992], "queries": {"click": {"state": {"target": ["4", "3", "12", "11", "7", "8"], "time": [4418, 6038, 7230, 8309, 9690, 10687]}, "edge": {"target": [], "time": []}}, "mouseover": {"state": {"target": ["1", "4", "1", "3", "3", "1", "12", "10", "11", "1", "7", "6", "8"], "time": [3924, 4090, 5056, 5324, 5756, 6755, 6856, 7806, 7905, 8872, 9224, 10189, 10272]}, "edge": {"target": [], "time": []}}, "mouseout": {"state": {"target": ["0", "1", "4", "1", "3", "3", "1", "12", "10", "11", "1", "7", "6"], "time": [2457, 3990, 5006, 5174, 5356, 6739, 6772, 7790, 7839, 8856, 8905, 10155, 10223]}, "edge": {"target": [], "time": []}}}, "displayed_time": "14.51", "trialTime": 15730, "trial_type": "mouselab-mdp", "trial_index": 95, "time_elapsed": 1500134, "internal_node_id": "0.0-4.0-5.0-24.0"}}, {"uniqueid": "w78757160:a39673591", "current_trial": 96, "dateTime": 1664556456210, "trialdata": {"revealed_states": [], "num_clicks_accrued": [0, 0, 0, 0, 0, 0, 0, 0, 0, 0, 0, 0, 0], "stateRewards": ["", -2, 8, 24, -48, -2, -4, 24, 48, 2, 8, -48, -48], "withholdReward": true, "trial_id": "mdp_562228697607", "block": "test3", "trialIndex": 87, "score": 22.75, "costs": -0.25, "simulationMode": [null, null, null], "rewards": [-2, -4, 24], "path": ["0", "0", "5", "6", "7"], "rt": [1969, 273, 327], "actions": ["right", "right", "up"], "actionTimes": [3601, 4366, 5187], "queries": {"click": {"state": {"target": ["7"], "time": [2541]}, "edge": {"target": [], "time": []}}, "mouseover": {"state": {"target": ["7"], "time": [2226]}, "edge": {"target": [], "time": []}}, "mouseout": {"state": {"target": ["8", "0", "7"], "time": [1077, 1979, 7625]}, "edge": {"target": [], "time": []}}}, "displayed_time": "11.63", "trialTime": 12419, "trial_type": "mouselab-mdp", "trial_index": 96, "time_elapsed": 1512619, "internal_node_id": "0.0-4.0-5.0-25.0"}}, {"uniqueid": "w78757160:a39673591", "current_trial": 97, "dateTime": 1664556469918, "trialdata": {"revealed_states": [], "num_clicks_accrued": [0, 0, 0, 0, 0, 0, 0, 0, 0, 0, 0, 0, 0], "stateRewards": ["", -4, -4, -24, 24, -4, 4, -24, 48, -2, 4, 48, -48], "withholdReward": false, 