{"condition": 1, "counterbalance": 0, "assignmentId": "a75767495", "workerId": "w33285777", "hitId": "h98945795", "currenttrial": 137, "bonus": 0, "data": [{"uniqueid": "w33285777:a75767495", "current_trial": 0, "dateTime": 1664554955155, "trialdata": {"success": true, "trial_type": "fullscreen", "trial_index": 0, "time_elapsed": 9104, "internal_node_id": "0.0-0.0"}}, {"uniqueid": "w33285777:a75767495", "current_trial": 1, "dateTime": 1664554971984, "trialdata": {"view_history": [{"page_index": 0, "viewing_time": 16822}], "rt": 16822, "trial_id": "exp_instructions_no_distractor", "trial_type": "instructions", "trial_index": 1, "time_elapsed": 25933, "internal_node_id": "0.0-1.0"}}, {"uniqueid": "w33285777:a75767495", "current_trial": 2, "dateTime": 1664554976300, "trialdata": {"success": true, "trial_type": "fullscreen", "trial_index": 2, "time_elapsed": 30249, "internal_node_id": "0.0-2.0-0.0"}}, {"uniqueid": "w33285777:a75767495", "current_trial": 3, "dateTime": 1664555095790, "trialdata": {"view_history": [{"page_index": 0, "viewing_time": 49204}, {"page_index": 1, "viewing_time": 28441}, {"page_index": 2, "viewing_time": 15523}, {"page_index": 3, "viewing_time": 6079}, {"page_index": 4, "viewing_time": 20239}], "rt": 119486, "trial_id": "mouselab_instructions_1", "trial_type": "instructions", "trial_index": 3, "time_elapsed": 149739, "internal_node_id": "0.0-2.0-1.0"}}, {"uniqueid": "w33285777:a75767495", "current_trial": 4, "dateTime": 1664555115118, "trialdata": {"revealed_states": [], "num_clicks_accrued": [0, 0, 0, 0, 0, 0, 0, 0, 0, 0, 0, 0, 0], "stateRewards": ["", 10, 10, 10, 10, 10, 10, -10, -10, 10, -10, 10, -10], "withholdReward": false, "trial_id": "practice_1", "block": "test", "trialIndex": 0, "score": 11.5, "costs": -0.5, "simulationMode": [null, null, null], "rewards": [10, 10, -10], "path": ["0", "0", "5", "6", "8"], "rt": [11667, 604, 558], "actions": ["right", "right", "down"], "actionTimes": [13888, 14996, 16060], "queries": {"click": {"state": {"target": ["5", "6"], "time": [5496, 11292]}, "edge": {"target": [], "time": []}}, "mouseover": {"state": {"target": ["5", "8", "6"], "time": [3967, 6969, 7759]}, "edge": {"target": [], "time": []}}, "mouseout": {"state": {"target": ["0", "5", "8"], "time": [1378, 6276, 7676]}, "edge": {"target": [], "time": []}}}, "displayed_time": "16.57", "trialTime": 18986, "trial_type": "mouselab-mdp", "trial_index": 4, "time_elapsed": 169067, "internal_node_id": "0.0-2.0-2.0-0.0"}}, {"uniqueid": "w33285777:a75767495", "current_trial": 5, "dateTime": 1664555126619, "trialdata": {"revealed_states": [], "num_clicks_accrued": [0, 0, 0, 0, 0, 0, 0, 0, 0, 0, 0, 0, 0], "stateRewards": ["", 10, -10, 10, 10, 10, -10, -10, 10, -10, -10, 10, 10], "withholdReward": false, "trial_id": "practice_2", "block": "test", "trialIndex": 1, "score": 11.5, "costs": -0.5, "simulationMode": [null, null, null], "rewards": [10, -10, 10], "path": ["0", "0", "5", "6", "8"], "rt": [3825, 594, 1304], "actions": ["right", "right", "down"], "actionTimes": [5864, 6962, 8772], "queries": {"click": {"state": {"target": ["9", "5"], "time": [2937, 4334]}, "edge": {"target": [], "time": []}}, "mouseover": {"state": {"target": ["0", "9", "5"], "time": [2620, 2784, 4009]}, "edge": {"target": [], "time": []}}, "mouseout": {"state": {"target": ["6", "0", "0", "9"], "time": [1566, 2251, 2667, 3876]}, "edge": {"target": [], "time": []}}}, "displayed_time": "9.28", "trialTime": 11431, "trial_type": "mouselab-mdp", "trial_index": 5, "time_elapsed": 180568, "internal_node_id": "0.0-2.0-2.0-1.0"}}, {"uniqueid": "w33285777:a75767495", "current_trial": 6, "dateTime": 1664555189254, "trialdata": {"view_history": [{"page_index": 0, "viewing_time": 39510}, {"page_index": 1, "viewing_time": 11620}, {"page_index": 2, "viewing_time": 11502}], "rt": 62633, "trial_id": "mouselab_instructions_2_scarce", "trial_type": "instructions", "trial_index": 6, "time_elapsed": 243203, "internal_node_id": "0.0-2.0-3.0"}}, {"uniqueid": "w33285777:a75767495", "current_trial": 7, "dateTime": 1664555217249, "trialdata": {"rt": 27989, "response": {"Q0": "$-48 to $48", "Q1": "The cost is always $0.25.", "Q2": "The better I perform the higher my bonus will be.", "Q3": "No, the amount of cash at each node of the web may be different each time.", "Q4": "The values of the nodes walked through from start to finish.", "Q5": "No, the spider might forget to count the money on some rounds."}, "question_order": [0, 1, 2, 3, 4, 5], "correct": {"Q0": "$-48 to $48", "Q1": "The cost is always $0.25.", "Q2": "The better I perform the higher my bonus will be.", "Q3": "No, the amount of cash at each node of the web may be different each time.", "Q4": "The values of the nodes walked through from start to finish.", "Q5": "No, the spider might forget to count the money on some rounds."}, "trial_id": "mouselab_quiz_scarce", "trial_type": "survey-multi-choice", "trial_index": 7, "time_elapsed": 271198, "internal_node_id": "0.0-2.0-4.0"}}, {"uniqueid": "w33285777:a75767495", "current_trial": 8, "dateTime": 1664555230305, "trialdata": {"rt": 13049, "stimulus": "\n<h1> Get ready to start the game! </h1>\n\nThank you for reading the instructions. Get ready start with the first of 4 block(s) of this game.\n<br><br>\nIn this first block, you will complete 30 rounds of this game before moving on.\n<br><br>\nRemember, the more money the spider gets, the bigger your bonus will be!\n<br><br>\n<div style='text-align: center;'>Press <code>space</code> to begin.</div>\n\n<br><br>\n(If, at any point, the <code>space</code> key does not take you to the next page, click once on the text and try again.)", "response": " ", "trial_id": "mdp_ready_1", "trial_type": "html-keyboard-response", "trial_index": 8, "time_elapsed": 284253, "internal_node_id": "0.0-4.0-0.0"}}, {"uniqueid": "w33285777:a75767495", "current_trial": 9, "dateTime": 1664555247319, "trialdata": {"revealed_states": [], "num_clicks_accrued": [0, 0, 0, 0, 0, 0, 0, 0, 0, 0, 0, 0, 0], "stateRewards": ["", -4, 8, -48, -48, -2, -8, -24, -48, 2, -4, -48, 24], "withholdReward": true, "trial_id": "mdp_743906784415", "block": "test1", "trialIndex": 2, "score": 26, "costs": -1, "simulationMode": [null, null, null], "rewards": [2, -4, 24], "path": ["0", "0", "9", "10", "12"], "rt": [9662, 518, 180], "actions": ["left", "left", "down"], "actionTimes": [11211, 12232, 12928], "queries": {"click": {"state": {"target": ["5", "9", "10", "6"], "time": [2637, 5276, 6720, 8924]}, "edge": {"target": [], "time": []}}, "mouseover": {"state": {"target": ["5", "6", "0", "9", "12", "10", "6"], "time": [2373, 4648, 4881, 5105, 6023, 6589, 8197]}, "edge": {"target": [], "time": []}}, "mouseout": {"state": {"target": ["0", "5", "6", "5", "0", "9", "12", "10", "5", "6", "5"], "time": [1383, 3464, 4805, 4855, 4939, 5881, 6531, 7623, 8146, 10005, 10071]}, "edge": {"target": [], "time": []}}}, "displayed_time": "13.44", "trialTime": 16936, "trial_type": "mouselab-mdp", "trial_index": 9, "time_elapsed": 301268, "internal_node_id": "0.0-4.0-1.0-0.0"}}, {"uniqueid": "w33285777:a75767495", "current_trial": 10, "dateTime": 1664555261672, "trialdata": {"revealed_states": [], "num_clicks_accrued": [0, 0, 0, 0, 0, 0, 0, 0, 0, 0, 0, 0, 0], "stateRewards": ["", -4, -8, 48, -48, 2, -4, 48, -24, 2, -8, -48, -48], "withholdReward": true, "trial_id": "mdp_624553692913", "block": "test1", "trialIndex": 3, "score": -22, "costs": -1, "simulationMode": [null, null, null], "rewards": [2, -4, -24], "path": ["0", "0", "5", "6", "8"], "rt": [6284, 203, 372], "actions": ["right", "right", "down"], "actionTimes": [7697, 8407, 9286], "queries": {"click": {"state": {"target": ["9", "10", "5", "6"], "time": [2350, 4198, 5833, 6578]}, "edge": {"target": [], "time": []}}, "mouseover": {"state": {"target": ["0", "9", "10", "0", "5", "5", "6"], "time": [2028, 2087, 3345, 4894, 4961, 5236, 6127]}, "edge": {"target": [], "time": []}}, "mouseout": {"state": {"target": ["0", "9", "10", "9", "0", "5", "5", "6"], "time": [2037, 3270, 4820, 4878, 4937, 5052, 6070, 6886]}, "edge": {"target": [], "time": []}}}, "displayed_time": "10.50", "trialTime": 14255, "trial_type": "mouselab-mdp", "trial_index": 10, "time_elapsed": 315621, "internal_node_id": "0.0-4.0-1.0-1.0"}}, {"uniqueid": "w33285777:a75767495", "current_trial": 11, "dateTime": 1664555275416, "trialdata": {"revealed_states": [], "num_clicks_accrued": [0, 0, 0, 0, 0, 0, 0, 0, 0, 0, 0, 0, 0], "stateRewards": ["", -4, -4, -24, 24, 4, 4, -24, -24, -4, 4, 24, 24], "withholdReward": true, "trial_id": "mdp_787781487383", "block": "test1", "trialIndex": 4, "score": -12, "costs": -1, "simulationMode": [null, null, null], "rewards": [4, 4, -24], "path": ["0", "0", "5", "6", "8"], "rt": [7805, 355, 373], "actions": ["right", "right", "down"], "actionTimes": [8867, 9729, 10605], "queries": {"click": {"state": {"target": ["10", "6", "9", "5"], "time": [2833, 3806, 6627, 7872]}, "edge": {"target": [], "time": []}}, "mouseover": {"state": {"target": ["9", "10", "9", "0", "6", "5", "0", "9", "0", "5"], "time": [2374, 2574, 3248, 3283, 3523, 6198, 6282, 6465, 7540, 7631]}, "edge": {"target": [], "time": []}}, "mouseout": {"state": {"target": ["0", "9", "10", "9", "0", "6", "5", "0", "9", "0"], "time": [957, 2473, 3224, 3265, 3307, 6165, 6248, 6407, 7506, 7581]}, "edge": {"target": [], "time": []}}}, "displayed_time": "11.12", "trialTime": 13670, "trial_type": "mouselab-mdp", "trial_index": 11, "time_elapsed": 329365, "internal_node_id": "0.0-4.0-1.0-2.0"}}, {"uniqueid": "w33285777:a75767495", "current_trial": 12, "dateTime": 1664555287334, "trialdata": {"revealed_states": [], "num_clicks_accrued": [0, 0, 0, 0, 0, 0, 0, 0, 0, 0, 0, 0, 0], "stateRewards": ["", -2, -4, 48, -24, 2, -4, -24, -48, 2, 8, -48, -24], "withholdReward": true, "trial_id": "mdp_238243948191", "block": "test1", "trialIndex": 5, "score": -9.5, "costs": -0.5, "simulationMode": [null, null, null], "rewards": [2, 8, -24], "path": ["0", "0", "9", "10", "12"], "rt": [5062, 216, 323], "actions": ["left", "left", "down"], "actionTimes": [6211, 6934, 7765], "queries": {"click": {"state": {"target": ["9", "6"], "time": [2909, 5130]}, "edge": {"target": [], "time": []}}, "mouseover": {"state": {"target": ["9", "5", "6"], "time": [1642, 4350, 4542]}, "edge": {"target": [], "time": []}}, "mouseout": {"state": {"target": ["5", "0", "9", "5"], "time": [816, 1575, 4125, 4434]}, "edge": {"target": [], "time": []}}}, "displayed_time": "10.23", "trialTime": 11849, "trial_type": "mouselab-mdp", "trial_index": 12, "time_elapsed": 341283, "internal_node_id": "0.0-4.0-1.0-3.0"}}, {"uniqueid": "w33285777:a75767495", "current_trial": 13, "dateTime": 1664555300535, "trialdata": {"revealed_states": [], "num_clicks_accrued": [0, 0, 0, 0, 0, 0, 0, 0, 0, 0, 0, 0, 0], "stateRewards": ["", -4, -8, 48, 24, 4, -8, 24, -48, -2, -8, 24, -48], "withholdReward": true, "trial_id": "mdp_952038635544", "block": "test1", "trialIndex": 6, "score": -48, "costs": -1, "simulationMode": [null, null, null], "rewards": [4, -8, -48], "path": ["0", "0", "5", "6", "8"], "rt": [7563, 347, 164], "actions": ["right", "right", "down"], "actionTimes": [8780, 9629, 10297], "queries": {"click": {"state": {"target": ["9", "5", "10", "6"], "time": [3198, 4283, 6200, 6693]}, "edge": {"target": [], "time": []}}, "mouseover": {"state": {"target": ["0", "9", "0", "5", "0", "10", "0", "6"], "time": [2257, 2415, 3776, 3824, 5832, 5950, 6424, 6498]}, "edge": {"target": [], "time": []}}, "mouseout": {"state": {"target": ["6", "5", "0", "0", "0", "9", "0", "5", "0", "9", "10", "9", "0", "5"], "time": [707, 798, 882, 1115, 2316, 3758, 3808, 5808, 5867, 5924, 6341, 6408, 6442, 6474]}, "edge": {"target": [], "time": []}}}, "displayed_time": "10.82", "trialTime": 13133, "trial_type": "mouselab-mdp", "trial_index": 13, "time_elapsed": 354484, "internal_node_id": "0.0-4.0-1.0-4.0"}}, {"uniqueid": "w33285777:a75767495", "current_trial": 14, "dateTime": 1664555310829, "trialdata": {"revealed_states": [], "num_clicks_accrued": [0, 0, 0, 0, 0, 0, 0, 0, 0, 0, 0, 0, 0], "stateRewards": ["", -2, -4, -48, 48, -4, 4, -48, 24, -4, -8, 24, 48], "withholdReward": true, "trial_id": "mdp_264482284450", "block": "test1", "trialIndex": 7, "score": 28.5, "costs": -0.5, "simulationMode": [null, null, null], "rewards": [-4, 4, 24], "path": ["0", "0", "5", "6", "8"], "rt": [3043, 713, 288], "actions": ["right", "right", "down"], "actionTimes": [4822, 6039, 6837], "queries": {"click": {"state": {"target": ["10", "6"], "time": [2976, 3608]}, "edge": {"target": [], "time": []}}, "mouseover": {"state": {"target": ["9", "10", "9", "0", "5", "6"], "time": [2449, 2707, 3291, 3324, 3366, 3425]}, "edge": {"target": [], "time": []}}, "mouseout": {"state": {"target": ["6", "5", "0", "9", "10", "9", "0", "5"], "time": [1357, 1515, 2416, 2549, 3275, 3316, 3349, 3391]}, "edge": {"target": [], "time": []}}}, "displayed_time": "8.85", "trialTime": 10220, "trial_type": "mouselab-mdp", "trial_index": 14, "time_elapsed": 364777, "internal_node_id": "0.0-4.0-1.0-5.0"}}, {"uniqueid": "w33285777:a75767495", "current_trial": 15, "dateTime": 1664555328505, "trialdata": {"revealed_states": [], "num_clicks_accrued": [0, 0, 0, 0, 0, 0, 0, 0, 0, 0, 0, 0, 0], "stateRewards": ["", 4, 8, 48, 48, 4, 4, -24, -48, 4, 8, -48, -48], "withholdReward": false, "trial_id": "mdp_984548726931", "block": "test1", "trialIndex": 8, "score": -32, "costs": -1, "simulationMode": [null, null, null], "rewards": [4, 8, -48], "path": ["0", "0", "9", "10", "12"], "rt": [8716, 522, 171], "actions": ["left", "left", "down"], "actionTimes": [10191, 11223, 11904], "queries": {"click": {"state": {"target": ["9", "5", "6", "10"], "time": [4558, 6331, 8003, 9061]}, "edge": {"target": [], "time": []}}, "mouseover": {"state": {"target": ["9", "5", "6", "10"], "time": [4416, 6173, 7741, 8923]}, "edge": {"target": [], "time": []}}, "mouseout": {"state": {"target": ["6", "5", "0", "9", "5", "6", "5"], "time": [1040, 1165, 4265, 5898, 7674, 8449, 8557]}, "edge": {"target": [], "time": []}}}, "displayed_time": "12.41", "trialTime": 17606, "trial_type": "mouselab-mdp", "trial_index": 15, "time_elapsed": 382454, "internal_node_id": "0.0-4.0-1.0-6.0"}}, {"uniqueid": "w33285777:a75767495", "current_trial": 16, "dateTime": 1664555342253, "trialdata": {"revealed_states": [], "num_clicks_accrued": [0, 0, 0, 0, 0, 0, 0, 0, 0, 0, 0, 0, 0], "stateRewards": ["", 2, 4, -48, -24, -4, 4, -24, 24, -2, -8, -24, 24], "withholdReward": false, "trial_id": "mdp_640720803523", "block": "test1", "trialIndex": 9, "score": 27.75, "costs": -1.25, "simulationMode": [null, null, null], "rewards": [-4, 4, 24], "path": ["0", "0", "5", "6", "8"], "rt": [8732, 100, 123], "actions": ["right", "right", "down"], "actionTimes": [10074, 10687, 11319], "queries": {"click": {"state": {"target": ["12", "8", "6", "10", "5"], "time": [2062, 2680, 3721, 4396, 7429]}, "edge": {"target": [], "time": []}}, "mouseover": {"state": {"target": ["12", "8", "6", "5", "0", "9", "10", "5", "9", "0"], "time": [1896, 2604, 3505, 3995, 4029, 4079, 4296, 7395, 9276, 9512]}, "edge": {"target": [], "time": []}}, "mouseout": {"state": {"target": ["10", "9", "0", "0", "12", "8", "6", "5", "0", "9", "10", "5", "9", "0", "5"], "time": [746, 820, 895, 1787, 2304, 3454, 3978, 4021, 4054, 4206, 4728, 8720, 9478, 9545, 9595]}, "edge": {"target": [], "time": []}}}, "displayed_time": "11.84", "trialTime": 13677, "trial_type": "mouselab-mdp", "trial_index": 16, "time_elapsed": 396202, "internal_node_id": "0.0-4.0-1.0-7.0"}}, {"uniqueid": "w33285777:a75767495", "current_trial": 17, "dateTime": 1664555353235, "trialdata": {"revealed_states": [], "num_clicks_accrued": [0, 0, 0, 0, 0, 0, 0, 0, 0, 0, 0, 0, 0], "stateRewards": ["", 2, 4, -48, 24, -4, -4, -24, 24, 2, -4, 24, -24], "withholdReward": true, "trial_id": "mdp_163600331068", "block": "test1", "trialIndex": 10, "score": 19.5, "costs": -1.5, "simulationMode": [null, null, null], "rewards": [-4, -4, 24], "path": ["0", "0", "5", "6", "8"], "rt": [5229, 305, 412], "actions": ["right", "right", "down"], "actionTimes": [6394, 7214, 8145], "queries": {"click": {"state": {"target": ["9", "6", "5", "10", "12", "8"], "time": [2128, 2979, 3474, 4109, 4973, 5482]}, "edge": {"target": [], "time": []}}, "mouseover": {"state": {"target": ["9", "10", "0", "5", "6", "5", "0", "10", "12", "8"], "time": [1925, 2417, 2575, 2600, 2642, 3342, 3767, 4033, 4591, 5441]}, "edge": {"target": [], "time": []}}, "mouseout": {"state": {"target": ["6", "5", "0", "9", "10", "9", "0", "5", "6", "5", "0", "9", "10", "12"], "time": [633, 758, 1817, 2375, 2516, 2558, 2592, 2624, 3275, 3749, 3799, 3883, 4558, 5141]}, "edge": {"target": [], "time": []}}}, "displayed_time": "9.21", "trialTime": 10905, "trial_type": "mouselab-mdp", "trial_index": 17, "time_elapsed": 407184, "internal_node_id": "0.0-4.0-1.0-8.0"}}, {"uniqueid": "w33285777:a75767495", "current_trial": 18, "dateTime": 1664555375871, "trialdata": {"revealed_states": [], "num_clicks_accrued": [0, 0, 0, 0, 0, 0, 0, 0, 0, 0, 0, 0, 0], "stateRewards": ["", 4, 4, -48, -24, -2, -4, 48, 24, -4, 4, 24, -48], "withholdReward": false, "trial_id": "mdp_617383046444", "block": "test1", "trialIndex": 11, "score": 21.25, "costs": -1.75, "simulationMode": [null, null, null], "rewards": [-2, -4, 24], "path": ["0", "0", "5", "6", "8"], "rt": [16911, 1033, 178], "actions": ["right", "right", "down"], "actionTimes": [17960, 19496, 20182], "queries": {"click": {"state": {"target": ["1", "3", "4", "12", "8", "6", "10"], "time": [5534, 6752, 8073, 12985, 14024, 16148, 16872]}, "edge": {"target": [], "time": []}}, "mouseover": {"state": {"target": ["1", "3", "2", "4", "2", "9", "12", "8", "6", "5", "0", "9", "10", "9", "0", "5"], "time": [4988, 6495, 7212, 7520, 8879, 12637, 12853, 13537, 15050, 16561, 16603, 16645, 16711, 17136, 17203, 17245]}, "edge": {"target": [], "time": []}}, "mouseout": {"state": {"target": ["8", "0", "1", "3", "2", "4", "2", "1", "9", "12", "8", "6", "5", "0", "9", "10", "9", "0"], "time": [588, 4887, 6412, 7062, 7421, 8496, 12412, 12562, 12720, 13303, 14696, 16536, 16587, 16628, 16670, 17095, 17178, 17228]}, "edge": {"target": [], "time": []}}}, "displayed_time": "20.69", "trialTime": 22562, "trial_type": "mouselab-mdp", "trial_index": 18, "time_elapsed": 429820, "internal_node_id": "0.0-4.0-1.0-9.0"}}, {"uniqueid": "w33285777:a75767495", "current_trial": 19, "dateTime": 1664555390879, "trialdata": {"revealed_states": [], "num_clicks_accrued": [0, 0, 0, 0, 0, 0, 0, 0, 0, 0, 0, 0, 0], "stateRewards": ["", 4, -4, 48, -48, 2, 8, -48, 24, -2, -4, -24, 48], "withholdReward": true, "trial_id": "mdp_937564992306", "block": "test1", "trialIndex": 12, "score": 52, "costs": -1, "simulationMode": [null, null, null], "rewards": [4, -4, 48], "path": ["0", "0", "1", "2", "3"], "rt": [6441, 790, 431], "actions": ["up", "up", "right"], "actionTimes": [7639, 8935, 9874], "queries": {"click": {"state": {"target": ["2", "4", "3", "1"], "time": [2334, 3231, 3721, 6313]}, "edge": {"target": [], "time": []}}, "mouseover": {"state": {"target": ["1", "2", "4", "3", "5", "1", "5", "6"], "time": [2044, 2127, 3136, 3594, 4302, 5069, 6577, 6636]}, "edge": {"target": [], "time": []}}, "mouseout": {"state": {"target": ["5", "0", "1", "2", "4", "2", "3", "5", "1", "5"], "time": [944, 1986, 2077, 3069, 3435, 3535, 4110, 4952, 6527, 6602]}, "edge": {"target": [], "time": []}}}, "displayed_time": "10.38", "trialTime": 14929, "trial_type": "mouselab-mdp", "trial_index": 19, "time_elapsed": 444828, "internal_node_id": "0.0-4.0-1.0-10.0"}}, {"uniqueid": "w33285777:a75767495", "current_trial": 20, "dateTime": 1664555405783, "trialdata": {"revealed_states": [], "num_clicks_accrued": [0, 0, 0, 0, 0, 0, 0, 0, 0, 0, 0, 0, 0], "stateRewards": ["", 4, -8, 48, -24, 4, -4, -48, -48, 4, -4, 24, 24], "withholdReward": true, "trial_id": "mdp_221562928904", "block": "test1", "trialIndex": 13, "score": 47.5, "costs": -1.5, "simulationMode": [null, null, null], "rewards": [4, -8, 48], "path": ["0", "0", "1", "2", "3"], "rt": [9229, 302, 232], "actions": ["up", "up", "right"], "actionTimes": [11196, 12002, 12748], "queries": {"click": {"state": {"target": ["7", "11", "12", "8", "4", "3"], "time": [4252, 5105, 5639, 6214, 8111, 8711]}, "edge": {"target": [], "time": []}}, "mouseover": {"state": {"target": ["5", "7", "11", "10", "12", "8", "5", "1", "2", "4", "2", "3", "3", "6"], "time": [3800, 3958, 4899, 5350, 5400, 6167, 7183, 7283, 7516, 7724, 8332, 8391, 8641, 9483]}, "edge": {"target": [], "time": []}}, "mouseout": {"state": {"target": ["6", "5", "5", "7", "11", "10", "12", "8", "5", "1", "2", "4", "2", "3", "3", "7", "6"], "time": [1200, 1249, 3841, 4650, 5333, 5383, 5875, 7125, 7233, 7350, 7550, 8299, 8366, 8433, 8966, 9050, 9533]}, "edge": {"target": [], "time": []}}}, "displayed_time": "13.26", "trialTime": 14833, "trial_type": "mouselab-mdp", "trial_index": 20, "time_elapsed": 459732, "internal_node_id": "0.0-4.0-1.0-11.0"}}, {"uniqueid": "w33285777:a75767495", "current_trial": 21, "dateTime": 1664555418923, "trialdata": {"revealed_states": [], "num_clicks_accrued": [0, 0, 0, 0, 0, 0, 0, 0, 0, 0, 0, 0, 0], "stateRewards": ["", 2, 8, -48, -24, 2, -4, -48, 24, 2, -4, -24, -24], "withholdReward": false, "trial_id": "mdp_954659099093", "block": "test1", "trialIndex": 14, "score": 25.5, "costs": -1.5, "simulationMode": [null, null, null], "rewards": [2, -4, 24], "path": ["0", "0", "5", "6", "8"], "rt": [8318, 211, 257], "actions": ["right", "right", "down"], "actionTimes": [9356, 10076, 10837], "queries": {"click": {"state": {"target": ["4", "3", "8", "12", "11", "7"], "time": [2093, 2650, 3300, 4258, 5256, 5769]}, "edge": {"target": [], "time": []}}, "mouseover": {"state": {"target": ["4", "2", "3", "8", "12", "12", "10", "11", "1", "7"], "time": [1853, 2353, 2428, 3103, 3695, 4153, 4878, 5169, 5478, 5561]}, "edge": {"target": [], "time": []}}, "mouseout": {"state": {"target": ["5", "0", "4", "2", "3", "8", "12", "12", "10", "11", "1", "7"], "time": [769, 1703, 2304, 2395, 2953, 3478, 3770, 4844, 4911, 5420, 5495, 7786]}, "edge": {"target": [], "time": []}}}, "displayed_time": "11.35", "trialTime": 13069, "trial_type": "mouselab-mdp", "trial_index": 21, "time_elapsed": 472872, "internal_node_id": "0.0-4.0-1.0-12.0"}}, {"uniqueid": "w33285777:a75767495", "current_trial": 22, "dateTime": 1664555429599, "trialdata": {"revealed_states": [], "num_clicks_accrued": [0, 0, 0, 0, 0, 0, 0, 0, 0, 0, 0, 0, 0], "stateRewards": ["", 2, 8, -48, 48, -4, -8, 24, 24, -2, -8, 24, -24], "withholdReward": true, "trial_id": "mdp_910248289075", "block": "test1", "trialIndex": 15, "score": 62.75, "costs": -0.25, "simulationMode": [null, null, null], "rewards": [2, 8, 48], "path": ["0", "0", "1", "2", "4"], "rt": [4028, 232, 166], "actions": ["up", "up", "left"], "actionTimes": [5080, 5821, 6496], "queries": {"click": {"state": {"target": ["4"], "time": [3394]}, "edge": {"target": [], "time": []}}, "mouseover": {"state": {"target": ["4", "4", "1"], "time": [3048, 3297, 4505]}, "edge": {"target": [], "time": []}}, "mouseout": {"state": {"target": ["5", "0", "4", "4"], "time": [714, 2932, 3139, 3930]}, "edge": {"target": [], "time": []}}}, "displayed_time": "9.11", "trialTime": 10606, "trial_type": "mouselab-mdp", "trial_index": 22, "time_elapsed": 483548, "internal_node_id": "0.0-4.0-1.0-13.0"}}, {"uniqueid": "w33285777:a75767495", "current_trial": 23, "dateTime": 1664555442896, "trialdata": {"revealed_states": [], "num_clicks_accrued": [0, 0, 0, 0, 0, 0, 0, 0, 0, 0, 0, 0, 0], "stateRewards": ["", -4, 4, -24, 24, 2, 4, -24, 48, -4, 8, -48, 48], "withholdReward": true, "trial_id": "mdp_422109108860", "block": "test1", "trialIndex": 16, "score": 55.25, "costs": -1.75, "simulationMode": [null, null, null], "rewards": [-4, 8, 48], "path": ["0", "0", "9", "10", "12"], "rt": [8196, 301, 224], "actions": ["left", "left", "down"], "actionTimes": [9343, 10154, 10887], "queries": {"click": {"state": {"target": ["4", "3", "12", "8", "10", "6", "9"], "time": [2644, 3495, 4652, 5342, 7359, 7914, 8715]}, "edge": {"target": [], "time": []}}, "mouseover": {"state": {"target": ["1", "4", "2", "3", "1", "9", "12", "8", "9", "10", "9", "0", "5", "6", "5", "0", "9"], "time": [2436, 2511, 3195, 3286, 4245, 4286, 4353, 5261, 7078, 7277, 7553, 7586, 7611, 7645, 8394, 8460, 8636]}, "edge": {"target": [], "time": []}}, "mouseout": {"state": {"target": ["1", "0", "1", "4", "2", "3", "1", "9", "12", "8", "9", "10", "9", "0", "5", "6", "5", "0"], "time": [728, 2369, 2445, 3161, 3236, 4186, 4269, 4319, 4978, 6803, 7094, 7527, 7570, 7603, 7622, 8377, 8436, 8519]}, "edge": {"target": [], "time": []}}}, "displayed_time": "11.40", "trialTime": 13227, "trial_type": "mouselab-mdp", "trial_index": 23, "time_elapsed": 496845, "internal_node_id": "0.0-4.0-1.0-14.0"}}, {"uniqueid": "w33285777:a75767495", "current_trial": 24, "dateTime": 1664555454507, "trialdata": {"revealed_states": [], "num_clicks_accrued": [0, 0, 0, 0, 0, 0, 0, 0, 0, 0, 0, 0, 0], "stateRewards": ["", 2, 4, 48, -48, 2, -4, 48, 24, -2, -8, -24, 48], "withholdReward": true, "trial_id": "mdp_962424406744", "block": "test1", "trialIndex": 17, "score": 58, "costs": -1, "simulationMode": [null, null, null], "rewards": [2, 4, 48], "path": ["0", "0", "1", "2", "3"], "rt": [3776, 179, 161], "actions": ["up", "up", "right"], "actionTimes": [5978, 6666, 7333], "queries": {"click": {"state": {"target": ["4", "3", "2", "1"], "time": [2904, 3821, 4945, 5294]}, "edge": {"target": [], "time": []}}, "mouseover": {"state": {"target": ["1", "4", "2", "3", "1", "2", "1"], "time": [2628, 2786, 3636, 3737, 4653, 4861, 5195]}, "edge": {"target": [], "time": []}}, "mouseout": {"state": {"target": ["9", "0", "1", "4", "2", "3", "1", "2"], "time": [1420, 2586, 2662, 3512, 3670, 4303, 4754, 5128]}, "edge": {"target": [], "time": []}}}, "displayed_time": "10.27", "trialTime": 11531, "trial_type": "mouselab-mdp", "trial_index": 24, "time_elapsed": 508456, "internal_node_id": "0.0-4.0-1.0-15.0"}}, {"uniqueid": "w33285777:a75767495", "current_trial": 25, "dateTime": 1664555466726, "trialdata": {"revealed_states": [], "num_clicks_accrued": [0, 0, 0, 0, 0, 0, 0, 0, 0, 0, 0, 0, 0], "stateRewards": ["", 2, -8, -24, 48, 4, -8, -24, -24, 2, 8, -24, 24], "withholdReward": false, "trial_id": "mdp_480787552818", "block": "test1", "trialIndex": 18, "score": 45.5, "costs": -1.5, "simulationMode": [null, null, null], "rewards": [2, -8, 48], "path": ["0", "0", "1", "2", "4"], "rt": [6334, 821, 240], "actions": ["up", "up", "left"], "actionTimes": [7354, 8686, 9428], "queries": {"click": {"state": {"target": ["8", "12", "11", "7", "3", "4"], "time": [2332, 3082, 4180, 4850, 5461, 5864]}, "edge": {"target": [], "time": []}}, "mouseover": {"state": {"target": ["0", "5", "8", "12", "10", "11", "11", "1", "7", "7", "3", "2", "4", "6", "1"], "time": [1788, 1830, 1922, 2997, 3639, 3688, 3962, 4413, 4480, 4682, 5346, 5672, 5746, 6221, 6912]}, "edge": {"target": [], "time": []}}, "mouseout": {"state": {"target": ["1", "0", "5", "8", "12", "10", "11", "11", "1", "7", "7", "3", "2", "4", "6"], "time": [705, 1797, 1872, 2671, 3622, 3663, 3713, 4346, 4430, 4521, 5262, 5648, 5713, 6046, 6387]}, "edge": {"target": [], "time": []}}}, "displayed_time": "9.94", "trialTime": 12144, "trial_type": "mouselab-mdp", "trial_index": 25, "time_elapsed": 520675, "internal_node_id": "0.0-4.0-1.0-16.0"}}, {"uniqueid": "w33285777:a75767495", "current_trial": 26, "dateTime": 1664555480834, "trialdata": {"revealed_states": [], "num_clicks_accrued": [0, 0, 0, 0, 0, 0, 0, 0, 0, 0, 0, 0, 0], "stateRewards": ["", 2, -8, 24, -24, -2, 8, -48, -48, 2, -8, -24, -48], "withholdReward": true, "trial_id": "mdp_744278669205", "block": "test1", "trialIndex": 19, "score": 21, "costs": -2, "simulationMode": [null, null, null], "rewards": [2, -8, 24], "path": ["0", "0", "1", "2", "3"], "rt": [8785, 414, 251], "actions": ["up", "up", "right"], "actionTimes": [10160, 11083, 11844], "queries": {"click": {"state": {"target": ["10", "6", "8", "12", "4", "3", "7", "11"], "time": [3299, 4282, 5272, 5883, 6813, 7277, 7868, 8712]}, "edge": {"target": [], "time": []}}, "mouseover": {"state": {"target": ["0", "9", "10", "6", "8", "12", "4", "2", "3", "7", "1", "11", "11", "1", "2"], "time": [2036, 2119, 2302, 4177, 5143, 5851, 6762, 7126, 7184, 7742, 8135, 8401, 8668, 9268, 9402]}, "edge": {"target": [], "time": []}}, "mouseout": {"state": {"target": ["1", "0", "9", "10", "6", "8", "12", "4", "2", "3", "7", "1", "11", "11", "1"], "time": [978, 2068, 2211, 3751, 5110, 5543, 6426, 7101, 7159, 7684, 8068, 8159, 8442, 9102, 9292]}, "edge": {"target": [], "time": []}}}, "displayed_time": "12.35", "trialTime": 14025, "trial_type": "mouselab-mdp", "trial_index": 26, "time_elapsed": 534783, "internal_node_id": "0.0-4.0-1.0-17.0"}}, {"uniqueid": "w33285777:a75767495", "current_trial": 27, "dateTime": 1664555495213, "trialdata": {"revealed_states": [], "num_clicks_accrued": [0, 0, 0, 0, 0, 0, 0, 0, 0, 0, 0, 0, 0], "stateRewards": ["", -4, -4, 24, -48, 2, 4, -24, -48, -2, -8, -24, 24], "withholdReward": false, "trial_id": "mdp_565569130486", "block": "test1", "trialIndex": 20, "score": 17.5, "costs": -1.5, "simulationMode": [null, null, null], "rewards": [-2, -8, 24], "path": ["0", "0", "9", "10", "12"], "rt": [8966, 320, 135], "actions": ["left", "left", "down"], "actionTimes": [10465, 11295, 11935], "queries": {"click": {"state": {"target": ["11", "12", "7", "8", "4", "3"], "time": [3302, 4082, 5250, 5663, 6613, 7074]}, "edge": {"target": [], "time": []}}, "mouseover": {"state": {"target": ["0", "9", "10", "11", "10", "12", "5", "7", "6", "8", "5", "1", "4", "2", "3", "5"], "time": [1732, 2406, 2599, 3124, 3848, 4039, 4915, 5115, 5499, 5599, 6273, 6315, 6498, 6832, 6931, 8098]}, "edge": {"target": [], "time": []}}, "mouseout": {"state": {"target": ["2", "1", "0", "9", "10", "11", "10", "12", "5", "7", "6", "8", "5", "1", "4", "2", "3", "5"], "time": [1101, 1165, 2323, 2507, 3082, 3823, 3874, 4798, 4948, 5456, 5557, 6223, 6290, 6348, 6798, 6882, 7781, 8164]}, "edge": {"target": [], "time": []}}}, "displayed_time": "12.44", "trialTime": 14300, "trial_type": "mouselab-mdp", "trial_index": 27, "time_elapsed": 549162, "internal_node_id": "0.0-4.0-1.0-18.0"}}, {"uniqueid": "w33285777:a75767495", "current_trial": 28, "dateTime": 1664555508011, "trialdata": {"revealed_states": [], "num_clicks_accrued": [0, 0, 0, 0, 0, 0, 0, 0, 0, 0, 0, 0, 0], "stateRewards": ["", -2, 8, 48, 48, 2, 4, -48, 24, -4, -8, 48, 24], "withholdReward": true, "trial_id": "mdp_572910394648", "block": "test1", "trialIndex": 21, "score": 40, "costs": -1, "simulationMode": [null, null, null], "rewards": [-4, -8, 48], "path": ["0", "0", "9", "10", "11"], "rt": [5716, 407, 572], "actions": ["left", "left", "up"], "actionTimes": [6770, 7686, 8767], "queries": {"click": {"state": {"target": ["7", "12", "8", "11"], "time": [2379, 3515, 4776, 5624]}, "edge": {"target": [], "time": []}}, "mouseover": {"state": {"target": ["5", "7", "5", "12", "8", "8", "9", "11"], "time": [1987, 2259, 3061, 3403, 4270, 4568, 5286, 5436]}, "edge": {"target": [], "time": []}}, "mouseout": {"state": {"target": ["0", "5", "7", "5", "12", "8", "8", "9"], "time": [1944, 2020, 2994, 3070, 4120, 4444, 5136, 5344]}, "edge": {"target": [], "time": []}}}, "displayed_time": "11.15", "trialTime": 12722, "trial_type": "mouselab-mdp", "trial_index": 28, "time_elapsed": 561960, "internal_node_id": "0.0-4.0-1.0-19.0"}}, {"uniqueid": "w33285777:a75767495", "current_trial": 29, "dateTime": 1664555519904, "trialdata": {"revealed_states": [], "num_clicks_accrued": [0, 0, 0, 0, 0, 0, 0, 0, 0, 0, 0, 0, 0], "stateRewards": ["", -2, 4, -24, -48, -4, 8, -24, 48, 4, 4, -48, 24], "withholdReward": false, "trial_id": "mdp_341117665701", "block": "test1", "trialIndex": 22, "score": 55.5, "costs": -1.5, "simulationMode": [null, null, null], "rewards": [-4, 8, 48], "path": ["0", "0", "5", "6", "8"], "rt": [6216, 208, 443], "actions": ["right", "right", "down"], "actionTimes": [7340, 8052, 9003], "queries": {"click": {"state": {"target": ["11", "7", "8", "12", "6", "5"], "time": [2185, 3565, 4356, 5081, 5956, 6410]}, "edge": {"target": [], "time": []}}, "mouseover": {"state": {"target": ["11", "1", "7", "7", "6", "8", "12", "12", "5", "6", "5"], "time": [2077, 2702, 2760, 3459, 3943, 4101, 4726, 5009, 5635, 5859, 6327]}, "edge": {"target": [], "time": []}}, "mouseout": {"state": {"target": ["11", "11", "1", "7", "7", "6", "8", "12", "12", "5", "6"], "time": [643, 2635, 2719, 2785, 3919, 3993, 4593, 4777, 5401, 5810, 6285]}, "edge": {"target": [], "time": []}}}, "displayed_time": "10.19", "trialTime": 11815, "trial_type": "mouselab-mdp", "trial_index": 29, "time_elapsed": 573853, "internal_node_id": "0.0-4.0-1.0-20.0"}}, {"uniqueid": "w33285777:a75767495", "current_trial": 30, "dateTime": 1664555530688, "trialdata": {"revealed_states": [], "num_clicks_accrued": [0, 0, 0, 0, 0, 0, 0, 0, 0, 0, 0, 0, 0], "stateRewards": ["", -4, 4, -48, -48, -2, -8, -48, -24, 4, 8, -24, 24], "withholdReward": true, "trial_id": "mdp_449260894259", "block": "test1", "trialIndex": 23, "score": 39.5, "costs": -1.5, "simulationMode": [null, null, null], "rewards": [4, 8, 24], "path": ["0", "0", "9", "10", "12"], "rt": [5055, 334, 96], "actions": ["left", "left", "down"], "actionTimes": [6174, 7017, 7628], "queries": {"click": {"state": {"target": ["11", "8", "7", "12", "4", "3"], "time": [1906, 2496, 3443, 4072, 4764, 5095]}, "edge": {"target": [], "time": []}}, "mouseover": {"state": {"target": ["9", "11", "9", "0", "8", "6", "7", "5", "0", "12", "9", "4", "2", "3"], "time": [1666, 1782, 2232, 2257, 2332, 3224, 3349, 3731, 3765, 4024, 4507, 4557, 4915, 5017]}, "edge": {"target": [], "time": []}}, "mouseout": {"state": {"target": ["5", "0", "9", "11", "9", "0", "8", "6", "7", "5", "0", "12", "9", "4", "2", "3"], "time": [765, 1624, 1715, 2207, 2250, 2274, 3207, 3273, 3698, 3749, 3782, 4466, 4516, 4873, 4976, 5493]}, "edge": {"target": [], "time": []}}}, "displayed_time": "9.19", "trialTime": 10646, "trial_type": "mouselab-mdp", "trial_index": 30, "time_elapsed": 584637, "internal_node_id": "0.0-4.0-1.0-21.0"}}, {"uniqueid": "w33285777:a75767495", "current_trial": 31, "dateTime": 1664555542506, "trialdata": {"revealed_states": [], "num_clicks_accrued": [0, 0, 0, 0, 0, 0, 0, 0, 0, 0, 0, 0, 0], "stateRewards": ["", 4, 8, 24, 24, 2, -4, 48, -24, -4, 8, -24, 24], "withholdReward": true, "trial_id": "mdp_932292142091", "block": "test1", "trialIndex": 24, "score": 32, "costs": -1, "simulationMode": [null, null, null], "rewards": [-4, 8, 24], "path": ["0", "0", "9", "10", "12"], "rt": [5101, 336, 319], "actions": ["left", "left", "down"], "actionTimes": [6121, 6963, 7789], "queries": {"click": {"state": {"target": ["12", "8", "10", "11"], "time": [1826, 2570, 3791, 5195]}, "edge": {"target": [], "time": []}}, "mouseover": {"state": {"target": ["12", "8", "9", "10", "11", "11"], "time": [1719, 2485, 3501, 3618, 4435, 5026]}, "edge": {"target": [], "time": []}}, "mouseout": {"state": {"target": ["0", "12", "8", "9", "10", "11"], "time": [1510, 2176, 3309, 3535, 4376, 4777]}, "edge": {"target": [], "time": []}}}, "displayed_time": "10.13", "trialTime": 11734, "trial_type": "mouselab-mdp", "trial_index": 31, "time_elapsed": 596454, "internal_node_id": "0.0-4.0-1.0-22.0"}}, {"uniqueid": "w33285777:a75767495", "current_trial": 32, "dateTime": 1664555553269, "trialdata": {"revealed_states": [], "num_clicks_accrued": [0, 0, 0, 0, 0, 0, 0, 0, 0, 0, 0, 0, 0], "stateRewards": ["", 2, 8, -24, -48, 2, 4, -24, 48, 2, -8, 48, -24], "withholdReward": true, "trial_id": "mdp_791659307216", "block": "test1", "trialIndex": 25, "score": 58, "costs": -1, "simulationMode": [null, null, null], "rewards": [2, 4, 48], "path": ["0", "0", "5", "6", "8"], "rt": [4465, 243, 198], "actions": ["right", "right", "down"], "actionTimes": [5877, 6624, 7331], "queries": {"click": {"state": {"target": ["3", "4", "8", "12"], "time": [3099, 3698, 4383, 5152]}, "edge": {"target": [], "time": []}}, "mouseover": {"state": {"target": ["5", "3", "2", "4", "1", "5", "8", "12"], "time": [2189, 2921, 3479, 3564, 4097, 4138, 4180, 5038]}, "edge": {"target": [], "time": []}}, "mouseout": {"state": {"target": ["11", "5", "3", "2", "4", "1", "5", "8", "12"], "time": [546, 2630, 3455, 3522, 4071, 4114, 4155, 4696, 5347]}, "edge": {"target": [], "time": []}}}, "displayed_time": "9.48", "trialTime": 10685, "trial_type": "mouselab-mdp", "trial_index": 32, "time_elapsed": 607218, "internal_node_id": "0.0-4.0-1.0-23.0"}}, {"uniqueid": "w33285777:a75767495", "current_trial": 33, "dateTime": 1664555565057, "trialdata": {"revealed_states": [], "num_clicks_accrued": [0, 0, 0, 0, 0, 0, 0, 0, 0, 0, 0, 0, 0], "stateRewards": ["", -2, -8, -24, -24, 4, -4, -48, 48, 2, 8, 48, -48], "withholdReward": true, "trial_id": "mdp_498095124548", "block": "test1", "trialIndex": 26, "score": 52.25, "costs": -0.75, "simulationMode": [null, null, null], "rewards": [4, -4, 48], "path": ["0", "0", "5", "6", "8"], "rt": [3285, 237, 381], "actions": ["right", "right", "down"], "actionTimes": [4331, 5073, 5957], "queries": {"click": {"state": {"target": ["8", "5", "6"], "time": [1854, 2951, 3318]}, "edge": {"target": [], "time": []}}, "mouseover": {"state": {"target": ["5", "8", "5", "6"], "time": [1550, 1651, 2825, 3258]}, "edge": {"target": [], "time": []}}, "mouseout": {"state": {"target": ["0", "5", "8", "5"], "time": [1500, 1559, 2350, 3175]}, "edge": {"target": [], "time": []}}}, "displayed_time": "10.16", "trialTime": 11711, "trial_type": "mouselab-mdp", "trial_index": 33, "time_elapsed": 619006, "internal_node_id": "0.0-4.0-1.0-24.0"}}, {"uniqueid": "w33285777:a75767495", "current_trial": 34, "dateTime": 1664555577639, "trialdata": {"revealed_states": [], "num_clicks_accrued": [0, 0, 0, 0, 0, 0, 0, 0, 0, 0, 0, 0, 0], "stateRewards": ["", -4, 4, -48, -48, -4, 8, -24, 24, 2, -4, 48, 48], "withholdReward": true, "trial_id": "mdp_821566905048", "block": "test1", "trialIndex": 27, "score": 50, "costs": -1, "simulationMode": [null, null, null], "rewards": [2, -4, 48], "path": ["0", "0", "9", "10", "11"], "rt": [3650, 378, 500], "actions": ["left", "left", "up"], "actionTimes": [4653, 5548, 6552], "queries": {"click": {"state": {"target": ["12", "11", "10", "9"], "time": [1544, 2063, 3101, 3653]}, "edge": {"target": [], "time": []}}, "mouseover": {"state": {"target": ["12", "10", "11", "10", "9"], "time": [1328, 1877, 1953, 2986, 3511]}, "edge": {"target": [], "time": []}}, "mouseout": {"state": {"target": ["6", "5", "0", "12", "10", "11", "10"], "time": [635, 769, 1162, 1853, 1903, 2897, 3460]}, "edge": {"target": [], "time": []}}}, "displayed_time": "11.09", "trialTime": 12496, "trial_type": "mouselab-mdp", "trial_index": 34, "time_elapsed": 631587, "internal_node_id": "0.0-4.0-1.0-25.0"}}, {"uniqueid": "w33285777:a75767495", "current_trial": 35, "dateTime": 1664555589172, "trialdata": {"revealed_states": [], "num_clicks_accrued": [0, 0, 0, 0, 0, 0, 0, 0, 0, 0, 0, 0, 0], "stateRewards": ["", 4, 8, 48, -48, -4, 8, -24, -24, -4, 8, 48, 48], "withholdReward": true, "trial_id": "mdp_377640328420", "block": "test1", "trialIndex": 28, "score": 56, "costs": -1, "simulationMode": [null, null, null], "rewards": [-4, 8, 48], "path": ["0", "0", "9", "10", "12"], "rt": [3942, 267, 309], "actions": ["left", "left", "down"], "actionTimes": [4925, 5699, 6515], "queries": {"click": {"state": {"target": ["7", "12", "10", "9"], "time": [1641, 2379, 3529, 4032]}, "edge": {"target": [], "time": []}}, "mouseover": {"state": {"target": ["7", "5", "12", "10", "11", "10", "9", "0"], "time": [1498, 2065, 2189, 2772, 3217, 3331, 3847, 4305]}, "edge": {"target": [], "time": []}}, "mouseout": {"state": {"target": ["9", "7", "5", "12", "10", "11", "10", "9", "0"], "time": [588, 2030, 2081, 2748, 2805, 3286, 3789, 4272, 4314]}, "edge": {"target": [], "time": []}}}, "displayed_time": "10.06", "trialTime": 11458, "trial_type": "mouselab-mdp", "trial_index": 35, "time_elapsed": 643121, "internal_node_id": "0.0-4.0-1.0-26.0"}}, {"uniqueid": "w33285777:a75767495", "current_trial": 36, "dateTime": 1664555600337, "trialdata": {"revealed_states": [], "num_clicks_accrued": [0, 0, 0, 0, 0, 0, 0, 0, 0, 0, 0, 0, 0], "stateRewards": ["", 4, -8, -48, 24, 4, 4, -24, -24, 2, 4, -48, 24], "withholdReward": true, "trial_id": "mdp_626971397185", "block": "test1", "trialIndex": 29, "score": 34, "costs": -1, "simulationMode": [null, null, null], "rewards": [2, 4, 24], "path": ["0", "0", "9", "10", "12"], "rt": [3988, 196, 270], "actions": ["left", "left", "down"], "actionTimes": [4970, 5678, 6452], "queries": {"click": {"state": {"target": ["8", "12", "10", "9"], "time": [1683, 2542, 3707, 4059]}, "edge": {"target": [], "time": []}}, "mouseover": {"state": {"target": ["8", "12", "12", "10", "10", "10", "9"], "time": [1640, 2131, 2416, 2874, 3224, 3557, 3972]}, "edge": {"target": [], "time": []}}, "mouseout": {"state": {"target": ["0", "8", "12", "12", "10", "10", "10"], "time": [1374, 2024, 2157, 2849, 2915, 3299, 3906]}, "edge": {"target": [], "time": []}}}, "displayed_time": "10.09", "trialTime": 11075, "trial_type": "mouselab-mdp", "trial_index": 36, "time_elapsed": 654285, "internal_node_id": "0.0-4.0-1.0-27.0"}}, {"uniqueid": "w33285777:a75767495", "current_trial": 37, "dateTime": 1664555613567, "trialdata": {"revealed_states": [], "num_clicks_accrued": [0, 0, 0, 0, 0, 0, 0, 0, 0, 0, 0, 0, 0], "stateRewards": ["", -2, -8, 24, -24, 4, -8, 48, 48, -4, -8, -24, -48], "withholdReward": false, "trial_id": "mdp_286767261523", "block": "test1", "trialIndex": 30, "score": 47.75, "costs": -1.25, "simulationMode": [null, null, null], "rewards": [4, -8, 48], "path": ["0", "0", "5", "6", "7"], "rt": [3983, 415, 260], "actions": ["right", "right", "up"], "actionTimes": [4783, 5702, 6472], "queries": {"click": {"state": {"target": ["11", "7", "8", "5", "6"], "time": [1408, 1900, 2441, 3167, 3477]}, "edge": {"target": [], "time": []}}, "mouseover": {"state": {"target": ["9", "11", "11", "1", "7", "6", "8", "5", "6"], "time": [1118, 1169, 1327, 1661, 1735, 2176, 2269, 3035, 3426]}, "edge": {"target": [], "time": []}}, "mouseout": {"state": {"target": ["9", "9", "11", "11", "1", "7", "6", "8", "5", "6"], "time": [568, 1127, 1210, 1602, 1677, 2135, 2226, 2827, 3343, 3810]}, "edge": {"target": [], "time": []}}}, "displayed_time": "10.91", "trialTime": 13152, "trial_type": "mouselab-mdp", "trial_index": 37, "time_elapsed": 667516, "internal_node_id": "0.0-4.0-1.0-28.0"}}, {"uniqueid": "w33285777:a75767495", "current_trial": 38, "dateTime": 1664555625194, "trialdata": {"revealed_states": [], "num_clicks_accrued": [0, 0, 0, 0, 0, 0, 0, 0, 0, 0, 0, 0, 0], "stateRewards": ["", -2, -4, -24, 48, -2, -8, -48, -24, 4, 8, 48, 24], "withholdReward": true, "trial_id": "mdp_625355871626", "block": "test1", "trialIndex": 31, "score": 63, "costs": -2, "simulationMode": [null, null, null], "rewards": [4, 8, 48], "path": ["0", "0", "9", "10", "11"], "rt": [5920, 218, 134], "actions": ["left", "left", "up"], "actionTimes": [7266, 7990, 8632], "queries": {"click": {"state": {"target": ["4", "3", "2", "1", "12", "8", "7", "11"], "time": [1817, 2317, 2804, 3128, 4038, 4690, 5196, 5761]}, "edge": {"target": [], "time": []}}, "mouseover": {"state": {"target": ["4", "2", "3", "2", "1", "5", "12", "8", "6", "7", "11", "9", "9", "10"], "time": [1705, 2064, 2230, 2638, 3022, 3446, 3980, 4629, 5038, 5096, 5705, 6047, 6438, 6638]}, "edge": {"target": [], "time": []}}, "mouseout": {"state": {"target": ["6", "5", "0", "4", "2", "3", "2", "1", "5", "12", "8", "6", "7", "1", "11", "9", "9", "10"], "time": [838, 863, 1564, 2029, 2138, 2555, 2954, 3397, 3505, 4255, 5013, 5063, 5371, 5471, 6004, 6071, 6504, 6863]}, "edge": {"target": [], "time": []}}}, "displayed_time": "10.42", "trialTime": 11550, "trial_type": "mouselab-mdp", "trial_index": 38, "time_elapsed": 679143, "internal_node_id": "0.0-4.0-1.0-29.0"}}, {"uniqueid": "w33285777:a75767495", "current_trial": 39, "dateTime": 1664555633090, "trialdata": {"rt": 7893, "stimulus": "<h1> End of block! </h1>\n\nYou have reached the end of the block 1/4. If you need a short break, feel free to take one now before moving on.\n\n<br><br>\nIn the next block, you will complete another 30 rounds of this game.\n\n<br><br>\n<div style='text-align: center;'>Press <code>space</code> to begin.</div>\n<br><br>\n<div style='text-align: center;'>(If the experiment doesn't continue, try clicking on the text and then pressing <code>space</code>.)</div>", "response": " ", "trial_id": "mdp_ready_2", "trial_type": "html-keyboard-response", "trial_index": 39, "time_elapsed": 687039, "internal_node_id": "0.0-4.0-2.0"}}, {"uniqueid": "w33285777:a75767495", "current_trial": 40, "dateTime": 1664555645215, "trialdata": {"revealed_states": [], "num_clicks_accrued": [0, 0, 0, 0, 0, 0, 0, 0, 0, 0, 0, 0, 0], "stateRewards": ["", 4, -4, 48, -48, 4, -4, 24, -24, 4, 8, -24, -48], "withholdReward": true, "trial_id": "mdp_433630527224", "block": "test2", "trialIndex": 32, "score": 51.5, "costs": -1.5, "simulationMode": [null, null, null], "rewards": [4, -4, 48], "path": ["0", "0", "1", "2", "3"], "rt": [5008, 106, 216], "actions": ["up", "up", "right"], "actionTimes": [6748, 7356, 8092], "queries": {"click": {"state": {"target": ["11", "12", "8", "7", "4", "3"], "time": [2349, 2960, 3534, 4179, 5029, 5377]}, "edge": {"target": [], "time": []}}, "mouseover": {"state": {"target": ["9", "11", "12", "8", "6", "7", "4", "2", "3", "1"], "time": [1933, 2224, 2866, 3316, 3782, 4057, 4883, 5249, 5307, 6266]}, "edge": {"target": [], "time": []}}, "mouseout": {"state": {"target": ["9", "11", "12", "8", "6", "7", "4", "2", "3"], "time": [2008, 2608, 3150, 3741, 3882, 4715, 5224, 5282, 6141]}, "edge": {"target": [], "time": []}}}, "displayed_time": "10.84", "trialTime": 12042, "trial_type": "mouselab-mdp", "trial_index": 40, "time_elapsed": 699164, "internal_node_id": "0.0-4.0-3.0-0.0"}}, {"uniqueid": "w33285777:a75767495", "current_trial": 41, "dateTime": 1664555655669, "trialdata": {"revealed_states": [], "num_clicks_accrued": [0, 0, 0, 0, 0, 0, 0, 0, 0, 0, 0, 0, 0], "stateRewards": ["", 4, 4, 24, -24, -4, -8, 48, -24, 4, 4, 48, 24], "withholdReward": true, "trial_id": "mdp_822446942217", "block": "test2", "trialIndex": 33, "score": 60.25, "costs": -0.75, "simulationMode": [null, null, null], "rewards": [4, 4, 48], "path": ["0", "0", "9", "10", "11"], "rt": [2578, 242, 313], "actions": ["left", "left", "up"], "actionTimes": [3523, 4278, 5102], "queries": {"click": {"state": {"target": ["11", "10", "9"], "time": [1512, 2465, 2774]}, "edge": {"target": [], "time": []}}, "mouseover": {"state": {"target": ["9", "11", "10", "9"], "time": [1179, 1370, 2220, 2679]}, "edge": {"target": [], "time": []}}, "mouseout": {"state": {"target": ["1", "0", "9", "11", "10", "9"], "time": [662, 1153, 1228, 1954, 2612, 3071]}, "edge": {"target": [], "time": []}}}, "displayed_time": "9.04", "trialTime": 10376, "trial_type": "mouselab-mdp", "trial_index": 41, "time_elapsed": 709618, "internal_node_id": "0.0-4.0-3.0-1.0"}}, {"uniqueid": "w33285777:a75767495", "current_trial": 42, "dateTime": 1664555666924, "trialdata": {"revealed_states": [], "num_clicks_accrued": [0, 0, 0, 0, 0, 0, 0, 0, 0, 0, 0, 0, 0], "stateRewards": ["", 4, -4, 48, -48, -2, -8, -24, 48, -2, 4, 24, -24], "withholdReward": true, "trial_id": "mdp_507290896735", "block": "test2", "trialIndex": 34, "score": 42.5, "costs": -0.5, "simulationMode": [null, null, null], "rewards": [-2, -8, 48], "path": ["0", "0", "5", "6", "8"], "rt": [3086, 393, 170], "actions": ["right", "right", "down"], "actionTimes": [3999, 4907, 5585], "queries": {"click": {"state": {"target": ["12", "8"], "time": [1453, 2118]}, "edge": {"target": [], "time": []}}, "mouseover": {"state": {"target": ["12", "8", "6"], "time": [1371, 1946, 2596]}, "edge": {"target": [], "time": []}}, "mouseout": {"state": {"target": ["0", "12", "8"], "time": [1155, 1763, 2521]}, "edge": {"target": [], "time": []}}}, "displayed_time": "10.00", "trialTime": 11165, "trial_type": "mouselab-mdp", "trial_index": 42, "time_elapsed": 720873, "internal_node_id": "0.0-4.0-3.0-2.0"}}, {"uniqueid": "w33285777:a75767495", "current_trial": 43, "dateTime": 1664555677054, "trialdata": {"revealed_states": [], "num_clicks_accrued": [0, 0, 0, 0, 0, 0, 0, 0, 0, 0, 0, 0, 0], "stateRewards": ["", 4, -4, 48, 24, 2, 4, 24, -24, 2, 4, 24, 48], "withholdReward": true, "trial_id": "mdp_736351885282", "block": "test2", "trialIndex": 35, "score": 57.75, "costs": -1.25, "simulationMode": [null, null, null], "rewards": [2, 4, 48], "path": ["0", "0", "9", "10", "12"], "rt": [4619, 203, 259], "actions": ["left", "left", "down"], "actionTimes": [5544, 6257, 7022], "queries": {"click": {"state": {"target": ["11", "7", "8", "12", "10"], "time": [1543, 2489, 3065, 3664, 4724]}, "edge": {"target": [], "time": []}}, "mouseover": {"state": {"target": ["9", "11", "9", "0", "5", "6", "7", "6", "8", "12", "10", "9"], "time": [1195, 1353, 2004, 2037, 2137, 2228, 2312, 2903, 2962, 3503, 4128, 5053]}, "edge": {"target": [], "time": []}}, "mouseout": {"state": {"target": ["6", "5", "0", "9", "11", "9", "0", "5", "6", "7", "6", "8", "12", "10"], "time": [520, 720, 1153, 1228, 1937, 2020, 2045, 2145, 2237, 2887, 2936, 3370, 4053, 4978]}, "edge": {"target": [], "time": []}}}, "displayed_time": "8.98", "trialTime": 10045, "trial_type": "mouselab-mdp", "trial_index": 43, "time_elapsed": 731003, "internal_node_id": "0.0-4.0-3.0-3.0"}}, {"uniqueid": "w33285777:a75767495", "current_trial": 44, "dateTime": 1664555688546, "trialdata": {"revealed_states": [], "num_clicks_accrued": [0, 0, 0, 0, 0, 0, 0, 0, 0, 0, 0, 0, 0], "stateRewards": ["", 2, 8, -48, 24, -2, 4, 48, 48, -2, -8, 48, 24], "withholdReward": true, "trial_id": "mdp_157355418411", "block": "test2", "trialIndex": 36, "score": 54, "costs": -1, "simulationMode": [null, null, null], "rewards": [-2, 4, 48], "path": ["0", "0", "5", "6", "8"], "rt": [4854, 254, 217], "actions": ["right", "right", "down"], "actionTimes": [5837, 6598, 7320], "queries": {"click": {"state": {"target": ["4", "3", "12", "8"], "time": [1535, 2511, 3618, 4383]}, "edge": {"target": [], "time": []}}, "mouseover": {"state": {"target": ["1", "4", "2", "3", "12", "8", "6"], "time": [1234, 1418, 2094, 2151, 3518, 4152, 5209]}, "edge": {"target": [], "time": []}}, "mouseout": {"state": {"target": ["9", "1", "4", "2", "3", "12", "8"], "time": [643, 1252, 2059, 2127, 3201, 3969, 5127]}, "edge": {"target": [], "time": []}}}, "displayed_time": "10.08", "trialTime": 11411, "trial_type": "mouselab-mdp", "trial_index": 44, "time_elapsed": 742494, "internal_node_id": "0.0-4.0-3.0-4.0"}}, {"uniqueid": "w33285777:a75767495", "current_trial": 45, "dateTime": 1664555700099, "trialdata": {"revealed_states": [], "num_clicks_accrued": [0, 0, 0, 0, 0, 0, 0, 0, 0, 0, 0, 0, 0], "stateRewards": ["", 2, 8, 48, 24, 2, 8, 48, 48, -2, -4, -24, -48], "withholdReward": true, "trial_id": "mdp_717636349175", "block": "test2", "trialIndex": 37, "score": 61.5, "costs": -1.5, "simulationMode": [null, null, null], "rewards": [2, 8, 48], "path": ["0", "0", "5", "6", "7"], "rt": [6146, 402, 344], "actions": ["right", "right", "up"], "actionTimes": [7988, 8901, 9756], "queries": {"click": {"state": {"target": ["12", "11", "7", "8", "6", "5"], "time": [2435, 3676, 4328, 5135, 6748, 7343]}, "edge": {"target": [], "time": []}}, "mouseover": {"state": {"target": ["0", "9", "12", "9", "11", "1", "7", "6", "8", "6", "5"], "time": [2135, 2169, 2228, 2711, 3540, 3969, 4227, 4569, 4628, 6610, 7177]}, "edge": {"target": [], "time": []}}, "mouseout": {"state": {"target": ["6", "5", "0", "9", "12", "9", "11", "1", "7", "6", "8", "6"], "time": [1061, 1360, 2145, 2178, 2653, 2769, 3895, 3995, 4545, 4603, 5386, 7060]}, "edge": {"target": [], "time": []}}}, "displayed_time": "10.27", "trialTime": 11467, "trial_type": "mouselab-mdp", "trial_index": 45, "time_elapsed": 754048, "internal_node_id": "0.0-4.0-3.0-5.0"}}, {"uniqueid": "w33285777:a75767495", "current_trial": 46, "dateTime": 1664555712748, "trialdata": {"revealed_states": [], "num_clicks_accrued": [0, 0, 0, 0, 0, 0, 0, 0, 0, 0, 0, 0, 0], "stateRewards": ["", 2, -8, -48, 24, 4, 8, 48, -48, 2, -4, 24, 24], "withholdReward": false, "trial_id": "mdp_130475327289", "block": "test2", "trialIndex": 38, "score": 64, "costs": -1, "simulationMode": [null, null, null], "rewards": [4, 8, 48], "path": ["0", "0", "5", "6", "7"], "rt": [2447, 266, 279], "actions": ["right", "right", "up"], "actionTimes": [3361, 4142, 4939], "queries": {"click": {"state": {"target": ["7", "8", "5", "6"], "time": [1365, 1837, 2421, 2776]}, "edge": {"target": [], "time": []}}, "mouseover": {"state": {"target": ["5", "7", "6", "8", "5", "6"], "time": [1083, 1275, 1617, 1700, 2359, 2642]}, "edge": {"target": [], "time": []}}, "mouseout": {"state": {"target": ["5", "5", "7", "6", "8", "5"], "time": [725, 1134, 1584, 1659, 2167, 2551]}, "edge": {"target": [], "time": []}}}, "displayed_time": "9.03", "trialTime": 12548, "trial_type": "mouselab-mdp", "trial_index": 46, "time_elapsed": 766697, "internal_node_id": "0.0-4.0-3.0-6.0"}}, {"uniqueid": "w33285777:a75767495", "current_trial": 47, "dateTime": 1664555726601, "trialdata": {"revealed_states": [], "num_clicks_accrued": [0, 0, 0, 0, 0, 0, 0, 0, 0, 0, 0, 0, 0], "stateRewards": ["", -2, -4, -48, 48, -2, -4, 24, 48, -4, -8, -24, 24], "withholdReward": false, "trial_id": "mdp_917590390609", "block": "test2", "trialIndex": 39, "score": 46.25, "costs": -0.75, "simulationMode": [null, null, null], "rewards": [-2, -4, 48], "path": ["0", "0", "1", "2", "4"], "rt": [2698, 87, 60], "actions": ["up", "up", "left"], "actionTimes": [3649, 4247, 4810], "queries": {"click": {"state": {"target": ["4", "1", "2"], "time": [1605, 2488, 2793]}, "edge": {"target": [], "time": []}}, "mouseover": {"state": {"target": ["1", "4", "2", "3", "2", "1", "2"], "time": [1324, 1507, 1916, 1990, 2265, 2366, 2741]}, "edge": {"target": [], "time": []}}, "mouseout": {"state": {"target": ["6", "1", "4", "2", "3", "2", "1"], "time": [490, 1374, 1874, 1958, 2182, 2274, 2666]}, "edge": {"target": [], "time": []}}}, "displayed_time": "10.02", "trialTime": 13759, "trial_type": "mouselab-mdp", "trial_index": 47, "time_elapsed": 780550, "internal_node_id": "0.0-4.0-3.0-7.0"}}, {"uniqueid": "w33285777:a75767495", "current_trial": 48, "dateTime": 1664555737739, "trialdata": {"revealed_states": [], "num_clicks_accrued": [0, 0, 0, 0, 0, 0, 0, 0, 0, 0, 0, 0, 0], "stateRewards": ["", -4, -4, -48, -24, 2, 8, 24, -48, 4, 4, 48, 48], "withholdReward": true, "trial_id": "mdp_693501840209", "block": "test2", "trialIndex": 40, "score": 60, "costs": -1, "simulationMode": [null, null, null], "rewards": [4, 4, 48], "path": ["0", "0", "9", "10", "12"], "rt": [3326, 205, 413], "actions": ["left", "left", "down"], "actionTimes": [4974, 5689, 6607], "queries": {"click": {"state": {"target": ["12", "11", "10", "9"], "time": [2624, 3190, 3889, 4257]}, "edge": {"target": [], "time": []}}, "mouseover": {"state": {"target": ["9", "10", "12", "10", "11", "10", "9"], "time": [2085, 2292, 2475, 2917, 3016, 3525, 4133]}, "edge": {"target": [], "time": []}}, "mouseout": {"state": {"target": ["2", "1", "9", "10", "12", "10", "11", "10"], "time": [1258, 1332, 2209, 2350, 2850, 2976, 3449, 4075]}, "edge": {"target": [], "time": []}}}, "displayed_time": "9.72", "trialTime": 11056, "trial_type": "mouselab-mdp", "trial_index": 48, "time_elapsed": 791688, "internal_node_id": "0.0-4.0-3.0-8.0"}}, {"uniqueid": "w33285777:a75767495", "current_trial": 49, "dateTime": 1664555751577, "trialdata": {"revealed_states": [], "num_clicks_accrued": [0, 0, 0, 0, 0, 0, 0, 0, 0, 0, 0, 0, 0], "stateRewards": ["", -2, 8, 48, 24, 2, -8, -24, -48, -4, 8, -48, 24], "withholdReward": false, "trial_id": "mdp_224053025943", "block": "test2", "trialIndex": 41, "score": 57.5, "costs": -1.5, "simulationMode": [null, null, null], "rewards": [-2, 8, 48], "path": ["0", "0", "1", "2", "3"], "rt": [4298, 121, 32], "actions": ["up", "up", "right"], "actionTimes": [5191, 5816, 6361], "queries": {"click": {"state": {"target": ["11", "12", "8", "7", "3", "4"], "time": [1572, 2261, 2888, 3301, 3815, 4206]}, "edge": {"target": [], "time": []}}, "mouseover": {"state": {"target": ["11", "10", "12", "8", "6", "7", "3", "2", "4", "1"], "time": [1361, 1928, 2186, 2661, 3111, 3195, 3752, 4011, 4102, 4561]}, "edge": {"target": [], "time": []}}, "mouseout": {"state": {"target": ["9", "11", "10", "12", "8", "6", "7", "3", "2", "4", "1"], "time": [528, 1912, 1961, 2519, 3078, 3153, 3602, 3969, 4061, 4394, 4828]}, "edge": {"target": [], "time": []}}}, "displayed_time": "8.99", "trialTime": 13748, "trial_type": "mouselab-mdp", "trial_index": 49, "time_elapsed": 805526, "internal_node_id": "0.0-4.0-3.0-9.0"}}, {"uniqueid": "w33285777:a75767495", "current_trial": 50, "dateTime": 1664555765027, "trialdata": {"revealed_states": [], "num_clicks_accrued": [0, 0, 0, 0, 0, 0, 0, 0, 0, 0, 0, 0, 0], "stateRewards": ["", -4, -8, -24, -48, -2, -8, 24, -48, -4, -8, 24, -48], "withholdReward": true, "trial_id": "mdp_621812384092", "block": "test2", "trialIndex": 42, "score": 15.25, "costs": -1.75, "simulationMode": [null, null, null], "rewards": [-4, -8, 24], "path": ["0", "0", "9", "10", "11"], "rt": [8433, 99, 110], "actions": ["left", "left", "up"], "actionTimes": [10071, 10677, 11296], "queries": {"click": {"state": {"target": ["10", "11", "12", "8", "7", "3", "4"], "time": [2413, 2922, 3557, 4298, 4889, 5455, 5829]}, "edge": {"target": [], "time": []}}, "mouseover": {"state": {"target": ["9", "10", "11", "12", "8", "6", "7", "3", "2", "4", "1", "6"], "time": [2036, 2186, 2811, 3520, 3936, 4545, 4827, 5428, 5687, 5778, 6520, 6678]}, "edge": {"target": [], "time": []}}, "mouseout": {"state": {"target": ["9", "10", "11", "10", "12", "8", "6", "7", "3", "2", "4", "1", "6"], "time": [2120, 2753, 3069, 3178, 3785, 4511, 4620, 5194, 5645, 5744, 6269, 6569, 6744]}, "edge": {"target": [], "time": []}}}, "displayed_time": "11.80", "trialTime": 13366, "trial_type": "mouselab-mdp", "trial_index": 50, "time_elapsed": 818975, "internal_node_id": "0.0-4.0-3.0-10.0"}}, {"uniqueid": "w33285777:a75767495", "current_trial": 51, "dateTime": 1664555777228, "trialdata": {"revealed_states": [], "num_clicks_accrued": [0, 0, 0, 0, 0, 0, 0, 0, 0, 0, 0, 0, 0], "stateRewards": ["", 4, -4, 48, -48, -4, -4, 48, -48, 4, 4, -48, -24], "withholdReward": false, "trial_id": "mdp_490058671112", "block": "test2", "trialIndex": 43, "score": 44.5, "costs": -0.5, "simulationMode": [null, null, null], "rewards": [-4, -4, 48], "path": ["0", "0", "5", "6", "7"], "rt": [3045, 66, 163], "actions": ["right", "right", "up"], "actionTimes": [4300, 4870, 5543], "queries": {"click": {"state": {"target": ["11", "7"], "time": [2432, 2970]}, "edge": {"target": [], "time": []}}, "mouseover": {"state": {"target": ["9", "11", "1", "7", "6", "8", "6"], "time": [2013, 2321, 2654, 2737, 3154, 3246, 3671]}, "edge": {"target": [], "time": []}}, "mouseout": {"state": {"target": ["0", "9", "11", "1", "7", "6", "8"], "time": [1579, 2037, 2596, 2671, 3129, 3196, 3612]}, "edge": {"target": [], "time": []}}}, "displayed_time": "9.32", "trialTime": 12119, "trial_type": "mouselab-mdp", "trial_index": 51, "time_elapsed": 831177, "internal_node_id": "0.0-4.0-3.0-11.0"}}, {"uniqueid": "w33285777:a75767495", "current_trial": 52, "dateTime": 1664555790375, "trialdata": {"revealed_states": [], "num_clicks_accrued": [0, 0, 0, 0, 0, 0, 0, 0, 0, 0, 0, 0, 0], "stateRewards": ["", -4, -8, -48, 48, -2, -8, -48, -24, 4, 8, 24, -48], "withholdReward": false, "trial_id": "mdp_509977295685", "block": "test2", "trialIndex": 44, "score": 38.5, "costs": -2.5, "simulationMode": [null, null, null], "rewards": [-4, -8, 48], "path": ["0", "0", "1", "2", "4"], "rt": [8321, 157, 157], "actions": ["up", "up", "left"], "actionTimes": [9810, 10474, 11140], "queries": {"click": {"state": {"target": ["10", "6", "7", "11", "12", "8", "3", "4", "1", "2"], "time": [2317, 3016, 3512, 4133, 5276, 5815, 6474, 7045, 7843, 8101]}, "edge": {"target": [], "time": []}}, "mouseover": {"state": {"target": ["9", "10", "9", "0", "5", "6", "7", "1", "11", "12", "8", "5", "3", "2", "4", "1", "2", "0"], "time": [1875, 2091, 2583, 2617, 2650, 2817, 3392, 3775, 4067, 4483, 5642, 6166, 6433, 6716, 6949, 7691, 7999, 8507]}, "edge": {"target": [], "time": []}}, "mouseout": {"state": {"target": ["6", "5", "0", "0", "9", "10", "9", "0", "5", "6", "7", "1", "11", "10", "12", "8", "5", "3", "2", "4", "1", "2", "0"], "time": [1016, 1099, 1175, 1824, 1899, 2558, 2599, 2641, 2683, 3358, 3709, 3808, 4351, 4441, 5491, 6134, 6191, 6682, 6767, 7558, 7957, 8383, 8525]}, "edge": {"target": [], "time": []}}}, "displayed_time": "11.65", "trialTime": 13063, "trial_type": "mouselab-mdp", "trial_index": 52, "time_elapsed": 844324, "internal_node_id": "0.0-4.0-3.0-12.0"}}, {"uniqueid": "w33285777:a75767495", "current_trial": 53, "dateTime": 1664555802633, "trialdata": {"revealed_states": [], "num_clicks_accrued": [0, 0, 0, 0, 0, 0, 0, 0, 0, 0, 0, 0, 0], "stateRewards": ["", -2, -8, -24, 24, -2, -8, -48, 24, -2, -8, 24, 24], "withholdReward": true, "trial_id": "mdp_336617436097", "block": "test2", "trialIndex": 45, "score": 17.5, "costs": -1.5, "simulationMode": [null, null, null], "rewards": [-2, -8, 24], "path": ["0", "0", "9", "10", "12"], "rt": [8249, 165, 164], "actions": ["left", "left", "down"], "actionTimes": [9235, 9912, 10585], "queries": {"click": {"state": {"target": ["11", "12", "8", "7", "4", "3"], "time": [5090, 5725, 6274, 6903, 7481, 7933]}, "edge": {"target": [], "time": []}}, "mouseover": {"state": {"target": ["9", "10", "11", "10", "12", "8", "6", "7", "4", "2", "3", "1", "9"], "time": [4544, 4653, 4811, 5361, 5436, 6053, 6527, 6628, 7302, 7677, 7753, 8303, 8386]}, "edge": {"target": [], "time": []}}, "mouseout": {"state": {"target": ["10", "9", "0", "9", "10", "11", "10", "12", "8", "6", "7", "4", "2", "3", "1", "9"], "time": [561, 728, 4502, 4603, 4678, 5327, 5394, 5894, 6511, 6569, 7211, 7653, 7719, 8260, 8335, 8418]}, "edge": {"target": [], "time": []}}}, "displayed_time": "11.10", "trialTime": 12176, "trial_type": "mouselab-mdp", "trial_index": 53, "time_elapsed": 856582, "internal_node_id": "0.0-4.0-3.0-13.0"}}, {"uniqueid": "w33285777:a75767495", "current_trial": 54, "dateTime": 1664555814126, "trialdata": {"revealed_states": [], "num_clicks_accrued": [0, 0, 0, 0, 0, 0, 0, 0, 0, 0, 0, 0, 0], "stateRewards": ["", 2, 4, 48, 24, -2, -8, 24, 24, -2, 4, -48, 24], "withholdReward": false, "trial_id": "mdp_130849500124", "block": "test2", "trialIndex": 46, "score": 57.5, "costs": -1.5, "simulationMode": [null, null, null], "rewards": [2, 4, 48], "path": ["0", "0", "1", "2", "3"], "rt": [3653, 165, 154], "actions": ["up", "up", "right"], "actionTimes": [4549, 5232, 5904], "queries": {"click": {"state": {"target": ["11", "12", "8", "7", "3", "4"], "time": [1345, 1728, 2342, 2856, 3378, 3807]}, "edge": {"target": [], "time": []}}, "mouseover": {"state": {"target": ["9", "11", "10", "12", "8", "8", "6", "7", "3", "2", "4"], "time": [1050, 1232, 1583, 1657, 2066, 2258, 2507, 2763, 3241, 3566, 3632]}, "edge": {"target": [], "time": []}}, "mouseout": {"state": {"target": ["9", "0", "9", "11", "10", "12", "8", "8", "6", "7", "3", "2", "4"], "time": [666, 1025, 1075, 1550, 1625, 1966, 2100, 2491, 2533, 3199, 3533, 3607, 4125]}, "edge": {"target": [], "time": []}}}, "displayed_time": "9.99", "trialTime": 11399, "trial_type": "mouselab-mdp", "trial_index": 54, "time_elapsed": 868074, "internal_node_id": "0.0-4.0-3.0-14.0"}}, {"uniqueid": "w33285777:a75767495", "current_trial": 55, "dateTime": 1664555825874, "trialdata": {"revealed_states": [], "num_clicks_accrued": [0, 0, 0, 0, 0, 0, 0, 0, 0, 0, 0, 0, 0], "stateRewards": ["", 2, 4, 48, -48, 2, -4, 48, 24, -2, -8, -24, 48], "withholdReward": true, "trial_id": "mdp_962424406744", "block": "test2", "trialIndex": 47, "score": 58.25, "costs": -0.75, "simulationMode": [null, null, null], "rewards": [2, 4, 48], "path": ["0", "0", "1", "2", "3"], "rt": [2609, 200, 22], "actions": ["up", "up", "right"], "actionTimes": [4043, 4748, 5286], "queries": {"click": {"state": {"target": ["3", "1", "2"], "time": [1917, 2891, 3307]}, "edge": {"target": [], "time": []}}, "mouseover": {"state": {"target": ["1", "3", "1", "2"], "time": [1630, 1854, 2738, 3203]}, "edge": {"target": [], "time": []}}, "mouseout": {"state": {"target": ["1", "0", "0", "1", "3", "1", "2"], "time": [1071, 1120, 1571, 1729, 2412, 3129, 3521]}, "edge": {"target": [], "time": []}}}, "displayed_time": "10.51", "trialTime": 11661, "trial_type": "mouselab-mdp", "trial_index": 55, "time_elapsed": 879822, "internal_node_id": "0.0-4.0-3.0-15.0"}}, {"uniqueid": "w33285777:a75767495", "current_trial": 56, "dateTime": 1664555836037, "trialdata": {"revealed_states": [], "num_clicks_accrued": [0, 0, 0, 0, 0, 0, 0, 0, 0, 0, 0, 0, 0], "stateRewards": ["", -4, 4, 24, 24, 4, -8, 48, -48, -2, -8, 24, 24], "withholdReward": true, "trial_id": "mdp_395264223239", "block": "test2", "trialIndex": 48, "score": 48, "costs": -1, "simulationMode": [null, null, null], "rewards": [4, -8, 48], "path": ["0", "0", "5", "6", "7"], "rt": [3093, 154, 121], "actions": ["right", "right", "up"], "actionTimes": [4072, 4736, 5363], "queries": {"click": {"state": {"target": ["12", "8", "7", "11"], "time": [1539, 2040, 2524, 3092]}, "edge": {"target": [], "time": []}}, "mouseover": {"state": {"target": ["9", "12", "8", "6", "7", "1", "11", "5"], "time": [1231, 1298, 1882, 2366, 2414, 2757, 3001, 3448]}, "edge": {"target": [], "time": []}}, "mouseout": {"state": {"target": ["9", "12", "8", "6", "7", "1", "11", "5"], "time": [1240, 1732, 2348, 2390, 2715, 2773, 3348, 3499]}, "edge": {"target": [], "time": []}}}, "displayed_time": "9.05", "trialTime": 10078, "trial_type": "mouselab-mdp", "trial_index": 56, "time_elapsed": 889986, "internal_node_id": "0.0-4.0-3.0-16.0"}}, {"uniqueid": "w33285777:a75767495", "current_trial": 57, "dateTime": 1664555849234, "trialdata": {"revealed_states": [], "num_clicks_accrued": [0, 0, 0, 0, 0, 0, 0, 0, 0, 0, 0, 0, 0], "stateRewards": ["", -2, -8, 24, -24, 4, -8, 48, 48, -4, -8, -24, -48], "withholdReward": false, "trial_id": "mdp_286767261523", "block": "test2", "trialIndex": 49, "score": 48, "costs": -1, "simulationMode": [null, null, null], "rewards": [4, -8, 48], "path": ["0", "0", "5", "6", "7"], "rt": [4342, 253, 186], "actions": ["right", "right", "up"], "actionTimes": [5276, 6034, 6727], "queries": {"click": {"state": {"target": ["11", "7", "8", "12"], "time": [1750, 2325, 2972, 3666]}, "edge": {"target": [], "time": []}}, "mouseover": {"state": {"target": ["9", "11", "11", "1", "7", "7", "6", "8", "8", "12", "6", "6"], "time": [1414, 1472, 1680, 1963, 2014, 2254, 2530, 2572, 2863, 3305, 3905, 4309]}, "edge": {"target": [], "time": []}}, "mouseout": {"state": {"target": ["5", "0", "9", "11", "11", "1", "7", "7", "6", "8", "8", "12", "6"], "time": [563, 1372, 1431, 1522, 1922, 1972, 2039, 2505, 2555, 2639, 3113, 3780, 4094]}, "edge": {"target": [], "time": []}}}, "displayed_time": "9.02", "trialTime": 13107, "trial_type": "mouselab-mdp", "trial_index": 57, "time_elapsed": 903182, "internal_node_id": "0.0-4.0-3.0-17.0"}}, {"uniqueid": "w33285777:a75767495", "current_trial": 58, "dateTime": 1664555860957, "trialdata": {"revealed_states": [], "num_clicks_accrued": [0, 0, 0, 0, 0, 0, 0, 0, 0, 0, 0, 0, 0], "stateRewards": ["", 2, 8, -48, -24, 2, -4, -48, 24, 2, -4, -24, -24], "withholdReward": true, "trial_id": "mdp_954659099093", "block": "test2", "trialIndex": 50, "score": 25.5, "costs": -1.5, "simulationMode": [null, null, null], "rewards": [2, -4, 24], "path": ["0", "0", "5", "6", "8"], "rt": [4350, 29, 349], "actions": ["right", "right", "down"], "actionTimes": [5645, 6184, 7036], "queries": {"click": {"state": {"target": ["11", "7", "8", "12", "3", "4"], "time": [1915, 2497, 2964, 3558, 4190, 4581]}, "edge": {"target": [], "time": []}}, "mouseover": {"state": {"target": ["9", "11", "1", "7", "6", "8", "12", "9", "1", "2", "3", "2", "4", "1", "5"], "time": [1578, 1795, 2178, 2278, 2778, 2837, 3387, 3844, 3887, 3927, 4137, 4394, 4478, 4869, 4911]}, "edge": {"target": [], "time": []}}, "mouseout": {"state": {"target": ["6", "5", "5", "9", "11", "1", "7", "6", "8", "12", "9", "1", "2", "3", "2", "4", "1", "5"], "time": [787, 870, 1028, 1629, 2112, 2203, 2745, 2813, 3237, 3812, 3862, 3903, 4095, 4354, 4436, 4820, 4886, 4936]}, "edge": {"target": [], "time": []}}}, "displayed_time": "10.38", "trialTime": 11579, "trial_type": "mouselab-mdp", "trial_index": 58, "time_elapsed": 914906, "internal_node_id": "0.0-4.0-3.0-18.0"}}, {"uniqueid": "w33285777:a75767495", "current_trial": 59, "dateTime": 1664555873554, "trialdata": {"revealed_states": [], "num_clicks_accrued": [0, 0, 0, 0, 0, 0, 0, 0, 0, 0, 0, 0, 0], "stateRewards": ["", -2, -4, -24, 48, -2, -8, -48, -24, 4, 8, 48, 24], "withholdReward": true, "trial_id": "mdp_625355871626", "block": "test2", "trialIndex": 51, "score": 64, "costs": -1, "simulationMode": [null, null, null], "rewards": [4, 8, 48], "path": ["0", "0", "9", "10", "11"], "rt": [3714, 89, 126], "actions": ["left", "left", "up"], "actionTimes": [5454, 6059, 6695], "queries": {"click": {"state": {"target": ["12", "8", "7", "11"], "time": [2659, 3236, 3868, 4399]}, "edge": {"target": [], "time": []}}, "mouseover": {"state": {"target": ["12", "12", "8", "6", "7", "1", "11", "4"], "time": [1969, 2561, 3160, 3651, 3793, 4102, 4343, 4627]}, "edge": {"target": [], "time": []}}, "mouseout": {"state": {"target": ["8", "5", "9", "0", "0", "12", "12", "8", "6", "7", "1", "11", "4"], "time": [510, 569, 794, 1244, 1886, 2011, 2869, 3619, 3702, 4044, 4127, 4543, 4676]}, "edge": {"target": [], "time": []}}}, "displayed_time": "10.86", "trialTime": 12509, "trial_type": "mouselab-mdp", "trial_index": 59, "time_elapsed": 927502, "internal_node_id": "0.0-4.0-3.0-19.0"}}, {"uniqueid": "w33285777:a75767495", "current_trial": 60, "dateTime": 1664555884700, "trialdata": {"revealed_states": [], "num_clicks_accrued": [0, 0, 0, 0, 0, 0, 0, 0, 0, 0, 0, 0, 0], "stateRewards": ["", -2, 4, -48, -48, 4, 4, 48, -48, 2, 8, 24, 48], "withholdReward": true, "trial_id": "mdp_686771069745", "block": "test2", "trialIndex": 52, "score": 62.5, "costs": -0.5, "simulationMode": [null, null, null], "rewards": [2, 8, 48], "path": ["0", "0", "9", "10", "12"], "rt": [1934, 109, 67], "actions": ["left", "left", "down"], "actionTimes": [2878, 3491, 4067], "queries": {"click": {"state": {"target": ["11", "12"], "time": [1332, 1895]}, "edge": {"target": [], "time": []}}, "mouseover": {"state": {"target": ["9", "11", "10", "12", "8"], "time": [1072, 1296, 1589, 1888, 2280]}, "edge": {"target": [], "time": []}}, "mouseout": {"state": {"target": ["1", "0", "9", "11", "10", "12"], "time": [663, 1047, 1105, 1547, 1672, 2138]}, "edge": {"target": [], "time": []}}}, "displayed_time": "10.01", "trialTime": 11060, "trial_type": "mouselab-mdp", "trial_index": 60, "time_elapsed": 938649, "internal_node_id": "0.0-4.0-3.0-20.0"}}, {"uniqueid": "w33285777:a75767495", "current_trial": 61, "dateTime": 1664555895881, "trialdata": {"revealed_states": [], "num_clicks_accrued": [0, 0, 0, 0, 0, 0, 0, 0, 0, 0, 0, 0, 0], "stateRewards": ["", -2, 4, 24, 48, 2, 4, -48, -48, -2, 8, 48, -24], "withholdReward": true, "trial_id": "mdp_305701202606", "block": "test2", "trialIndex": 53, "score": 58.25, "costs": -0.75, "simulationMode": [null, null, null], "rewards": [-2, 8, 48], "path": ["0", "0", "9", "10", "11"], "rt": [3686, 135, 141], "actions": ["left", "left", "up"], "actionTimes": [4532, 5181, 5833], "queries": {"click": {"state": {"target": ["11", "9", "10"], "time": [1717, 3633, 3941]}, "edge": {"target": [], "time": []}}, "mouseover": {"state": {"target": ["9", "11", "0", "10", "10", "9", "10"], "time": [1130, 1505, 2114, 2530, 3010, 3505, 3863]}, "edge": {"target": [], "time": []}}, "mouseout": {"state": {"target": ["8", "5", "0", "9", "11", "0", "10", "10", "9"], "time": [457, 604, 1055, 1163, 1939, 2122, 2655, 3430, 3814]}, "edge": {"target": [], "time": []}}}, "displayed_time": "9.93", "trialTime": 11091, "trial_type": "mouselab-mdp", "trial_index": 61, "time_elapsed": 949829, "internal_node_id": "0.0-4.0-3.0-21.0"}}, {"uniqueid": "w33285777:a75767495", "current_trial": 62, "dateTime": 1664555907394, "trialdata": {"revealed_states": [], "num_clicks_accrued": [0, 0, 0, 0, 0, 0, 0, 0, 0, 0, 0, 0, 0], "stateRewards": ["", -4, -8, 48, -24, 4, -8, 48, 48, -2, 4, -48, -24], "withholdReward": true, "trial_id": "mdp_925905402462", "block": "test2", "trialIndex": 54, "score": 48.5, "costs": -0.5, "simulationMode": [null, null, null], "rewards": [4, -8, 48], "path": ["0", "0", "5", "6", "7"], "rt": [2608, 130, 134], "actions": ["right", "right", "up"], "actionTimes": [3655, 4285, 4925], "queries": {"click": {"state": {"target": ["11", "7"], "time": [1521, 2020]}, "edge": {"target": [], "time": []}}, "mouseover": {"state": {"target": ["11", "1", "7", "6", "8", "6", "6"], "time": [1414, 1764, 1856, 2248, 2339, 2756, 2962]}, "edge": {"target": [], "time": []}}, "mouseout": {"state": {"target": ["10", "9", "0", "5", "0", "11", "1", "7", "6", "8", "6", "6"], "time": [515, 539, 564, 815, 1189, 1689, 1781, 2206, 2289, 2673, 2881, 3140]}, "edge": {"target": [], "time": []}}}, "displayed_time": "10.15", "trialTime": 11431, "trial_type": "mouselab-mdp", "trial_index": 62, "time_elapsed": 961342, "internal_node_id": "0.0-4.0-3.0-22.0"}}, {"uniqueid": "w33285777:a75767495", "current_trial": 63, "dateTime": 1664555918857, "trialdata": {"revealed_states": [], "num_clicks_accrued": [0, 0, 0, 0, 0, 0, 0, 0, 0, 0, 0, 0, 0], "stateRewards": ["", -2, -4, -24, -48, -2, 8, -48, 24, 4, -4, -24, -24], "withholdReward": true, "trial_id": "mdp_915304165774", "block": "test2", "trialIndex": 55, "score": 33.5, "costs": -1.5, "simulationMode": [null, null, null], "rewards": [-2, 8, 24], "path": ["0", "0", "5", "6", "8"], "rt": [5362, 110, 95], "actions": ["right", "right", "down"], "actionTimes": [6271, 6890, 7490], "queries": {"click": {"state": {"target": ["11", "12", "8", "7", "3", "4"], "time": [1363, 2218, 2714, 3178, 4928, 5377]}, "edge": {"target": [], "time": []}}, "mouseover": {"state": {"target": ["11", "10", "12", "12", "8", "6", "7", "2", "4", "3", "2", "4"], "time": [1221, 1554, 1945, 2129, 2495, 2920, 3099, 3728, 3787, 4661, 5095, 5303]}, "edge": {"target": [], "time": []}}, "mouseout": {"state": {"target": ["5", "11", "10", "12", "12", "8", "6", "7", "2", "4", "3", "2", "4"], "time": [688, 1529, 1596, 1980, 2328, 2887, 2962, 3629, 3763, 4187, 5071, 5153, 5628]}, "edge": {"target": [], "time": []}}}, "displayed_time": "10.00", "trialTime": 11360, "trial_type": "mouselab-mdp", "trial_index": 63, "time_elapsed": 972806, "internal_node_id": "0.0-4.0-3.0-23.0"}}, {"uniqueid": "w33285777:a75767495", "current_trial": 64, "dateTime": 1664555932743, "trialdata": {"revealed_states": [], "num_clicks_accrued": [0, 0, 0, 0, 0, 0, 0, 0, 0, 0, 0, 0, 0], "stateRewards": ["", -2, 8, 24, -48, -4, -8, -24, -48, -4, 8, -24, 48], "withholdReward": true, "trial_id": "mdp_464339499860", "block": "test2", "trialIndex": 56, "score": 56, "costs": -1, "simulationMode": [null, null, null], "rewards": [-4, 8, 48], "path": ["0", "0", "9", "10", "12"], "rt": [4357, 58, 205], "actions": ["left", "left", "down"], "actionTimes": [7708, 8272, 8994], "queries": {"click": {"state": {"target": ["12", "11", "7", "8"], "time": [4673, 5204, 5954, 6326]}, "edge": {"target": [], "time": []}}, "mouseover": {"state": {"target": ["9", "10", "12", "10", "11", "5", "7", "7", "6", "8", "10"], "time": [4238, 4256, 4521, 4838, 4904, 5512, 5670, 5862, 6171, 6254, 6863]}, "edge": {"target": [], "time": []}}, "mouseout": {"state": {"target": ["1", "9", "10", "12", "10", "11", "5", "7", "7", "6", "8", "10"], "time": [3005, 4254, 4263, 4813, 4871, 5405, 5546, 5721, 6137, 6221, 6588, 7012]}, "edge": {"target": [], "time": []}}}, "displayed_time": "12.41", "trialTime": 13796, "trial_type": "mouselab-mdp", "trial_index": 64, "time_elapsed": 986690, "internal_node_id": "0.0-4.0-3.0-24.0"}}, {"uniqueid": "w33285777:a75767495", "current_trial": 65, "dateTime": 1664555946131, "trialdata": {"revealed_states": [], "num_clicks_accrued": [0, 0, 0, 0, 0, 0, 0, 0, 0, 0, 0, 0, 0], "stateRewards": ["", -4, -4, -24, 48, 2, 4, -24, -48, -2, 4, 24, 24], "withholdReward": true, "trial_id": "mdp_360934723192", "block": "test2", "trialIndex": 57, "score": 30, "costs": -1, "simulationMode": [null, null, null], "rewards": [-2, 4, 24], "path": ["0", "0", "9", "10", "12"], "rt": [4833, 545, 50], "actions": ["left", "left", "down"], "actionTimes": [7259, 8316, 8877], "queries": {"click": {"state": {"target": ["12", "11", "7", "8"], "time": [5197, 5633, 6227, 6546]}, "edge": {"target": [], "time": []}}, "mouseover": {"state": {"target": ["12", "10", "11", "1", "7", "6", "8"], "time": [5125, 5409, 5484, 5859, 5942, 6401, 6451]}, "edge": {"target": [], "time": []}}, "mouseout": {"state": {"target": ["12", "10", "9", "0", "12", "10", "11", "1", "7", "6"], "time": [1834, 1984, 2084, 4159, 5375, 5442, 5809, 5875, 6376, 6425]}, "edge": {"target": [], "time": []}}}, "displayed_time": "11.49", "trialTime": 13300, "trial_type": "mouselab-mdp", "trial_index": 65, "time_elapsed": 1000080, "internal_node_id": "0.0-4.0-3.0-25.0"}}, {"uniqueid": "w33285777:a75767495", "current_trial": 66, "dateTime": 1664555956156, "trialdata": {"revealed_states": [], "num_clicks_accrued": [0, 0, 0, 0, 0, 0, 0, 0, 0, 0, 0, 0, 0], "stateRewards": ["", -4, 4, -24, 48, 2, 4, -48, 24, 4, -8, -24, 24], "withholdReward": true, "trial_id": "mdp_740130150937", "block": "test2", "trialIndex": 58, "score": 51.5, "costs": -1.5, "simulationMode": [null, null, null], "rewards": [-4, 4, 48], "path": ["0", "0", "1", "2", "4"], "rt": [3846, 82, 143], "actions": ["up", "up", "left"], "actionTimes": [4786, 5387, 6040], "queries": {"click": {"state": {"target": ["12", "11", "7", "8", "4", "3"], "time": [1545, 1986, 2496, 2796, 3894, 4197]}, "edge": {"target": [], "time": []}}, "mouseover": {"state": {"target": ["12", "10", "11", "1", "7", "6", "8", "5", "1", "4", "2", "3"], "time": [1345, 1745, 1845, 2195, 2262, 2654, 2736, 3179, 3246, 3788, 4045, 4088]}, "edge": {"target": [], "time": []}}, "mouseout": {"state": {"target": ["8", "5", "0", "12", "10", "11", "1", "7", "6", "8", "5", "1", "4", "2"], "time": [545, 695, 1253, 1712, 1796, 2153, 2212, 2620, 2696, 3128, 3211, 3621, 4021, 4072]}, "edge": {"target": [], "time": []}}}, "displayed_time": "8.99", "trialTime": 9937, "trial_type": "mouselab-mdp", "trial_index": 66, "time_elapsed": 1010105, "internal_node_id": "0.0-4.0-3.0-26.0"}}, {"uniqueid": "w33285777:a75767495", "current_trial": 67, "dateTime": 1664555971208, "trialdata": {"revealed_states": [], "num_clicks_accrued": [0, 0, 0, 0, 0, 0, 0, 0, 0, 0, 0, 0, 0], "stateRewards": ["", -2, 4, -24, 48, 4, -8, 48, -48, 2, -8, 48, 24], "withholdReward": true, "trial_id": "mdp_501111216502", "block": "test2", "trialIndex": 59, "score": 47, "costs": -2, "simulationMode": [null, null, null], "rewards": [4, -8, 48], "path": ["0", "0", "5", "6", "7"], "rt": [7562, 463, 130], "actions": ["right", "right", "up"], "actionTimes": [8862, 9831, 10464], "queries": {"click": {"state": {"target": ["12", "11", "7", "8", "6", "10", "5", "9"], "time": [1917, 2764, 3312, 3764, 4486, 5077, 5648, 5980]}, "edge": {"target": [], "time": []}}, "mouseover": {"state": {"target": ["9", "12", "12", "10", "11", "7", "6", "8", "6", "5", "0", "9", "10", "9", "0", "5", "0", "9", "0"], "time": [1434, 1484, 1750, 2259, 2559, 3234, 3601, 3676, 4368, 4692, 4734, 4778, 5001, 5283, 5326, 5592, 5809, 5859, 6192]}, "edge": {"target": [], "time": []}}, "mouseout": {"state": {"target": ["3", "1", "9", "12", "12", "10", "11", "7", "6", "8", "6", "5", "0", "9", "10", "9", "0", "5", "0", "9", "0"], "time": [567, 626, 1451, 1518, 2209, 2462, 2968, 3559, 3642, 4134, 4658, 4718, 4759, 4817, 5258, 5309, 5384, 5784, 5833, 6158, 6225]}, "edge": {"target": [], "time": []}}}, "displayed_time": "10.97", "trialTime": 14961, "trial_type": "mouselab-mdp", "trial_index": 67, "time_elapsed": 1025157, "internal_node_id": "0.0-4.0-3.0-27.0"}}, {"uniqueid": "w33285777:a75767495", "current_trial": 68, "dateTime": 1664555981939, "trialdata": {"revealed_states": [], "num_clicks_accrued": [0, 0, 0, 0, 0, 0, 0, 0, 0, 0, 0, 0, 0], "stateRewards": ["", -4, 8, -24, -24, 2, 4, 48, 48, -2, 4, 24, -48], "withholdReward": false, "trial_id": "mdp_397308196941", "block": "test2", "trialIndex": 60, "score": 57.75, "costs": -1.25, "simulationMode": [null, null, null], "rewards": [2, 4, 48], "path": ["0", "0", "5", "6", "7"], "rt": [4460, 153, 128], "actions": ["right", "right", "up"], "actionTimes": [5569, 6230, 6877], "queries": {"click": {"state": {"target": ["11", "12", "7", "8", "6"], "time": [1787, 2146, 2713, 3664, 4621]}, "edge": {"target": [], "time": []}}, "mouseover": {"state": {"target": ["11", "10", "12", "5", "7", "6", "8", "6", "5"], "time": [1464, 1948, 2006, 2439, 2539, 2981, 3106, 4130, 4805]}, "edge": {"target": [], "time": []}}, "mouseout": {"state": {"target": ["5", "0", "11", "10", "12", "5", "7", "6", "8", "6"], "time": [597, 1364, 1931, 1981, 2356, 2464, 2939, 3030, 4047, 4772]}, "edge": {"target": [], "time": []}}}, "displayed_time": "9.20", "trialTime": 10640, "trial_type": "mouselab-mdp", "trial_index": 68, "time_elapsed": 1035887, "internal_node_id": "0.0-4.0-3.0-28.0"}}, {"uniqueid": "w33285777:a75767495", "current_trial": 69, "dateTime": 1664555992928, "trialdata": {"revealed_states": [], "num_clicks_accrued": [0, 0, 0, 0, 0, 0, 0, 0, 0, 0, 0, 0, 0], "stateRewards": ["", -2, -8, -24, 48, -2, -8, -48, -48, 2, -8, -48, 24], "withholdReward": true, "trial_id": "mdp_288324580942", "block": "test2", "trialIndex": 61, "score": 41.5, "costs": -1.5, "simulationMode": [null, null, null], "rewards": [-2, -8, 48], "path": ["0", "0", "1", "2", "4"], "rt": [4781, 268, 127], "actions": ["up", "up", "left"], "actionTimes": [5542, 6319, 6962], "queries": {"click": {"state": {"target": ["12", "11", "7", "8", "4", "3"], "time": [1330, 2050, 2700, 3156, 4442, 4757]}, "edge": {"target": [], "time": []}}, "mouseover": {"state": {"target": ["0", "9", "10", "12", "10", "11", "1", "7", "8", "5", "4", "2", "3"], "time": [867, 942, 1017, 1220, 1533, 1850, 2250, 2367, 3008, 3600, 4358, 4583, 4650]}, "edge": {"target": [], "time": []}}, "mouseout": {"state": {"target": ["5", "0", "9", "10", "12", "10", "11", "1", "7", "8", "5", "4", "2"], "time": [509, 908, 984, 1043, 1492, 1583, 2192, 2276, 2883, 3559, 3617, 4559, 4617]}, "edge": {"target": [], "time": []}}}, "displayed_time": "9.86", "trialTime": 10892, "trial_type": "mouselab-mdp", "trial_index": 69, "time_elapsed": 1046877, "internal_node_id": "0.0-4.0-3.0-29.0"}}, {"uniqueid": "w33285777:a75767495", "current_trial": 70, "dateTime": 1664556019440, "trialdata": {"rt": 26509, "stimulus": "<h1> End of block! </h1>\n\nYou have reached the end of the block 2/4. If you need a short break, feel free to take one now before moving on.\n\n<br><br>\nIn the next block, you will complete another 30 rounds of this game.\n\n<br><br>\n<div style='text-align: center;'>Press <code>space</code> to begin.</div>\n<br><br>\n<div style='text-align: center;'>(If the experiment doesn't continue, try clicking on the text and then pressing <code>space</code>.)</div>", "response": " ", "trial_id": "mdp_ready_3", "trial_type": "html-keyboard-response", "trial_index": 70, "time_elapsed": 1073389, "internal_node_id": "0.0-4.0-4.0"}}, {"uniqueid": "w33285777:a75767495", "current_trial": 71, "dateTime": 1664556029903, "trialdata": {"revealed_states": [], "num_clicks_accrued": [0, 0, 0, 0, 0, 0, 0, 0, 0, 0, 0, 0, 0], "stateRewards": ["", -4, -4, -24, -48, -4, 8, -24, -48, 4, -8, 24, -24], "withholdReward": true, "trial_id": "mdp_924927483179", "block": "test3", "trialIndex": 62, "score": 23.5, "costs": -1.5, "simulationMode": [null, null, null], "rewards": [4, -8, 24], "path": ["0", "0", "9", "10", "11"], "rt": [4331, 513, 227], "actions": ["left", "left", "up"], "actionTimes": [6514, 7532, 8270], "queries": {"click": {"state": {"target": ["12", "11", "7", "8", "4", "3"], "time": [2993, 3637, 4115, 4477, 5158, 5423]}, "edge": {"target": [], "time": []}}, "mouseover": {"state": {"target": ["0", "9", "12", "10", "11", "1", "7", "6", "8", "6", "2", "4", "2", "3", "6"], "time": [2425, 2467, 2964, 3433, 3524, 3825, 3917, 4325, 4408, 4809, 4934, 5066, 5276, 5333, 5800]}, "edge": {"target": [], "time": []}}, "mouseout": {"state": {"target": ["3", "5", "5", "0", "9", "12", "12", "10", "11", "1", "7", "6", "8", "6", "2", "4", "2", "3", "7"], "time": [1633, 1725, 1900, 2450, 2542, 3184, 3400, 3483, 3775, 3842, 4283, 4367, 4784, 4817, 4967, 5250, 5308, 5699, 5783]}, "edge": {"target": [], "time": []}}}, "displayed_time": "9.22", "trialTime": 10370, "trial_type": "mouselab-mdp", "trial_index": 71, "time_elapsed": 1083852, "internal_node_id": "0.0-4.0-5.0-0.0"}}, {"uniqueid": "w33285777:a75767495", "current_trial": 72, "dateTime": 1664556041166, "trialdata": {"revealed_states": [], "num_clicks_accrued": [0, 0, 0, 0, 0, 0, 0, 0, 0, 0, 0, 0, 0], "stateRewards": ["", 4, -8, 24, 48, 2, -4, 48, 48, 4, -8, 48, 48], "withholdReward": false, "trial_id": "mdp_962498334245", "block": "test3", "trialIndex": 63, "score": 48.25, "costs": -0.75, "simulationMode": [null, null, null], "rewards": [4, -8, 48], "path": ["0", "0", "9", "10", "11"], "rt": [2545, 76, 189], "actions": ["left", "left", "up"], "actionTimes": [3369, 3950, 4644], "queries": {"click": {"state": {"target": ["11", "12", "10"], "time": [1343, 2100, 2547]}, "edge": {"target": [], "time": []}}, "mouseover": {"state": {"target": ["9", "11", "10", "12", "10", "9"], "time": [1047, 1255, 1580, 2030, 2397, 2747]}, "edge": {"target": [], "time": []}}, "mouseout": {"state": {"target": ["6", "5", "9", "11", "10", "12", "10"], "time": [446, 580, 1063, 1538, 1638, 2322, 2713]}, "edge": {"target": [], "time": []}}}, "displayed_time": "9.88", "trialTime": 11172, "trial_type": "mouselab-mdp", "trial_index": 72, "time_elapsed": 1095115, "internal_node_id": "0.0-4.0-5.0-1.0"}}, {"uniqueid": "w33285777:a75767495", "current_trial": 73, "dateTime": 1664556051147, "trialdata": {"revealed_states": [], "num_clicks_accrued": [0, 0, 0, 0, 0, 0, 0, 0, 0, 0, 0, 0, 0], "stateRewards": ["", 2, -8, -24, -48, -2, -4, 48, 48, 4, 8, 48, 48], "withholdReward": true, "trial_id": "mdp_347285045422", "block": "test3", "trialIndex": 64, "score": 64.5, "costs": -0.5, "simulationMode": [null, null, null], "rewards": [4, 8, 48], "path": ["0", "0", "9", "10", "11"], "rt": [1875, 47, 181], "actions": ["left", "left", "up"], "actionTimes": [2682, 3241, 3924], "queries": {"click": {"state": {"target": ["11", "12"], "time": [1298, 1952]}, "edge": {"target": [], "time": []}}, "mouseover": {"state": {"target": ["9", "11", "10", "12"], "time": [1085, 1161, 1568, 1910]}, "edge": {"target": [], "time": []}}, "mouseout": {"state": {"target": ["9", "0", "9", "11", "10", "12"], "time": [501, 1035, 1094, 1518, 1651, 9360]}, "edge": {"target": [], "time": []}}}, "displayed_time": "8.86", "trialTime": 9867, "trial_type": "mouselab-mdp", "trial_index": 73, "time_elapsed": 1105096, "internal_node_id": "0.0-4.0-5.0-2.0"}}, {"uniqueid": "w33285777:a75767495", "current_trial": 74, "dateTime": 1664556061927, "trialdata": {"revealed_states": [], "num_clicks_accrued": [0, 0, 0, 0, 0, 0, 0, 0, 0, 0, 0, 0, 0], "stateRewards": ["", -4, -8, -24, 24, 4, 4, -48, -48, -4, -4, 24, -48], "withholdReward": true, "trial_id": "mdp_431592223624", "block": "test3", "trialIndex": 65, "score": 19.5, "costs": -1.5, "simulationMode": [null, null, null], "rewards": [-4, -4, 24], "path": ["0", "0", "9", "10", "11"], "rt": [4319, 131, 61], "actions": ["left", "left", "up"], "actionTimes": [5859, 6498, 7070], "queries": {"click": {"state": {"target": ["11", "12", "7", "8", "3", "4"], "time": [2161, 2644, 3393, 4044, 4520, 4967]}, "edge": {"target": [], "time": []}}, "mouseover": {"state": {"target": ["9", "10", "11", "10", "12", "6", "7", "6", "8", "6", "3", "2", "4"], "time": [1757, 1799, 2006, 2398, 2456, 3206, 3273, 3572, 3925, 4248, 4373, 4689, 4814]}, "edge": {"target": [], "time": []}}, "mouseout": {"state": {"target": ["0", "9", "10", "11", "10", "12", "6", "7", "6", "8", "6", "3", "2", "4"], "time": [1731, 1781, 1839, 2373, 2432, 2840, 3231, 3532, 3623, 4215, 4265, 4656, 4749, 5222]}, "edge": {"target": [], "time": []}}}, "displayed_time": "9.60", "trialTime": 10686, "trial_type": "mouselab-mdp", "trial_index": 74, "time_elapsed": 1115876, "internal_node_id": "0.0-4.0-5.0-3.0"}}, {"uniqueid": "w33285777:a75767495", "current_trial": 75, "dateTime": 1664556072227, "trialdata": {"revealed_states": [], "num_clicks_accrued": [0, 0, 0, 0, 0, 0, 0, 0, 0, 0, 0, 0, 0], "stateRewards": ["", 2, -4, -24, 24, 2, 8, 48, 48, 2, -8, 48, -24], "withholdReward": true, "trial_id": "mdp_330392242530", "block": "test3", "trialIndex": 66, "score": 46.5, "costs": -0.5, "simulationMode": [null, null, null], "rewards": [2, -8, 48], "path": ["0", "0", "9", "10", "11"], "rt": [1778, 143, 110], "actions": ["left", "left", "up"], "actionTimes": [2932, 3582, 4207], "queries": {"click": {"state": {"target": ["11", "12"], "time": [1644, 2127]}, "edge": {"target": [], "time": []}}, "mouseover": {"state": {"target": ["0", "9", "11", "10", "12"], "time": [1280, 1354, 1438, 1796, 2013]}, "edge": {"target": [], "time": []}}, "mouseout": {"state": {"target": ["1", "0", "0", "9", "11", "10", "12"], "time": [754, 956, 1321, 1396, 1779, 1821, 2305]}, "edge": {"target": [], "time": []}}}, "displayed_time": "9.26", "trialTime": 10209, "trial_type": "mouselab-mdp", "trial_index": 75, "time_elapsed": 1126175, "internal_node_id": "0.0-4.0-5.0-4.0"}}, {"uniqueid": "w33285777:a75767495", "current_trial": 76, "dateTime": 1664556082555, "trialdata": {"revealed_states": [], "num_clicks_accrued": [0, 0, 0, 0, 0, 0, 0, 0, 0, 0, 0, 0, 0], "stateRewards": ["", -2, -4, 48, -24, 2, -4, -24, -48, 2, 8, -48, -24], "withholdReward": false, "trial_id": "mdp_238243948191", "block": "test3", "trialIndex": 67, "score": 45.5, "costs": -1.5, "simulationMode": [null, null, null], "rewards": [-2, -4, 48], "path": ["0", "0", "1", "2", "3"], "rt": [4504, 135, 69], "actions": ["up", "up", "right"], "actionTimes": [5409, 6047, 6623], "queries": {"click": {"state": {"target": ["11", "12", "8", "7", "3", "4"], "time": [1376, 2145, 2722, 3180, 4077, 4682]}, "edge": {"target": [], "time": []}}, "mouseover": {"state": {"target": ["11", "10", "12", "12", "8", "6", "7", "3", "2", "4", "4", "2"], "time": [1262, 1588, 1646, 2032, 2662, 2913, 2963, 3613, 4321, 4363, 4596, 4896]}, "edge": {"target": [], "time": []}}, "mouseout": {"state": {"target": ["0", "11", "10", "12", "12", "8", "6", "7", "3", "2", "4", "4", "2"], "time": [1070, 1546, 1620, 1746, 2320, 2895, 2937, 3528, 4304, 4345, 4395, 4871, 4929]}, "edge": {"target": [], "time": []}}}, "displayed_time": "8.96", "trialTime": 10230, "trial_type": "mouselab-mdp", "trial_index": 76, "time_elapsed": 1136504, "internal_node_id": "0.0-4.0-5.0-5.0"}}, {"uniqueid": "w33285777:a75767495", "current_trial": 77, "dateTime": 1664556102603, "trialdata": {"revealed_states": [], "num_clicks_accrued": [0, 0, 0, 0, 0, 0, 0, 0, 0, 0, 0, 0, 0], "stateRewards": ["", -4, 8, -24, 48, 2, -8, 24, 48, 2, -8, -24, -48], "withholdReward": true, "trial_id": "mdp_493778446445", "block": "test3", "trialIndex": 68, "score": 46, "costs": -1, "simulationMode": [null, null, null], "rewards": [2, -8, 48], "path": ["0", "0", "5", "6", "8"], "rt": [2798, 194, 396], "actions": ["right", "right", "down"], "actionTimes": [3693, 4397, 5296], "queries": {"click": {"state": {"target": ["11", "12", "7", "8"], "time": [1348, 1787, 2251, 2619]}, "edge": {"target": [], "time": []}}, "mouseover": {"state": {"target": ["11", "10", "12", "9", "7", "6", "8", "6", "5"], "time": [1258, 1624, 1708, 1992, 2084, 2392, 2475, 2799, 3183]}, "edge": {"target": [], "time": []}}, "mouseout": {"state": {"target": ["1", "11", "10", "12", "9", "7", "6", "8", "6", "5"], "time": [642, 1600, 1658, 1959, 2000, 2375, 2433, 2783, 2825, 3192]}, "edge": {"target": [], "time": []}}}, "displayed_time": "8.99", "trialTime": 19958, "trial_type": "mouselab-mdp", "trial_index": 77, "time_elapsed": 1156552, "internal_node_id": "0.0-4.0-5.0-6.0"}}, {"uniqueid": "w33285777:a75767495", "current_trial": 78, "dateTime": 1664556113594, "trialdata": {"revealed_states": [], "num_clicks_accrued": [0, 0, 0, 0, 0, 0, 0, 0, 0, 0, 0, 0, 0], "stateRewards": ["", -4, -8, 48, 48, -4, 4, 48, -24, 4, 8, -24, -48], "withholdReward": true, "trial_id": "mdp_142906093415", "block": "test3", "trialIndex": 69, "score": 52, "costs": -1, "simulationMode": [null, null, null], "rewards": [-4, 4, 48], "path": ["0", "0", "5", "6", "7"], "rt": [3661, 436, 67], "actions": ["right", "right", "up"], "actionTimes": [4594, 5534, 6108], "queries": {"click": {"state": {"target": ["11", "12", "7", "8"], "time": [1402, 1801, 2384, 3087]}, "edge": {"target": [], "time": []}}, "mouseover": {"state": {"target": ["11", "10", "12", "0", "7", "7", "6", "8", "6", "6"], "time": [1375, 1656, 1723, 2006, 2056, 2331, 2589, 2672, 3806, 4131]}, "edge": {"target": [], "time": []}}, "mouseout": {"state": {"target": ["0", "9", "9", "0", "11", "10", "12", "0", "7", "7", "6", "8", "6"], "time": [572, 606, 806, 1122, 1630, 1689, 1955, 2014, 2081, 2555, 2631, 3772, 3815]}, "edge": {"target": [], "time": []}}}, "displayed_time": "10.02", "trialTime": 10898, "trial_type": "mouselab-mdp", "trial_index": 78, "time_elapsed": 1167543, "internal_node_id": "0.0-4.0-5.0-7.0"}}, {"uniqueid": "w33285777:a75767495", "current_trial": 79, "dateTime": 1664556125166, "trialdata": {"revealed_states": [], "num_clicks_accrued": [0, 0, 0, 0, 0, 0, 0, 0, 0, 0, 0, 0, 0], "stateRewards": ["", 4, -4, 48, -48, 2, 8, -48, 24, -2, -4, -24, 48], "withholdReward": true, "trial_id": "mdp_937564992306", "block": "test3", "trialIndex": 70, "score": 46.5, "costs": -0.5, "simulationMode": [null, null, null], "rewards": [-2, -4, 48], "path": ["0", "0", "9", "10", "12"], "rt": [1846, 37, 44], "actions": ["left", "left", "down"], "actionTimes": [2958, 3497, 4047], "queries": {"click": {"state": {"target": ["11", "12"], "time": [1530, 1908]}, "edge": {"target": [], "time": []}}, "mouseover": {"state": {"target": ["11", "10", "12", "0", "5", "7"], "time": [1295, 1727, 1802, 2101, 2135, 2351]}, "edge": {"target": [], "time": []}}, "mouseout": {"state": {"target": ["6", "5", "0", "11", "10", "12", "0", "5"], "time": [642, 743, 1045, 1701, 1768, 2043, 2126, 2160]}, "edge": {"target": [], "time": []}}}, "displayed_time": "10.20", "trialTime": 11475, "trial_type": "mouselab-mdp", "trial_index": 79, "time_elapsed": 1179115, "internal_node_id": "0.0-4.0-5.0-8.0"}}, {"uniqueid": "w33285777:a75767495", "current_trial": 80, "dateTime": 1664556140461, "trialdata": {"revealed_states": [], "num_clicks_accrued": [0, 0, 0, 0, 0, 0, 0, 0, 0, 0, 0, 0, 0], "stateRewards": ["", 4, 4, 48, -48, 4, 4, -48, 24, 2, 8, 24, -48], "withholdReward": true, "trial_id": "mdp_291674656283", "block": "test3", "trialIndex": 71, "score": 59.5, "costs": -1.5, "simulationMode": [null, null, null], "rewards": [4, 4, 48], "path": ["0", "0", "1", "2", "3"], "rt": [4068, 177, 80], "actions": ["up", "up", "right"], "actionTimes": [10155, 10849, 11437], "queries": {"click": {"state": {"target": ["11", "12", "8", "7", "4", "3"], "time": [6549, 7000, 7610, 8036, 8709, 9042]}, "edge": {"target": [], "time": []}}, "mouseover": {"state": {"target": ["11", "10", "12", "8", "7", "2", "4", "2", "3"], "time": [6323, 6714, 6781, 7575, 7872, 8382, 8599, 8882, 8957]}, "edge": {"target": [], "time": []}}, "mouseout": {"state": {"target": ["7", "3", "1", "0", "11", "10", "12", "8", "7", "2", "4", "2"], "time": [5306, 5531, 5581, 6215, 6690, 6748, 7197, 7791, 8266, 8573, 8857, 8923]}, "edge": {"target": [], "time": []}}}, "displayed_time": "14.16", "trialTime": 15200, "trial_type": "mouselab-mdp", "trial_index": 80, "time_elapsed": 1194410, "internal_node_id": "0.0-4.0-5.0-9.0"}}, {"uniqueid": "w33285777:a75767495", "current_trial": 81, "dateTime": 1664556150886, "trialdata": {"revealed_states": [], "num_clicks_accrued": [0, 0, 0, 0, 0, 0, 0, 0, 0, 0, 0, 0, 0], "stateRewards": ["", 2, -4, -24, -24, -2, -8, -48, 24, -4, -8, 24, 24], "withholdReward": true, "trial_id": "mdp_521351546461", "block": "test3", "trialIndex": 72, "score": 15.5, "costs": -1.5, "simulationMode": [null, null, null], "rewards": [-4, -8, 24], "path": ["0", "0", "9", "10", "11"], "rt": [4114, 118, 112], "actions": ["left", "left", "up"], "actionTimes": [4943, 5563, 6183], "queries": {"click": {"state": {"target": ["11", "12", "7", "8", "3", "4"], "time": [1318, 1679, 2455, 2779, 3335, 3714]}, "edge": {"target": [], "time": []}}, "mouseover": {"state": {"target": ["9", "11", "10", "12", "5", "7", "6", "8", "6", "3", "2", "4"], "time": [954, 1037, 1495, 1570, 1937, 2178, 2645, 2745, 3086, 3286, 3561, 3604]}, "edge": {"target": [], "time": []}}, "mouseout": {"state": {"target": ["3", "9", "11", "10", "12", "5", "7", "6", "8", "6", "3", "2", "4"], "time": [462, 963, 1454, 1529, 1837, 1962, 2611, 2687, 3053, 3096, 3537, 3586, 3953]}, "edge": {"target": [], "time": []}}}, "displayed_time": "8.92", "trialTime": 10323, "trial_type": "mouselab-mdp", "trial_index": 81, "time_elapsed": 1204835, "internal_node_id": "0.0-4.0-5.0-10.0"}}, {"uniqueid": "w33285777:a75767495", "current_trial": 82, "dateTime": 1664556161857, "trialdata": {"revealed_states": [], "num_clicks_accrued": [0, 0, 0, 0, 0, 0, 0, 0, 0, 0, 0, 0, 0], "stateRewards": ["", 2, 4, -48, 24, -4, -4, -24, 24, 2, -4, 24, -24], "withholdReward": true, "trial_id": "mdp_163600331068", "block": "test3", "trialIndex": 73, "score": 25, "costs": -2, "simulationMode": [null, null, null], "rewards": [2, -4, 24], "path": ["0", "0", "9", "10", "11"], "rt": [6916, 168, 97], "actions": ["left", "left", "up"], "actionTimes": [7803, 8478, 9090], "queries": {"click": {"state": {"target": ["11", "12", "8", "7", "3", "4", "9", "1"], "time": [1271, 1635, 2166, 2764, 3311, 3652, 5319, 6279]}, "edge": {"target": [], "time": []}}, "mouseover": {"state": {"target": ["11", "10", "12", "8", "6", "7", "3", "2", "4", "9", "0", "5", "1", "2", "1"], "time": [1168, 1460, 1527, 2051, 2343, 2676, 3176, 3467, 3534, 5134, 5460, 5518, 5710, 5752, 5985]}, "edge": {"target": [], "time": []}}, "mouseout": {"state": {"target": ["1", "0", "11", "10", "12", "8", "6", "7", "3", "2", "4", "9", "0", "5", "1", "2", "1", "1"], "time": [634, 979, 1434, 1493, 1776, 2310, 2393, 3110, 3443, 3502, 5043, 5435, 5492, 5668, 5726, 5934, 6517, 6809]}, "edge": {"target": [], "time": []}}}, "displayed_time": "9.97", "trialTime": 10868, "trial_type": "mouselab-mdp", "trial_index": 82, "time_elapsed": 1215806, "internal_node_id": "0.0-4.0-5.0-11.0"}}, {"uniqueid": "w33285777:a75767495", "current_trial": 83, "dateTime": 1664556200866, "trialdata": {"revealed_states": [], "num_clicks_accrued": [0, 0, 0, 0, 0, 0, 0, 0, 0, 0, 0, 0, 0], "stateRewards": ["", -2, -4, -24, -48, -2, 8, -48, 24, 4, -4, -24, -24], "withholdReward": true, "trial_id": "mdp_915304165774", "block": "test3", "trialIndex": 74, "score": 33.5, "costs": -1.5, "simulationMode": [null, null, null], "rewards": [-2, 8, 24], "path": ["0", "0", "5", "6", "8"], "rt": [4219, 74, 163], "actions": ["right", "right", "down"], "actionTimes": [33610, 34206, 34875], "queries": {"click": {"state": {"target": ["11", "7", "8", "12", "4", "3"], "time": [29842, 30373, 30695, 31463, 32292, 32627]}, "edge": {"target": [], "time": []}}, "mouseover": {"state": {"target": ["11", "5", "7", "6", "8", "12", "9", "4", "2", "3", "6"], "time": [29578, 30110, 30286, 30553, 