{"condition": 0, "counterbalance": 0, "assignmentId": "a22586622", "workerId": "w39245123", "hitId": "h84451772", "currenttrial": 959, "bonus": 0, "data": [{"uniqueid": "w39245123:a22586622", "current_trial": 0, "dateTime": 1664556083666, "trialdata": {"success": true, "trial_type": "fullscreen", "trial_index": 0, "time_elapsed": 855348, "internal_node_id": "0.0-0.0"}}, {"uniqueid": "w39245123:a22586622", "current_trial": 1, "dateTime": 1664556120851, "trialdata": {"view_history": [{"page_index": 0, "viewing_time": 37179}], "rt": 37179, "trial_id": "exp_instructions_distractor", "trial_type": "instructions", "trial_index": 1, "time_elapsed": 892533, "internal_node_id": "0.0-1.0"}}, {"uniqueid": "w39245123:a22586622", "current_trial": 2, "dateTime": 1664556156351, "trialdata": {"view_history": [{"page_index": 0, "viewing_time": 35498}], "rt": 35498, "trial_id": "color_game_instructions", "trial_type": "instructions", "trial_index": 2, "time_elapsed": 928033, "internal_node_id": "0.0-2.0"}}, {"uniqueid": "w39245123:a22586622", "current_trial": 3, "dateTime": 1664556169593, "trialdata": {"rt": 13239, "stimulus": "<h1> Get ready to start the game! </h1>\n\nThank you for reading the instructions. Get ready start with the first of 5 block(s) of this game.\n<br><br>\nIn this first block, you will complete 90 rounds of this game before moving on.\n<br><br>\nRemember, the better you perform, the bigger your bonus will be!\n<br><br>\n<div style='text-align: center;'>Press <code>space</code> to begin.</div>", "response": " ", "trial_id": "stroop_1_ready_1", "trial_type": "html-keyboard-response", "trial_index": 3, "time_elapsed": 941275, "internal_node_id": "0.0-3.0"}}, {"uniqueid": "w39245123:a22586622", "current_trial": 4, "dateTime": 1664556170931, "trialdata": {"rt": 1334, "stimulus": "<p id='stroop-text' class='stroop-red'>BLUE</p>", "response": "r", "stimulus-type": "incongruent", "word": "blue", "color": "red", "correct_response": "r", "trial_id": "stroop-trial-1-incongruent-28", "trial_type": "html-keyboard-response", "trial_index": 4, "time_elapsed": 942613, "internal_node_id": "0.0-4.0-0.0"}}, {"uniqueid": "w39245123:a22586622", "current_trial": 5, "dateTime": 1664556173234, "trialdata": {"rt": 1801, "stimulus": "<p id='stroop-text' class='stroop-yellow'>MONKEY</p>", "response": "y", "stimulus-type": "unrelated", "word": "MONKEY", "color": "yellow", "correct_response": "y", "trial_id": "stroop-trial-1-unrelated-30", "trial_type": "html-keyboard-response", "trial_index": 5, "time_elapsed": 944916, "internal_node_id": "0.0-4.0-1.0"}}, {"uniqueid": "w39245123:a22586622", "current_trial": 6, "dateTime": 1664556174538, "trialdata": {"rt": 802, "stimulus": "<p id='stroop-text' class='stroop-yellow'>DOG</p>", "response": "y", "stimulus-type": "unrelated", "word": "DOG", "color": "yellow", "correct_response": "y", "trial_id": "stroop-trial-1-unrelated-20", "trial_type": "html-keyboard-response", "trial_index": 6, "time_elapsed": 946220, "internal_node_id": "0.0-4.0-2.0"}}, {"uniqueid": "w39245123:a22586622", "current_trial": 7, "dateTime": 1664556175988, "trialdata": {"rt": 948, "stimulus": "<p id='stroop-text' class='stroop-blue'>BOAT</p>", "response": "b", "stimulus-type": "unrelated", "word": "BOAT", "color": "blue", "correct_response": "b", "trial_id": "stroop-trial-1-unrelated-17", "trial_type": "html-keyboard-response", "trial_index": 7, "time_elapsed": 947670, "internal_node_id": "0.0-4.0-3.0"}}, {"uniqueid": "w39245123:a22586622", "current_trial": 8, "dateTime": 1664556177226, "trialdata": {"rt": 734, "stimulus": "<p id='stroop-text' class='stroop-yellow'>RED</p>", "response": "y", "stimulus-type": "incongruent", "word": "red", "color": "yellow", "correct_response": "y", "trial_id": "stroop-trial-1-incongruent-16", "trial_type": "html-keyboard-response", "trial_index": 8, "time_elapsed": 948908, "internal_node_id": "0.0-4.0-4.0"}}, {"uniqueid": "w39245123:a22586622", "current_trial": 9, "dateTime": 1664556178568, "trialdata": {"rt": 839, "stimulus": "<p id='stroop-text' class='stroop-yellow'>MONKEY</p>", "response": "y", "stimulus-type": "unrelated", "word": "MONKEY", "color": "yellow", "correct_response": "y", "trial_id": "stroop-trial-1-unrelated-7", "trial_type": "html-keyboard-response", "trial_index": 9, "time_elapsed": 950250, "internal_node_id": "0.0-4.0-5.0"}}, {"uniqueid": "w39245123:a22586622", "current_trial": 10, "dateTime": 1664556179591, "trialdata": {"rt": 520, "stimulus": "<p id='stroop-text' class='stroop-yellow'>BRIDGE</p>", "response": "y", "stimulus-type": "unrelated", "word": "BRIDGE", "color": "yellow", "correct_response": "y", "trial_id": "stroop-trial-1-unrelated-28", "trial_type": "html-keyboard-response", "trial_index": 10, "time_elapsed": 951273, "internal_node_id": "0.0-4.0-6.0"}}, {"uniqueid": "w39245123:a22586622", "current_trial": 11, "dateTime": 1664556180630, "trialdata": {"rt": 535, "stimulus": "<p id='stroop-text' class='stroop-yellow'>SHIP</p>", "response": "y", "stimulus-type": "unrelated", "word": "SHIP", "color": "yellow", "correct_response": "y", "trial_id": "stroop-trial-1-unrelated-10", "trial_type": "html-keyboard-response", "trial_index": 11, "time_elapsed": 952312, "internal_node_id": "0.0-4.0-7.0"}}, {"uniqueid": "w39245123:a22586622", "current_trial": 12, "dateTime": 1664556181893, "trialdata": {"rt": 761, "stimulus": "<p id='stroop-text' class='stroop-red'>YELLOW</p>", "response": "r", "stimulus-type": "incongruent", "word": "yellow", "color": "red", "correct_response": "r", "trial_id": "stroop-trial-1-incongruent-1", "trial_type": "html-keyboard-response", "trial_index": 12, "time_elapsed": 953575, "internal_node_id": "0.0-4.0-8.0"}}, {"uniqueid": "w39245123:a22586622", "current_trial": 13, "dateTime": 1664556183534, "trialdata": {"rt": 1125, "stimulus": "<p id='stroop-text' class='stroop-blue'>RED</p>", "response": "b", "stimulus-type": "incongruent", "word": "red", "color": "blue", "correct_response": "b", "trial_id": "stroop-trial-1-incongruent-25", "trial_type": "html-keyboard-response", "trial_index": 13, "time_elapsed": 955216, "internal_node_id": "0.0-4.0-9.0"}}, {"uniqueid": "w39245123:a22586622", "current_trial": 14, "dateTime": 1664556185527, "trialdata": {"rt": 1491, "stimulus": "<p id='stroop-text' class='stroop-green'>RED</p>", "response": "g", "stimulus-type": "incongruent", "word": "red", "color": "green", "correct_response": "g", "trial_id": "stroop-trial-1-incongruent-4", "trial_type": "html-keyboard-response", "trial_index": 14, "time_elapsed": 957209, "internal_node_id": "0.0-4.0-10.0"}}, {"uniqueid": "w39245123:a22586622", "current_trial": 15, "dateTime": 1664556187266, "trialdata": {"rt": 1236, "stimulus": "<p id='stroop-text' class='stroop-blue'>BRAIN</p>", "response": "b", "stimulus-type": "unrelated", "word": "BRAIN", "color": "blue", "correct_response": "b", "trial_id": "stroop-trial-1-unrelated-14", "trial_type": "html-keyboard-response", "trial_index": 15, "time_elapsed": 958948, "internal_node_id": "0.0-4.0-11.0"}}, {"uniqueid": "w39245123:a22586622", "current_trial": 16, "dateTime": 1664556188337, "trialdata": {"rt": 570, "stimulus": "<p id='stroop-text' class='stroop-blue'>RED</p>", "response": "b", "stimulus-type": "incongruent", "word": "red", "color": "blue", "correct_response": "b", "trial_id": "stroop-trial-1-incongruent-10", "trial_type": "html-keyboard-response", "trial_index": 16, "time_elapsed": 960019, "internal_node_id": "0.0-4.0-12.0"}}, {"uniqueid": "w39245123:a22586622", "current_trial": 17, "dateTime": 1664556189636, "trialdata": {"rt": 796, "stimulus": "<p id='stroop-text' class='stroop-red'>BLUE</p>", "response": "r", "stimulus-type": "incongruent", "word": "blue", "color": "red", "correct_response": "r", "trial_id": "stroop-trial-1-incongruent-29", "trial_type": "html-keyboard-response", "trial_index": 17, "time_elapsed": 961318, "internal_node_id": "0.0-4.0-13.0"}}, {"uniqueid": "w39245123:a22586622", "current_trial": 18, "dateTime": 1664556190959, "trialdata": {"rt": 820, "stimulus": "<p id='stroop-text' class='stroop-yellow'>BOAT</p>", "response": "y", "stimulus-type": "unrelated", "word": "BOAT", "color": "yellow", "correct_response": "y", "trial_id": "stroop-trial-1-unrelated-5", "trial_type": "html-keyboard-response", "trial_index": 18, "time_elapsed": 962640, "internal_node_id": "0.0-4.0-14.0"}}, {"uniqueid": "w39245123:a22586622", "current_trial": 19, "dateTime": 1664556192447, "trialdata": {"rt": 985, "stimulus": "<p id='stroop-text' class='stroop-green'>GREEN</p>", "response": "g", "stimulus-type": "congruent", "word": "green", "color": "green", "correct_response": "g", "trial_id": "stroop-trial-1-congruent-17", "trial_type": "html-keyboard-response", "trial_index": 19, "time_elapsed": 964129, "internal_node_id": "0.0-4.0-15.0"}}, {"uniqueid": "w39245123:a22586622", "current_trial": 20, "dateTime": 1664556194056, "trialdata": {"rt": 1106, "stimulus": "<p id='stroop-text' class='stroop-red'>BLUE</p>", "response": "r", "stimulus-type": "incongruent", "word": "blue", "color": "red", "correct_response": "r", "trial_id": "stroop-trial-1-incongruent-27", "trial_type": "html-keyboard-response", "trial_index": 20, "time_elapsed": 965738, "internal_node_id": "0.0-4.0-16.0"}}, {"uniqueid": "w39245123:a22586622", "current_trial": 21, "dateTime": 1664556195211, "trialdata": {"rt": 654, "stimulus": "<p id='stroop-text' class='stroop-red'>BRAIN</p>", "response": "r", "stimulus-type": "unrelated", "word": "BRAIN", "color": "red", "correct_response": "r", "trial_id": "stroop-trial-1-unrelated-13", "trial_type": "html-keyboard-response", "trial_index": 21, "time_elapsed": 966893, "internal_node_id": "0.0-4.0-17.0"}}, {"uniqueid": "w39245123:a22586622", "current_trial": 22, "dateTime": 1664556196395, "trialdata": {"rt": 680, "stimulus": "<p id='stroop-text' class='stroop-green'>GREEN</p>", "response": "g", "stimulus-type": "congruent", "word": "green", "color": "green", "correct_response": "g", "trial_id": "stroop-trial-1-congruent-19", "trial_type": "html-keyboard-response", "trial_index": 22, "time_elapsed": 968076, "internal_node_id": "0.0-4.0-18.0"}}, {"uniqueid": "w39245123:a22586622", "current_trial": 23, "dateTime": 1664556197554, "trialdata": {"rt": 657, "stimulus": "<p id='stroop-text' class='stroop-blue'>YELLOW</p>", "response": "b", "stimulus-type": "incongruent", "word": "yellow", "color": "blue", "correct_response": "b", "trial_id": "stroop-trial-1-incongruent-23", "trial_type": "html-keyboard-response", "trial_index": 23, "time_elapsed": 969236, "internal_node_id": "0.0-4.0-19.0"}}, {"uniqueid": "w39245123:a22586622", "current_trial": 24, "dateTime": 1664556198668, "trialdata": {"rt": 611, "stimulus": "<p id='stroop-text' class='stroop-yellow'>YELLOW</p>", "response": "y", "stimulus-type": "congruent", "word": "yellow", "color": "yellow", "correct_response": "y", "trial_id": "stroop-trial-1-congruent-25", "trial_type": "html-keyboard-response", "trial_index": 24, "time_elapsed": 970350, "internal_node_id": "0.0-4.0-20.0"}}, {"uniqueid": "w39245123:a22586622", "current_trial": 25, "dateTime": 1664556201087, "trialdata": {"rt": 1917, "stimulus": "<p id='stroop-text' class='stroop-blue'>BLUE</p>", "response": "b", "stimulus-type": "congruent", "word": "blue", "color": "blue", "correct_response": "b", "trial_id": "stroop-trial-1-congruent-4", "trial_type": "html-keyboard-response", "trial_index": 25, "time_elapsed": 972769, "internal_node_id": "0.0-4.0-21.0"}}, {"uniqueid": "w39245123:a22586622", "current_trial": 26, "dateTime": 1664556202299, "trialdata": {"rt": 710, "stimulus": "<p id='stroop-text' class='stroop-red'>WINDOW</p>", "response": "r", "stimulus-type": "unrelated", "word": "WINDOW", "color": "red", "correct_response": "r", "trial_id": "stroop-trial-1-unrelated-15", "trial_type": "html-keyboard-response", "trial_index": 26, "time_elapsed": 973981, "internal_node_id": "0.0-4.0-22.0"}}, {"uniqueid": "w39245123:a22586622", "current_trial": 27, "dateTime": 1664556203656, "trialdata": {"rt": 854, "stimulus": "<p id='stroop-text' class='stroop-yellow'>BOAT</p>", "response": "y", "stimulus-type": "unrelated", "word": "BOAT", "color": "yellow", "correct_response": "y", "trial_id": "stroop-trial-1-unrelated-12", "trial_type": "html-keyboard-response", "trial_index": 27, "time_elapsed": 975338, "internal_node_id": "0.0-4.0-23.0"}}, {"uniqueid": "w39245123:a22586622", "current_trial": 28, "dateTime": 1664556205866, "trialdata": {"rt": 1708, "stimulus": "<p id='stroop-text' class='stroop-red'>FORK</p>", "response": "r", "stimulus-type": "unrelated", "word": "FORK", "color": "red", "correct_response": "r", "trial_id": "stroop-trial-1-unrelated-9", "trial_type": "html-keyboard-response", "trial_index": 28, "time_elapsed": 977548, "internal_node_id": "0.0-4.0-24.0"}}, {"uniqueid": "w39245123:a22586622", "current_trial": 29, "dateTime": 1664556207074, "trialdata": {"rt": 704, "stimulus": "<p id='stroop-text' class='stroop-yellow'>GREEN</p>", "response": "y", "stimulus-type": "incongruent", "word": "green", "color": "yellow", "correct_response": "y", "trial_id": "stroop-trial-1-incongruent-19", "trial_type": "html-keyboard-response", "trial_index": 29, "time_elapsed": 978756, "internal_node_id": "0.0-4.0-25.0"}}, {"uniqueid": "w39245123:a22586622", "current_trial": 30, "dateTime": 1664556208222, "trialdata": {"rt": 646, "stimulus": "<p id='stroop-text' class='stroop-blue'>BLUE</p>", "response": "b", "stimulus-type": "congruent", "word": "blue", "color": "blue", "correct_response": "b", "trial_id": "stroop-trial-1-congruent-14", "trial_type": "html-keyboard-response", "trial_index": 30, "time_elapsed": 979904, "internal_node_id": "0.0-4.0-26.0"}}, {"uniqueid": "w39245123:a22586622", "current_trial": 31, "dateTime": 1664556209688, "trialdata": {"rt": 957, "stimulus": "<p id='stroop-text' class='stroop-blue'>YELLOW</p>", "response": "b", "stimulus-type": "incongruent", "word": "yellow", "color": "blue", "correct_response": "b", "trial_id": "stroop-trial-1-incongruent-9", "trial_type": "html-keyboard-response", "trial_index": 31, "time_elapsed": 981369, "internal_node_id": "0.0-4.0-27.0"}}, {"uniqueid": "w39245123:a22586622", "current_trial": 32, "dateTime": 1664556210864, "trialdata": {"rt": 674, "stimulus": "<p id='stroop-text' class='stroop-green'>GREEN</p>", "response": "g", "stimulus-type": "congruent", "word": "green", "color": "green", "correct_response": "g", "trial_id": "stroop-trial-1-congruent-23", "trial_type": "html-keyboard-response", "trial_index": 32, "time_elapsed": 982546, "internal_node_id": "0.0-4.0-28.0"}}, {"uniqueid": "w39245123:a22586622", "current_trial": 33, "dateTime": 1664556212006, "trialdata": {"rt": 639, "stimulus": "<p id='stroop-text' class='stroop-blue'>BLUE</p>", "response": "b", "stimulus-type": "congruent", "word": "blue", "color": "blue", "correct_response": "b", "trial_id": "stroop-trial-1-congruent-9", "trial_type": "html-keyboard-response", "trial_index": 33, "time_elapsed": 983688, "internal_node_id": "0.0-4.0-29.0"}}, {"uniqueid": "w39245123:a22586622", "current_trial": 34, "dateTime": 1664556213163, "trialdata": {"rt": 654, "stimulus": "<p id='stroop-text' class='stroop-blue'>GREEN</p>", "response": "b", "stimulus-type": "incongruent", "word": "green", "color": "blue", "correct_response": "b", "trial_id": "stroop-trial-1-incongruent-22", "trial_type": "html-keyboard-response", "trial_index": 34, "time_elapsed": 984845, "internal_node_id": "0.0-4.0-30.0"}}, {"uniqueid": "w39245123:a22586622", "current_trial": 35, "dateTime": 1664556214127, "trialdata": {"rt": 455, "stimulus": "<p id='stroop-text' class='stroop-blue'>MONKEY</p>", "response": "b", "stimulus-type": "unrelated", "word": "MONKEY", "color": "blue", "correct_response": "b", "trial_id": "stroop-trial-1-unrelated-24", "trial_type": "html-keyboard-response", "trial_index": 35, "time_elapsed": 985809, "internal_node_id": "0.0-4.0-31.0"}}, {"uniqueid": "w39245123:a22586622", "current_trial": 36, "dateTime": 1664556215176, "trialdata": {"rt": 545, "stimulus": "<p id='stroop-text' class='stroop-red'>CHAIR</p>", "response": "y", "stimulus-type": "unrelated", "word": "CHAIR", "color": "red", "correct_response": "r", "trial_id": "stroop-trial-1-unrelated-8", "trial_type": "html-keyboard-response", "trial_index": 36, "time_elapsed": 986858, "internal_node_id": "0.0-4.0-32.0"}}, {"uniqueid": "w39245123:a22586622", "current_trial": 37, "dateTime": 1664556216393, "trialdata": {"rt": 714, "stimulus": "<p id='stroop-text' class='stroop-red'>RED</p>", "response": "r", "stimulus-type": "congruent", "word": "red", "color": "red", "correct_response": "r", "trial_id": "stroop-trial-1-congruent-11", "trial_type": "html-keyboard-response", "trial_index": 37, "time_elapsed": 988075, "internal_node_id": "0.0-4.0-33.0"}}, {"uniqueid": "w39245123:a22586622", "current_trial": 38, "dateTime": 1664556217325, "trialdata": {"rt": 428, "stimulus": "<p id='stroop-text' class='stroop-red'>RED</p>", "response": "r", "stimulus-type": "congruent", "word": "red", "color": "red", "correct_response": "r", "trial_id": "stroop-trial-1-congruent-28", "trial_type": "html-keyboard-response", "trial_index": 38, "time_elapsed": 989006, "internal_node_id": "0.0-4.0-34.0"}}, {"uniqueid": "w39245123:a22586622", "current_trial": 39, "dateTime": 1664556218447, "trialdata": {"rt": 620, "stimulus": "<p id='stroop-text' class='stroop-yellow'>CHAIR</p>", "response": "y", "stimulus-type": "unrelated", "word": "CHAIR", "color": "yellow", "correct_response": "y", "trial_id": "stroop-trial-1-unrelated-4", "trial_type": "html-keyboard-response", "trial_index": 39, "time_elapsed": 990129, "internal_node_id": "0.0-4.0-35.0"}}, {"uniqueid": "w39245123:a22586622", "current_trial": 40, "dateTime": 1664556219625, "trialdata": {"rt": 674, "stimulus": "<p id='stroop-text' class='stroop-blue'>MONKEY</p>", "response": "b", "stimulus-type": "unrelated", "word": "MONKEY", "color": "blue", "correct_response": "b", "trial_id": "stroop-trial-1-unrelated-16", "trial_type": "html-keyboard-response", "trial_index": 40, "time_elapsed": 991307, "internal_node_id": "0.0-4.0-36.0"}}, {"uniqueid": "w39245123:a22586622", "current_trial": 41, "dateTime": 1664556220806, "trialdata": {"rt": 680, "stimulus": "<p id='stroop-text' class='stroop-red'>DOG</p>", "response": "r", "stimulus-type": "unrelated", "word": "DOG", "color": "red", "correct_response": "r", "trial_id": "stroop-trial-1-unrelated-26", "trial_type": "html-keyboard-response", "trial_index": 41, "time_elapsed": 992488, "internal_node_id": "0.0-4.0-37.0"}}, {"uniqueid": "w39245123:a22586622", "current_trial": 42, "dateTime": 1664556222034, "trialdata": {"rt": 726, "stimulus": "<p id='stroop-text' class='stroop-blue'>BLUE</p>", "response": "b", "stimulus-type": "congruent", "word": "blue", "color": "blue", "correct_response": "b", "trial_id": "stroop-trial-1-congruent-15", "trial_type": "html-keyboard-response", "trial_index": 42, "time_elapsed": 993716, "internal_node_id": "0.0-4.0-38.0"}}, {"uniqueid": "w39245123:a22586622", "current_trial": 43, "dateTime": 1664556223087, "trialdata": {"rt": 551, "stimulus": "<p id='stroop-text' class='stroop-green'>BRAIN</p>", "response": "g", "stimulus-type": "unrelated", "word": "BRAIN", "color": "green", "correct_response": "g", "trial_id": "stroop-trial-1-unrelated-27", "trial_type": "html-keyboard-response", "trial_index": 43, "time_elapsed": 994769, "internal_node_id": "0.0-4.0-39.0"}}, {"uniqueid": "w39245123:a22586622", "current_trial": 44, "dateTime": 1664556224214, "trialdata": {"rt": 624, "stimulus": "<p id='stroop-text' class='stroop-green'>GREEN</p>", "response": "g", "stimulus-type": "congruent", "word": "green", "color": "green", "correct_response": "g", "trial_id": "stroop-trial-1-congruent-8", "trial_type": "html-keyboard-response", "trial_index": 44, "time_elapsed": 995896, "internal_node_id": "0.0-4.0-40.0"}}, {"uniqueid": "w39245123:a22586622", "current_trial": 45, "dateTime": 1664556225615, "trialdata": {"rt": 896, "stimulus": "<p id='stroop-text' class='stroop-red'>GREEN</p>", "response": "r", "stimulus-type": "incongruent", "word": "green", "color": "red", "correct_response": "r", "trial_id": "stroop-trial-1-incongruent-8", "trial_type": "html-keyboard-response", "trial_index": 45, "time_elapsed": 997296, "internal_node_id": "0.0-4.0-41.0"}}, {"uniqueid": "w39245123:a22586622", "current_trial": 46, "dateTime": 1664556226823, "trialdata": {"rt": 704, "stimulus": "<p id='stroop-text' class='stroop-green'>BLUE</p>", "response": "b", "stimulus-type": "incongruent", "word": "blue", "color": "green", "correct_response": "g", "trial_id": "stroop-trial-1-incongruent-7", "trial_type": "html-keyboard-response", "trial_index": 46, "time_elapsed": 998505, "internal_node_id": "0.0-4.0-42.0"}}, {"uniqueid": "w39245123:a22586622", "current_trial": 47, "dateTime": 1664556229098, "trialdata": {"rt": 1762, "stimulus": "<p id='stroop-text' class='stroop-red'>GREEN</p>", "response": "r", "stimulus-type": "incongruent", "word": "green", "color": "red", "correct_response": "r", "trial_id": "stroop-trial-1-incongruent-26", "trial_type": "html-keyboard-response", "trial_index": 47, "time_elapsed": 1000780, "internal_node_id": "0.0-4.0-43.0"}}, {"uniqueid": "w39245123:a22586622", "current_trial": 48, "dateTime": 1664556230352, "trialdata": {"rt": 751, "stimulus": "<p id='stroop-text' class='stroop-green'>GREEN</p>", "response": "g", "stimulus-type": "congruent", "word": "green", "color": "green", "correct_response": "g", "trial_id": "stroop-trial-1-congruent-30", "trial_type": "html-keyboard-response", "trial_index": 48, "time_elapsed": 1002033, "internal_node_id": "0.0-4.0-44.0"}}, {"uniqueid": "w39245123:a22586622", "current_trial": 49, "dateTime": 1664556231636, "trialdata": {"rt": 781, "stimulus": "<p id='stroop-text' class='stroop-blue'>BLUE</p>", "response": "b", "stimulus-type": "congruent", "word": "blue", "color": "blue", "correct_response": "b", "trial_id": "stroop-trial-1-congruent-13", "trial_type": "html-keyboard-response", "trial_index": 49, "time_elapsed": 1003317, "internal_node_id": "0.0-4.0-45.0"}}, {"uniqueid": "w39245123:a22586622", "current_trial": 50, "dateTime": 1664556232922, "trialdata": {"rt": 784, "stimulus": "<p id='stroop-text' class='stroop-green'>CHAIR</p>", "response": "g", "stimulus-type": "unrelated", "word": "CHAIR", "color": "green", "correct_response": "g", "trial_id": "stroop-trial-1-unrelated-6", "trial_type": "html-keyboard-response", "trial_index": 50, "time_elapsed": 1004604, "internal_node_id": "0.0-4.0-46.0"}}, {"uniqueid": "w39245123:a22586622", "current_trial": 51, "dateTime": 1664556234129, "trialdata": {"rt": 706, "stimulus": "<p id='stroop-text' class='stroop-blue'>BLUE</p>", "response": "b", "stimulus-type": "congruent", "word": "blue", "color": "blue", "correct_response": "b", "trial_id": "stroop-trial-1-congruent-24", "trial_type": "html-keyboard-response", "trial_index": 51, "time_elapsed": 1005811, "internal_node_id": "0.0-4.0-47.0"}}, {"uniqueid": "w39245123:a22586622", "current_trial": 52, "dateTime": 1664556235311, "trialdata": {"rt": 678, "stimulus": "<p id='stroop-text' class='stroop-green'>GREEN</p>", "response": "g", "stimulus-type": "congruent", "word": "green", "color": "green", "correct_response": "g", "trial_id": "stroop-trial-1-congruent-12", "trial_type": "html-keyboard-response", "trial_index": 52, "time_elapsed": 1006993, "internal_node_id": "0.0-4.0-48.0"}}, {"uniqueid": "w39245123:a22586622", "current_trial": 53, "dateTime": 1664556236291, "trialdata": {"rt": 477, "stimulus": "<p id='stroop-text' class='stroop-blue'>BLUE</p>", "response": "b", "stimulus-type": "congruent", "word": "blue", "color": "blue", "correct_response": "b", "trial_id": "stroop-trial-1-congruent-27", "trial_type": "html-keyboard-response", "trial_index": 53, "time_elapsed": 1007972, "internal_node_id": "0.0-4.0-49.0"}}, {"uniqueid": "w39245123:a22586622", "current_trial": 54, "dateTime": 1664556237449, "trialdata": {"rt": 655, "stimulus": "<p id='stroop-text' class='stroop-yellow'>YELLOW</p>", "response": "y", "stimulus-type": "congruent", "word": "yellow", "color": "yellow", "correct_response": "y", "trial_id": "stroop-trial-1-congruent-2", "trial_type": "html-keyboard-response", "trial_index": 54, "time_elapsed": 1009130, "internal_node_id": "0.0-4.0-50.0"}}, {"uniqueid": "w39245123:a22586622", "current_trial": 55, "dateTime": 1664556238697, "trialdata": {"rt": 745, "stimulus": "<p id='stroop-text' class='stroop-yellow'>BRAIN</p>", "response": "y", "stimulus-type": "unrelated", "word": "BRAIN", "color": "yellow", "correct_response": "y", "trial_id": "stroop-trial-1-unrelated-18", "trial_type": "html-keyboard-response", "trial_index": 55, "time_elapsed": 1010377, "internal_node_id": "0.0-4.0-51.0"}}, {"uniqueid": "w39245123:a22586622", "current_trial": 56, "dateTime": 1664556239956, "trialdata": {"rt": 756, "stimulus": "<p id='stroop-text' class='stroop-red'>YELLOW</p>", "response": "r", "stimulus-type": "incongruent", "word": "yellow", "color": "red", "correct_response": "r", "trial_id": "stroop-trial-1-incongruent-30", "trial_type": "html-keyboard-response", "trial_index": 56, "time_elapsed": 1011638, "internal_node_id": "0.0-4.0-52.0"}}, {"uniqueid": "w39245123:a22586622", "current_trial": 57, "dateTime": 1664556241203, "trialdata": {"rt": 745, "stimulus": "<p id='stroop-text' class='stroop-green'>YELLOW</p>", "response": "g", "stimulus-type": "incongruent", "word": "yellow", "color": "green", "correct_response": "g", "trial_id": "stroop-trial-1-incongruent-15", "trial_type": "html-keyboard-response", "trial_index": 57, "time_elapsed": 1012885, "internal_node_id": "0.0-4.0-53.0"}}, {"uniqueid": "w39245123:a22586622", "current_trial": 58, "dateTime": 1664556242483, "trialdata": {"rt": 777, "stimulus": "<p id='stroop-text' class='stroop-blue'>WINDOW</p>", "response": "b", "stimulus-type": "unrelated", "word": "WINDOW", "color": "blue", "correct_response": "b", "trial_id": "stroop-trial-1-unrelated-2", "trial_type": "html-keyboard-response", "trial_index": 58, "time_elapsed": 1014164, "internal_node_id": "0.0-4.0-54.0"}}, {"uniqueid": "w39245123:a22586622", "current_trial": 59, "dateTime": 1664556244117, "trialdata": {"rt": 1118, "stimulus": "<p id='stroop-text' class='stroop-yellow'>RED</p>", "response": "y", "stimulus-type": "incongruent", "word": "red", "color": "yellow", "correct_response": "y", "trial_id": "stroop-trial-1-incongruent-2", "trial_type": "html-keyboard-response", "trial_index": 59, "time_elapsed": 1015798, "internal_node_id": "0.0-4.0-55.0"}}, {"uniqueid": "w39245123:a22586622", "current_trial": 60, "dateTime": 1664556245376, "trialdata": {"rt": 755, "stimulus": "<p id='stroop-text' class='stroop-green'>YELLOW</p>", "response": "g", "stimulus-type": "incongruent", "word": "yellow", "color": "green", "correct_response": "g", "trial_id": "stroop-trial-1-incongruent-24", "trial_type": "html-keyboard-response", "trial_index": 60, "time_elapsed": 1017058, "internal_node_id": "0.0-4.0-56.0"}}, {"uniqueid": "w39245123:a22586622", "current_trial": 61, "dateTime": 1664556246480, "trialdata": {"rt": 601, "stimulus": "<p id='stroop-text' class='stroop-yellow'>BRAIN</p>", "response": "y", "stimulus-type": "unrelated", "word": "BRAIN", "color": "yellow", "correct_response": "y", "trial_id": "stroop-trial-1-unrelated-29", "trial_type": "html-keyboard-response", "trial_index": 61, "time_elapsed": 1018161, "internal_node_id": "0.0-4.0-57.0"}}, {"uniqueid": "w39245123:a22586622", "current_trial": 62, "dateTime": 1664556247551, "trialdata": {"rt": 567, "stimulus": "<p id='stroop-text' class='stroop-yellow'>MONKEY</p>", "response": "y", "stimulus-type": "unrelated", "word": "MONKEY", "color": "yellow", "correct_response": "y", "trial_id": "stroop-trial-1-unrelated-23", "trial_type": "html-keyboard-response", "trial_index": 62, "time_elapsed": 1019233, "internal_node_id": "0.0-4.0-58.0"}}, {"uniqueid": "w39245123:a22586622", "current_trial": 63, "dateTime": 1664556248675, "trialdata": {"rt": 618, "stimulus": "<p id='stroop-text' class='stroop-red'>RED</p>", "response": "r", "stimulus-type": "congruent", "word": "red", "color": "red", "correct_response": "r", "trial_id": "stroop-trial-1-congruent-5", "trial_type": "html-keyboard-response", "trial_index": 63, "time_elapsed": 1020356, "internal_node_id": "0.0-4.0-59.0"}}, {"uniqueid": "w39245123:a22586622", "current_trial": 64, "dateTime": 1664556249826, "trialdata": {"rt": 650, "stimulus": "<p id='stroop-text' class='stroop-green'>BLUE</p>", "response": "g", "stimulus-type": "incongruent", "word": "blue", "color": "green", "correct_response": "g", "trial_id": "stroop-trial-1-incongruent-3", "trial_type": "html-keyboard-response", "trial_index": 64, "time_elapsed": 1021508, "internal_node_id": "0.0-4.0-60.0"}}, {"uniqueid": "w39245123:a22586622", "current_trial": 65, "dateTime": 1664556251129, "trialdata": {"rt": 801, "stimulus": "<p id='stroop-text' class='stroop-red'>YELLOW</p>", "response": "r", "stimulus-type": "incongruent", "word": "yellow", "color": "red", "correct_response": "r", "trial_id": "stroop-trial-1-incongruent-6", "trial_type": "html-keyboard-response", "trial_index": 65, "time_elapsed": 1022811, "internal_node_id": "0.0-4.0-61.0"}}, {"uniqueid": "w39245123:a22586622", "current_trial": 66, "dateTime": 1664556252251, "trialdata": {"rt": 617, "stimulus": "<p id='stroop-text' class='stroop-blue'>BRIDGE</p>", "response": "b", "stimulus-type": "unrelated", "word": "BRIDGE", "color": "blue", "correct_response": "b", "trial_id": "stroop-trial-1-unrelated-25", "trial_type": "html-keyboard-response", "trial_index": 66, "time_elapsed": 1023932, "internal_node_id": "0.0-4.0-62.0"}}, {"uniqueid": "w39245123:a22586622", "current_trial": 67, "dateTime": 1664556253466, "trialdata": {"rt": 711, "stimulus": "<p id='stroop-text' class='stroop-blue'>BLUE</p>", "response": "b", "stimulus-type": "congruent", "word": "blue", "color": "blue", "correct_response": "b", "trial_id": "stroop-trial-1-congruent-29", "trial_type": "html-keyboard-response", "trial_index": 67, "time_elapsed": 1025148, "internal_node_id": "0.0-4.0-63.0"}}, {"uniqueid": "w39245123:a22586622", "current_trial": 68, "dateTime": 1664556254620, "trialdata": {"rt": 650, "stimulus": "<p id='stroop-text' class='stroop-yellow'>YELLOW</p>", "response": "y", "stimulus-type": "congruent", "word": "yellow", "color": "yellow", "correct_response": "y", "trial_id": "stroop-trial-1-congruent-1", "trial_type": "html-keyboard-response", "trial_index": 68, "time_elapsed": 1026302, "internal_node_id": "0.0-4.0-64.0"}}, {"uniqueid": "w39245123:a22586622", "current_trial": 69, "dateTime": 1664556255791, "trialdata": {"rt": 669, "stimulus": "<p id='stroop-text' class='stroop-blue'>BLUE</p>", "response": "y", "stimulus-type": "congruent", "word": "blue", "color": "blue", "correct_response": "b", "trial_id": "stroop-trial-1-congruent-6", "trial_type": "html-keyboard-response", "trial_index": 69, "time_elapsed": 1027472, "internal_node_id": "0.0-4.0-65.0"}}, {"uniqueid": "w39245123:a22586622", "current_trial": 70, "dateTime": 1664556257050, "trialdata": {"rt": 755, "stimulus": "<p id='stroop-text' class='stroop-red'>RED</p>", "response": "r", "stimulus-type": "congruent", "word": "red", "color": "red", "correct_response": "r", "trial_id": "stroop-trial-1-congruent-16", "trial_type": "html-keyboard-response", "trial_index": 70, "time_elapsed": 1028731, "internal_node_id": "0.0-4.0-66.0"}}, {"uniqueid": "w39245123:a22586622", "current_trial": 71, "dateTime": 1664556258310, "trialdata": {"rt": 757, "stimulus": "<p id='stroop-text' class='stroop-green'>GREEN</p>", "response": "g", "stimulus-type": "congruent", "word": "green", "color": "green", "correct_response": "g", "trial_id": "stroop-trial-1-congruent-21", "trial_type": "html-keyboard-response", "trial_index": 71, "time_elapsed": 1029991, "internal_node_id": "0.0-4.0-67.0"}}, {"uniqueid": "w39245123:a22586622", "current_trial": 72, "dateTime": 1664556259929, "trialdata": {"rt": 1116, "stimulus": "<p id='stroop-text' class='stroop-yellow'>RED</p>", "response": "y", "stimulus-type": "incongruent", "word": "red", "color": "yellow", "correct_response": "y", "trial_id": "stroop-trial-1-incongruent-18", "trial_type": "html-keyboard-response", "trial_index": 72, "time_elapsed": 1031610, "internal_node_id": "0.0-4.0-68.0"}}, {"uniqueid": "w39245123:a22586622", "current_trial": 73, "dateTime": 1664556261125, "trialdata": {"rt": 693, "stimulus": "<p id='stroop-text' class='stroop-blue'>BLUE</p>", "response": "b", "stimulus-type": "congruent", "word": "blue", "color": "blue", "correct_response": "b", "trial_id": "stroop-trial-1-congruent-20", "trial_type": "html-keyboard-response", "trial_index": 73, "time_elapsed": 1032807, "internal_node_id": "0.0-4.0-69.0"}}, {"uniqueid": "w39245123:a22586622", "current_trial": 74, "dateTime": 1664556262373, "trialdata": {"rt": 745, "stimulus": "<p id='stroop-text' class='stroop-red'>RED</p>", "response": "r", "stimulus-type": "congruent", "word": "red", "color": "red", "correct_response": "r", "trial_id": "stroop-trial-1-congruent-22", "trial_type": "html-keyboard-response", "trial_index": 74, "time_elapsed": 1034055, "internal_node_id": "0.0-4.0-70.0"}}, {"uniqueid": "w39245123:a22586622", "current_trial": 75, "dateTime": 1664556263573, "trialdata": {"rt": 696, "stimulus": "<p id='stroop-text' class='stroop-green'>BLUE</p>", "response": "g", "stimulus-type": "incongruent", "word": "blue", "color": "green", "correct_response": "g", "trial_id": "stroop-trial-1-incongruent-14", "trial_type": "html-keyboard-response", "trial_index": 75, "time_elapsed": 1035254, "internal_node_id": "0.0-4.0-71.0"}}, {"uniqueid": "w39245123:a22586622", "current_trial": 76, "dateTime": 1664556264952, "trialdata": {"rt": 876, "stimulus": "<p id='stroop-text' class='stroop-red'>BLUE</p>", "response": "r", "stimulus-type": "incongruent", "word": "blue", "color": "red", "correct_response": "r", "trial_id": "stroop-trial-1-incongruent-13", "trial_type": "html-keyboard-response", "trial_index": 76, "time_elapsed": 1036634, "internal_node_id": "0.0-4.0-72.0"}}, {"uniqueid": "w39245123:a22586622", "current_trial": 77, "dateTime": 1664556266313, "trialdata": {"rt": 858, "stimulus": "<p id='stroop-text' class='stroop-red'>YELLOW</p>", "response": "r", "stimulus-type": "incongruent", "word": "yellow", "color": "red", "correct_response": "r", "trial_id": "stroop-trial-1-incongruent-20", "trial_type": "html-keyboard-response", "trial_index": 77, "time_elapsed": 1037995, "internal_node_id": "0.0-4.0-73.0"}}, {"uniqueid": "w39245123:a22586622", "current_trial": 78, "dateTime": 1664556267813, "trialdata": {"rt": 998, "stimulus": "<p id='stroop-text' class='stroop-yellow'>YELLOW</p>", "response": "y", "stimulus-type": "congruent", "word": "yellow", "color": "yellow", "correct_response": "y", "trial_id": "stroop-trial-1-congruent-18", "trial_type": "html-keyboard-response", "trial_index": 78, "time_elapsed": 1039495, "internal_node_id": "0.0-4.0-74.0"}}, {"uniqueid": "w39245123:a22586622", "current_trial": 79, "dateTime": 1664556268894, "trialdata": {"rt": 567, "stimulus": "<p id='stroop-text' class='stroop-yellow'>YELLOW</p>", "response": "y", "stimulus-type": "congruent", "word": "yellow", "color": "yellow", "correct_response": "y", "trial_id": "stroop-trial-1-congruent-10", "trial_type": "html-keyboard-response", "trial_index": 79, "time_elapsed": 1040576, "internal_node_id": "0.0-4.0-75.0"}}, {"uniqueid": "w39245123:a22586622", "current_trial": 80, "dateTime": 1664556270088, "trialdata": {"rt": 691, "stimulus": "<p id='stroop-text' class='stroop-red'>BOTTLE</p>", "response": "r", "stimulus-type": "unrelated", "word": "BOTTLE", "color": "red", "correct_response": "r", "trial_id": "stroop-trial-1-unrelated-3", "trial_type": "html-keyboard-response", "trial_index": 80, "time_elapsed": 1041769, "internal_node_id": "0.0-4.0-76.0"}}, {"uniqueid": "w39245123:a22586622", "current_trial": 81, "dateTime": 1664556271255, "trialdata": {"rt": 664, "stimulus": "<p id='stroop-text' class='stroop-green'>YELLOW</p>", "response": "g", "stimulus-type": "incongruent", "word": "yellow", "color": "green", "correct_response": "g", "trial_id": "stroop-trial-1-incongruent-21", "trial_type": "html-keyboard-response", "trial_index": 81, "time_elapsed": 1042937, "internal_node_id": "0.0-4.0-77.0"}}, {"uniqueid": "w39245123:a22586622", "current_trial": 82, "dateTime": 1664556272340, "trialdata": {"rt": 580, "stimulus": "<p id='stroop-text' class='stroop-green'>GREEN</p>", "response": "g", "stimulus-type": "congruent", "word": "green", "color": "green", "correct_response": "g", "trial_id": "stroop-trial-1-congruent-3", "trial_type": "html-keyboard-response", "trial_index": 82, "time_elapsed": 1044021, "internal_node_id": "0.0-4.0-78.0"}}, {"uniqueid": "w39245123:a22586622", "current_trial": 83, "dateTime": 1664556273878, "trialdata": {"rt": 1035, "stimulus": "<p id='stroop-text' class='stroop-yellow'>SHIP</p>", "response": "y", "stimulus-type": "unrelated", "word": "SHIP", "color": "yellow", "correct_response": "y", "trial_id": "stroop-trial-1-unrelated-1", "trial_type": "html-keyboard-response", "trial_index": 83, "time_elapsed": 1045560, "internal_node_id": "0.0-4.0-79.0"}}, {"uniqueid": "w39245123:a22586622", "current_trial": 84, "dateTime": 1664556275088, "trialdata": {"rt": 707, "stimulus": "<p id='stroop-text' class='stroop-blue'>BRAIN</p>", "response": "b", "stimulus-type": "unrelated", "word": "BRAIN", "color": "blue", "correct_response": "b", "trial_id": "stroop-trial-1-unrelated-21", "trial_type": "html-keyboard-response", "trial_index": 84, "time_elapsed": 1046770, "internal_node_id": "0.0-4.0-80.0"}}, {"uniqueid": "w39245123:a22586622", "current_trial": 85, "dateTime": 1664556276315, "trialdata": {"rt": 723, "stimulus": "<p id='stroop-text' class='stroop-yellow'>YELLOW</p>", "response": "y", "stimulus-type": "congruent", "word": "yellow", "color": "yellow", "correct_response": "y", "trial_id": "stroop-trial-1-congruent-26", "trial_type": "html-keyboard-response", "trial_index": 85, "time_elapsed": 1047997, "internal_node_id": "0.0-4.0-81.0"}}, {"uniqueid": "w39245123:a22586622", "current_trial": 86, "dateTime": 1664556278296, "trialdata": {"rt": 1480, "stimulus": "<p id='stroop-text' class='stroop-red'>GREEN</p>", "response": "r", "stimulus-type": "incongruent", "word": "green", "color": "red", "correct_response": "r", "trial_id": "stroop-trial-1-incongruent-12", "trial_type": "html-keyboard-response", "trial_index": 86, "time_elapsed": 1049978, "internal_node_id": "0.0-4.0-82.0"}}, {"uniqueid": "w39245123:a22586622", "current_trial": 87, "dateTime": 1664556279523, "trialdata": {"rt": 723, "stimulus": "<p id='stroop-text' class='stroop-green'>YELLOW</p>", "response": "g", "stimulus-type": "incongruent", "word": "yellow", "color": "green", "correct_response": "g", "trial_id": "stroop-trial-1-incongruent-5", "trial_type": "html-keyboard-response", "trial_index": 87, "time_elapsed": 1051205, "internal_node_id": "0.0-4.0-83.0"}}, {"uniqueid": "w39245123:a22586622", "current_trial": 88, "dateTime": 1664556280603, "trialdata": {"rt": 577, "stimulus": "<p id='stroop-text' class='stroop-yellow'>YELLOW</p>", "response": "y", "stimulus-type": "congruent", "word": "yellow", "color": "yellow", "correct_response": "y", "trial_id": "stroop-trial-1-congruent-7", "trial_type": "html-keyboard-response", "trial_index": 88, "time_elapsed": 1052285, "internal_node_id": "0.0-4.0-84.0"}}, {"uniqueid": "w39245123:a22586622", "current_trial": 89, "dateTime": 1664556281716, "trialdata": {"rt": 610, "stimulus": "<p id='stroop-text' class='stroop-blue'>YELLOW</p>", "response": "b", "stimulus-type": "incongruent", "word": "yellow", "color": "blue", "correct_response": "b", "trial_id": "stroop-trial-1-incongruent-11", "trial_type": "html-keyboard-response", "trial_index": 89, "time_elapsed": 1053398, "internal_node_id": "0.0-4.0-85.0"}}, {"uniqueid": "w39245123:a22586622", "current_trial": 90, "dateTime": 1664556283095, "trialdata": {"rt": 876, "stimulus": "<p id='stroop-text' class='stroop-yellow'>FORK</p>", "response": "y", "stimulus-type": "unrelated", "word": "FORK", "color": "yellow", "correct_response": "y", "trial_id": "stroop-trial-1-unrelated-11", "trial_type": "html-keyboard-response", "trial_index": 90, "time_elapsed": 1054777, "internal_node_id": "0.0-4.0-86.0"}}, {"uniqueid": "w39245123:a22586622", "current_trial": 91, "dateTime": 1664556284216, "trialdata": {"rt": 617, "stimulus": "<p id='stroop-text' class='stroop-blue'>STONE</p>", "response": "b", "stimulus-type": "unrelated", "word": "STONE", "color": "blue", "correct_response": "b", "trial_id": "stroop-trial-1-unrelated-19", "trial_type": "html-keyboard-response", "trial_index": 91, "time_elapsed": 1055898, "internal_node_id": "0.0-4.0-87.0"}}, {"uniqueid": "w39245123:a22586622", "current_trial": 92, "dateTime": 1664556285327, "trialdata": {"rt": 608, "stimulus": "<p id='stroop-text' class='stroop-yellow'>FORK</p>", "response": "y", "stimulus-type": "unrelated", "word": "FORK", "color": "yellow", "correct_response": "y", "trial_id": "stroop-trial-1-unrelated-22", "trial_type": "html-keyboard-response", "trial_index": 92, "time_elapsed": 1057009, "internal_node_id": "0.0-4.0-88.0"}}, {"uniqueid": "w39245123:a22586622", "current_trial": 93, "dateTime": 1664556286477, "trialdata": {"rt": 648, "stimulus": "<p id='stroop-text' class='stroop-red'>BLUE</p>", "response": "r", "stimulus-type": "incongruent", "word": "blue", "color": "red", "correct_response": "r", "trial_id": "stroop-trial-1-incongruent-17", "trial_type": "html-keyboard-response", "trial_index": 93, "time_elapsed": 1058159, "internal_node_id": "0.0-4.0-89.0"}}, {"uniqueid": "w39245123:a22586622", "current_trial": 94, "dateTime": 1664556332043, "trialdata": {"rt": 45061, "stimulus": "  <h1> End of block! </h1>\n\n  You have reached the end of the block 1/5. If you need a short break, feel free to take one now before moving on.\n\n  <br><br>\n  In the next block, you will complete another 90 rounds of this game.\n\n  <br><br>\n  <div style='text-align: center;'>Press <code>space</code> to begin.</div>\n  <br><br>\n<div style='text-align: center;'>(If the experiment doesn't continue, try clicking on the text and then pressing <code>space</code>.)</div>", "response": " ", "trial_id": "stroop_1_ready_2", "trial_type": "html-keyboard-response", "trial_index": 94, "time_elapsed": 1103725, "internal_node_id": "0.0-5.0"}}, {"uniqueid": "w39245123:a22586622", "current_trial": 95, "dateTime": 1664556334887, "trialdata": {"rt": 2842, "stimulus": "<p id='stroop-text' class='stroop-red'>RED</p>", "response": "r", "stimulus-type": "congruent", "word": "red", "color": "red", "correct_response": "r", "trial_id": "stroop-trial-1-congruent-7", "trial_type": "html-keyboard-response", "trial_index": 95, "time_elapsed": 1106569, "internal_node_id": "0.0-6.0-0.0"}}, {"uniqueid": "w39245123:a22586622", "current_trial": 96, "dateTime": 1664556336451, "trialdata": {"rt": 1060, "stimulus": "<p id='stroop-text' class='stroop-blue'>RED</p>", "response": "b", "stimulus-type": "incongruent", "word": "red", "color": "blue", "correct_response": "b", "trial_id": "stroop-trial-1-incongruent-20", "trial_type": "html-keyboard-response", "trial_index": 96, "time_elapsed": 1108133, "internal_node_id": "0.0-6.0-1.0"}}, {"uniqueid": "w39245123:a22586622", "current_trial": 97, "dateTime": 1664556337594, "trialdata": {"rt": 639, "stimulus": "<p id='stroop-text' class='stroop-red'>BLUE</p>", "response": "r", "stimulus-type": "incongruent", "word": "blue", "color": "red", "correct_response": "r", "trial_id": "stroop-trial-1-incongruent-11", "trial_type": "html-keyboard-response", "trial_index": 97, "time_elapsed": 1109275, "internal_node_id": "0.0-6.0-2.0"}}, {"uniqueid": "w39245123:a22586622", "current_trial": 98, "dateTime": 1664556338544, "trialdata": {"rt": 445, "stimulus": "<p id='stroop-text' class='stroop-red'>BLUE</p>", "response": "r", "stimulus-type": "incongruent", "word": "blue", "color": "red", "correct_response": "r", "trial_id": "stroop-trial-1-incongruent-19", "trial_type": "html-keyboard-response", "trial_index": 98, "time_elapsed": 1110226, "internal_node_id": "0.0-6.0-3.0"}}, {"uniqueid": "w39245123:a22586622", "current_trial": 99, "dateTime": 1664556339651, "trialdata": {"rt": 596, "stimulus": "<p id='stroop-text' class='stroop-yellow'>YELLOW</p>", "response": "y", "stimulus-type": "congruent", "word": "yellow", "color": "yellow", "correct_response": "y", "trial_id": "stroop-trial-1-congruent-21", "trial_type": "html-keyboard-response", "trial_index": 99, "time_elapsed": 1111333, "internal_node_id": "0.0-6.0-4.0"}}, {"uniqueid": "w39245123:a22586622", "current_trial": 100, "dateTime": 1664556340767, "trialdata": {"rt": 613, "stimulus": "<p id='stroop-text' class='stroop-blue'>BLUE</p>", "response": "b", "stimulus-type": "congruent", "word": "blue", "color": "blue", "correct_response": "b", "trial_id": "stroop-trial-1-congruent-9", "trial_type": "html-keyboard-response", "trial_index": 100, "time_elapsed": 1112448, "internal_node_id": "0.0-6.0-5.0"}}, {"uniqueid": "w39245123:a22586622", "current_trial": 101, "dateTime": 1664556341914, "trialdata": {"rt": 644, "stimulus": "<p id='stroop-text' class='stroop-yellow'>BLUE</p>", "response": "y", "stimulus-type": "incongruent", "word": "blue", "color": "yellow", "correct_response": "y", "trial_id": "stroop-trial-1-incongruent-13", "trial_type": "html-keyboard-response", "trial_index": 101, "time_elapsed": 1113596, "internal_node_id": "0.0-6.0-6.0"}}, {"uniqueid": "w39245123:a22586622", "current_trial": 102, "dateTime": 1664556343002, "trialdata": {"rt": 585, "stimulus": "<p id='stroop-text' class='stroop-green'>YELLOW</p>", "response": "g", "stimulus-type": "incongruent", "word": "yellow", "color": "green", "correct_response": "g", "trial_id": "stroop-trial-1-incongruent-21", "trial_type": "html-keyboard-response", "trial_index": 102, "time_elapsed": 1114683, "internal_node_id": "0.0-6.0-7.0"}}, {"uniqueid": "w39245123:a22586622", "current_trial": 103, "dateTime": 1664556344459, "trialdata": {"rt": 954, "stimulus": "<p id='stroop-text' class='stroop-red'>BOAT</p>", "response": "r", "stimulus-type": "unrelated", "word": "BOAT", "color": "red", "correct_response": "r", "trial_id": "stroop-trial-1-unrelated-7", "trial_type": "html-keyboard-response", "trial_index": 103, "time_elapsed": 1116140, "internal_node_id": "0.0-6.0-8.0"}}, {"uniqueid": "w39245123:a22586622", "current_trial": 104, "dateTime": 1664556345541, "trialdata": {"rt": 579, "stimulus": "<p id='stroop-text' class='stroop-blue'>BLUE</p>", "response": "b", "stimulus-type": "congruent", "word": "blue", "color": "blue", "correct_response": "b", "trial_id": "stroop-trial-1-congruent-13", "trial_type": "html-keyboard-response", "trial_index": 104, "time_elapsed": 1117223, "internal_node_id": "0.0-6.0-9.0"}}, {"uniqueid": "w39245123:a22586622", "current_trial": 105, "dateTime": 1664556346546, "trialdata": {"rt": 501, "stimulus": "<p id='stroop-text' class='stroop-yellow'>BOAT</p>", "response": "y", "stimulus-type": "unrelated", "word": "BOAT", "color": "yellow", "correct_response": "y", "trial_id": "stroop-trial-1-unrelated-13", "trial_type": "html-keyboard-response", "trial_index": 105, "time_elapsed": 1118227, "internal_node_id": "0.0-6.0-10.0"}}, {"uniqueid": "w39245123:a22586622", "current_trial": 106, "dateTime": 1664556347687, "trialdata": {"rt": 638, "stimulus": "<p id='stroop-text' class='stroop-blue'>BLUE</p>", "response": "b", "stimulus-type": "congruent", "word": "blue", "color": "blue", "correct_response": "b", "trial_id": "stroop-trial-1-congruent-30", "trial_type": "html-keyboard-response", "trial_index": 106, "time_elapsed": 1119368, "internal_node_id": "0.0-6.0-11.0"}}, {"uniqueid": "w39245123:a22586622", "current_trial": 107, "dateTime": 1664556348739, "trialdata": {"rt": 550, "stimulus": "<p id='stroop-text' class='stroop-blue'>SHIP</p>", "response": "b", "stimulus-type": "unrelated", "word": "SHIP", "color": "blue", "correct_response": "b", "trial_id": "stroop-trial-1-unrelated-3", "trial_type": "html-keyboard-response", "trial_index": 107, "time_elapsed": 1120421, "internal_node_id": "0.0-6.0-12.0"}}, {"uniqueid": "w39245123:a22586622", "current_trial": 108, "dateTime": 1664556349749, "trialdata": {"rt": 505, "stimulus": "<p id='stroop-text' class='stroop-blue'>GREEN</p>", "response": "b", "stimulus-type": "incongruent", "word": "green", "color": "blue", "correct_response": "b", "trial_id": "stroop-trial-1-incongruent-25", "trial_type": "html-keyboard-response", "trial_index": 108, "time_elapsed": 1121431, "internal_node_id": "0.0-6.0-13.0"}}, {"uniqueid": "w39245123:a22586622", "current_trial": 109, "dateTime": 1664556350963, "trialdata": {"rt": 711, "stimulus": "<p id='stroop-text' class='stroop-green'>BOAT</p>", "response": "g", "stimulus-type": "unrelated", "word": "BOAT", "color": "green", "correct_response": "g", "trial_id": "stroop-trial-1-unrelated-6", "trial_type": "html-keyboard-response", "trial_index": 109, "time_elapsed": 1122645, "internal_node_id": "0.0-6.0-14.0"}}, {"uniqueid": "w39245123:a22586622", "current_trial": 110, "dateTime": 1664556352222, "trialdata": {"rt": 754, "stimulus": "<p id='stroop-text' class='stroop-red'>GREEN</p>", "response": "r", "stimulus-type": "incongruent", "word": "green", "color": "red", "correct_response": "r", "trial_id": "stroop-trial-1-incongruent-27", "trial_type": "html-keyboard-response", "trial_index": 110, "time_elapsed": 1123903, "internal_node_id": "0.0-6.0-15.0"}}, {"uniqueid": "w39245123:a22586622", "current_trial": 111, "dateTime": 1664556353435, "trialdata": {"rt": 710, "stimulus": "<p id='stroop-text' class='stroop-green'>GREEN</p>", "response": "g", "stimulus-type": "congruent", "word": "green", "color": "green", "correct_response": "g", "trial_id": "stroop-trial-1-congruent-20", "trial_type": "html-keyboard-response", "trial_index": 111, "time_elapsed": 1125117, "internal_node_id": "0.0-6.0-16.0"}}, {"uniqueid": "w39245123:a22586622", "current_trial": 112, "dateTime": 1664556354846, "trialdata": {"rt": 906, "stimulus": "<p id='stroop-text' class='stroop-blue'>GREEN</p>", "response": "b", "stimulus-type": "incongruent", "word": "green", "color": "blue", "correct_response": "b", "trial_id": "stroop-trial-1-incongruent-28", "trial_type": "html-keyboard-response", "trial_index": 112, "time_elapsed": 1126528, "internal_node_id": "0.0-6.0-17.0"}}, {"uniqueid": "w39245123:a22586622", "current_trial": 113, "dateTime": 1664556356032, "trialdata": {"rt": 682, "stimulus": "<p id='stroop-text' class='stroop-red'>BRAIN</p>", "response": "r", "stimulus-type": "unrelated", "word": "BRAIN", "color": "red", "correct_response": "r", "trial_id": "stroop-trial-1-unrelated-18", "trial_type": "html-keyboard-response", "trial_index": 113, "time_elapsed": 1127714, "internal_node_id": "0.0-6.0-18.0"}}, {"uniqueid": "w39245123:a22586622", "current_trial": 114, "dateTime": 1664556357056, "trialdata": {"rt": 522, "stimulus": "<p id='stroop-text' class='stroop-red'>FORK</p>", "response": "r", "stimulus-type": "unrelated", "word": "FORK", "color": "red", "correct_response": "r", "trial_id": "stroop-trial-1-unrelated-15", "trial_type": "html-keyboard-response", "trial_index": 114, "time_elapsed": 1128738, "internal_node_id": "0.0-6.0-19.0"}}, {"uniqueid": "w39245123:a22586622", "current_trial": 115, "dateTime": 1664556358139, "trialdata": {"rt": 580, "stimulus": "<p id='stroop-text' class='stroop-yellow'>YELLOW</p>", "response": "y", "stimulus-type": "congruent", "word": "yellow", "color": "yellow", "correct_response": "y", "trial_id": "stroop-trial-1-congruent-27", "trial_type": "html-keyboard-response", "trial_index": 115, "time_elapsed": 1129821, "internal_node_id": "0.0-6.0-20.0"}}, {"uniqueid": "w39245123:a22586622", "current_trial": 116, "dateTime": 1664556359326, "trialdata": {"rt": 682, "stimulus": "<p id='stroop-text' class='stroop-red'>SHIP</p>", "response": "r", "stimulus-type": "unrelated", "word": "SHIP", "color": "red", "correct_response": "r", "trial_id": "stroop-trial-1-unrelated-23", "trial_type": "html-keyboard-response", "trial_index": 116, "time_elapsed": 1131008, "internal_node_id": "0.0-6.0-21.0"}}, {"uniqueid": "w39245123:a22586622", "current_trial": 117, "dateTime": 1664556360382, "trialdata": {"rt": 553, "stimulus": "<p id='stroop-text' class='stroop-red'>BOTTLE</p>", "response": "r", "stimulus-type": "unrelated", "word": "BOTTLE", "color": "red", "correct_response": "r", "trial_id": "stroop-trial-1-unrelated-20", "trial_type": "html-keyboard-response", "trial_index": 117, "time_elapsed": 1132064, "internal_node_id": "0.0-6.0-22.0"}}, {"uniqueid": "w39245123:a22586622", "current_trial": 118, "dateTime": 1664556361813, "trialdata": {"rt": 917, "stimulus": "<p id='stroop-text' class='stroop-green'>BLUE</p>", "response": "g", "stimulus-type": "incongruent", "word": "blue", "color": "green", "correct_response": "g", "trial_id": "stroop-trial-1-incongruent-30", "trial_type": "html-keyboard-response", "trial_index": 118, "time_elapsed": 1133494, "internal_node_id": "0.0-6.0-23.0"}}, {"uniqueid": "w39245123:a22586622", "current_trial": 119, "dateTime": 1664556362814, "trialdata": {"rt": 499, "stimulus": "<p id='stroop-text' class='stroop-green'>GREEN</p>", "response": "g", "stimulus-type": "congruent", "word": "green", "color": "green", "correct_response": "g", "trial_id": "stroop-trial-1-congruent-22", "trial_type": "html-keyboard-response", "trial_index": 119, "time_elapsed": 1134496, "internal_node_id": "0.0-6.0-24.0"}}, {"uniqueid": "w39245123:a22586622", "current_trial": 120, "dateTime": 1664556363901, "trialdata": {"rt": 584, "stimulus": "<p id='stroop-text' class='stroop-yellow'>YELLOW</p>", "response": "y", "stimulus-type": "congruent", "word": "yellow", "color": "yellow", "correct_response": "y", "trial_id": "stroop-trial-1-congruent-12", "trial_type": "html-keyboard-response", "trial_index": 120, "time_elapsed": 1135583, "internal_node_id": "0.0-6.0-25.0"}}, {"uniqueid": "w39245123:a22586622", "current_trial": 121, "dateTime": 1664556364999, "trialdata": {"rt": 594, "stimulus": "<p id='stroop-text' class='stroop-green'>RED</p>", "response": "g", "stimulus-type": "incongruent", "word": "red", "color": "green", "correct_response": "g", "trial_id": "stroop-trial-1-incongruent-6", "trial_type": "html-keyboard-response", "trial_index": 121, "time_elapsed": 1136681, "internal_node_id": "0.0-6.0-26.0"}}, {"uniqueid": "w39245123:a22586622", "current_trial": 122, "dateTime": 1664556366110, "trialdata": {"rt": 608, "stimulus": "<p id='stroop-text' class='stroop-green'>GREEN</p>", "response": "g", "stimulus-type": "congruent", "word": "green", "color": "green", "correct_response": "g", "trial_id": "stroop-trial-1-congruent-5", "trial_type": "html-keyboard-response", "trial_index": 122, "time_elapsed": 1137792, "internal_node_id": "0.0-6.0-27.0"}}, {"uniqueid": "w39245123:a22586622", "current_trial": 123, "dateTime": 1664556367476, "trialdata": {"rt": 863, "stimulus": "<p id='stroop-text' class='stroop-red'>RED</p>", "response": "r", "stimulus-type": "congruent", "word": "red", "color": "red", "correct_response": "r", "trial_id": "stroop-trial-1-congruent-2", "trial_type": "html-keyboard-response", "trial_index": 123, "time_elapsed": 1139157, "internal_node_id": "0.0-6.0-28.0"}}, {"uniqueid": "w39245123:a22586622", "current_trial": 124, "dateTime": 1664556368586, "trialdata": {"rt": 608, "stimulus": "<p id='stroop-text' class='stroop-yellow'>YELLOW</p>", "response": "y", "stimulus-type": "congruent", "word": "yellow", "color": "yellow", "correct_response": "y", "trial_id": "stroop-trial-1-congruent-17", "trial_type": "html-keyboard-response", "trial_index": 124, "time_elapsed": 1140267, "internal_node_id": "0.0-6.0-29.0"}}, {"uniqueid": "w39245123:a22586622", "current_trial": 125, "dateTime": 1664556369869, "trialdata": {"rt": 780, "stimulus": "<p id='stroop-text' class='stroop-green'>GREEN</p>", "response": "g", "stimulus-type": "congruent", "word": "green", "color": "green", "correct_response": "g", "trial_id": "stroop-trial-1-congruent-18", "trial_type": "html-keyboard-response", "trial_index": 125, "time_elapsed": 1141550, "internal_node_id": "0.0-6.0-30.0"}}, {"uniqueid": "w39245123:a22586622", "current_trial": 126, "dateTime": 1664556371101, "trialdata": {"rt": 729, "stimulus": "<p id='stroop-text' class='stroop-red'>BLUE</p>", "response": "r", "stimulus-type": "incongruent", "word": "blue", "color": "red", "correct_response": "r", "trial_id": "stroop-trial-1-incongruent-15", "trial_type": "html-keyboard-response", "trial_index": 126, "time_elapsed": 1142783, "internal_node_id": "0.0-6.0-31.0"}}, {"uniqueid": "w39245123:a22586622", "current_trial": 127, "dateTime": 1664556372330, "trialdata": {"rt": 723, "stimulus": "<p id='stroop-text' class='stroop-green'>WINDOW</p>", "response": "g", "stimulus-type": "unrelated", "word": "WINDOW", "color": "green", "correct_response": "g", "trial_id": "stroop-trial-1-unrelated-21", "trial_type": "html-keyboard-response", "trial_index": 127, "time_elapsed": 1144011, "internal_node_id": "0.0-6.0-32.0"}}, {"uniqueid": "w39245123:a22586622", "current_trial": 128, "dateTime": 1664556373367, "trialdata": {"rt": 535, "stimulus": "<p id='stroop-text' class='stroop-blue'>DOG</p>", "response": "b", "stimulus-type": "unrelated", "word": "DOG", "color": "blue", "correct_response": "b", "trial_id": "stroop-trial-1-unrelated-26", "trial_type": "html-keyboard-response", "trial_index": 128, "time_elapsed": 1145049, "internal_node_id": "0.0-6.0-33.0"}}, {"uniqueid": "w39245123:a22586622", "current_trial": 129, "dateTime": 1664556374801, "trialdata": {"rt": 928, "stimulus": "<p id='stroop-text' class='stroop-yellow'>YELLOW</p>", "response": "y", "stimulus-type": "congruent", "word": "yellow", "color": "yellow", "correct_response": "y", "trial_id": "stroop-trial-1-congruent-25", "trial_type": "html-keyboard-response", "trial_index": 129, "time_elapsed": 1146483, "internal_node_id": "0.0-6.0-34.0"}}, {"uniqueid": "w39245123:a22586622", "current_trial": 130, "dateTime": 1664556376071, "trialdata": {"rt": 766, "stimulus": "<p id='stroop-text' class='stroop-green'>CHAIR</p>", "response": "g", "stimulus-type": "unrelated", "word": "CHAIR", "color": "green", "correct_response": "g", "trial_id": "stroop-trial-1-unrelated-29", "trial_type": "html-keyboard-response", "trial_index": 130, "time_elapsed": 1147752, "internal_node_id": "0.0-6.0-35.0"}}, {"uniqueid": "w39245123:a22586622", "current_trial": 131, "dateTime": 1664556377096, "trialdata": {"rt": 524, "stimulus": "<p id='stroop-text' class='stroop-green'>BOAT</p>", "response": "g", "stimulus-type": "unrelated", "word": "BOAT", "color": "green", "correct_response": "g", "trial_id": "stroop-trial-1-unrelated-9", "trial_type": "html-keyboard-response", "trial_index": 131, "time_elapsed": 1148778, "internal_node_id": "0.0-6.0-36.0"}}, {"uniqueid": "w39245123:a22586622", "current_trial": 132, "dateTime": 1664556378182, "trialdata": {"rt": 582, "stimulus": "<p id='stroop-text' class='stroop-blue'>MONKEY</p>", "response": "b", "stimulus-type": "unrelated", "word": "MONKEY", "color": "blue", "correct_response": "b", "trial_id": "stroop-trial-1-unrelated-2", "trial_type": "html-keyboard-response", "trial_index": 132, "time_elapsed": 1149863, "internal_node_id": "0.0-6.0-37.0"}}, {"uniqueid": "w39245123:a22586622", "current_trial": 133, "dateTime": 1664556379395, "trialdata": {"rt": 706, "stimulus": "<p id='stroop-text' class='stroop-green'>BLUE</p>", "response": "g", "stimulus-type": "incongruent", "word": "blue", "color": "green", "correct_response": "g", "trial_id": "stroop-trial-1-incongruent-22", "trial_type": "html-keyboard-response", "trial_index": 133, "time_elapsed": 1151077, "internal_node_id": "0.0-6.0-38.0"}}, {"uniqueid": "w39245123:a22586622", "current_trial": 134, "dateTime": 1664556380368, "trialdata": {"rt": 470, "stimulus": "<p id='stroop-text' class='stroop-red'>RED</p>", "response": "y", "stimulus-type": "congruent", "word": "red", "color": "red", "correct_response": "r", "trial_id": "stroop-trial-1-congruent-23", "trial_type": "html-keyboard-response", "trial_index": 134, "time_elapsed": 1152049, "internal_node_id": "0.0-6.0-39.0"}}, {"uniqueid": "w39245123:a22586622", "current_trial": 135, "dateTime": 1664556381797, "trialdata": {"rt": 925, "stimulus": "<p id='stroop-text' class='stroop-green'>GREEN</p>", "response": "g", "stimulus-type": "congruent", "word": "green", "color": "green", "correct_response": "g", "trial_id": "stroop-trial-1-congruent-6", "trial_type": "html-keyboard-response", "trial_index": 135, "time_elapsed": 1153479, "internal_node_id": "0.0-6.0-40.0"}}, {"uniqueid": "w39245123:a22586622", "current_trial": 136, "dateTime": 1664556382864, "trialdata": {"rt": 564, "stimulus": "<p id='stroop-text' class='stroop-green'>GREEN</p>", "response": "g", "stimulus-type": "congruent", "word": "green", "color": "green", "correct_response": "g", "trial_id": "stroop-trial-1-congruent-11", "trial_type": "html-keyboard-response", "trial_index": 136, "time_elapsed": 1154545, "internal_node_id": "0.0-6.0-41.0"}}, {"uniqueid": "w39245123:a22586622", "current_trial": 137, "dateTime": 1664556384230, "trialdata": {"rt": 861, "stimulus": "<p id='stroop-text' class='stroop-red'>YELLOW</p>", "response": "r", "stimulus-type": "incongruent", "word": "yellow", "color": "red", "correct_response": "r", "trial_id": "stroop-trial-1-incongruent-10", "trial_type": "html-keyboard-response", "trial_index": 137, "time_elapsed": 1155912, "internal_node_id": "0.0-6.0-42.0"}}, {"uniqueid": "w39245123:a22586622", "current_trial": 138, "dateTime": 1664556385212, "trialdata": {"rt": 478, "stimulus": "<p id='stroop-text' class='stroop-red'>WINDOW</p>", "response": "r", "stimulus-type": "unrelated", "word": "WINDOW", "color": "red", "correct_response": "r", "trial_id": "stroop-trial-1-unrelated-5", "trial_type": "html-keyboard-response", "trial_index": 138, "time_elapsed": 1156893, "internal_node_id": "0.0-6.0-43.0"}}, {"uniqueid": "w39245123:a22586622", "current_trial": 139, "dateTime": 1664556386725, "trialdata": {"rt": 1009, "stimulus": "<p id='stroop-text' class='stroop-yellow'>GREEN</p>", "response": "y", "stimulus-type": "incongruent", "word": "green", "color": "yellow", "correct_response": "y", "trial_id": "stroop-trial-1-incongruent-8", "trial_type": "html-keyboard-response", "trial_index": 139, "time_elapsed": 1158407, "internal_node_id": "0.0-6.0-44.0"}}, {"uniqueid": "w39245123:a22586622", "current_trial": 140, "dateTime": 1664556387951, "trialdata": {"rt": 723, "stimulus": "<p id='stroop-text' class='stroop-green'>GREEN</p>", "response": "r", "stimulus-type": "congruent", "word": "green", "color": "green", "correct_response": "g", "trial_id": "stroop-trial-1-congruent-10", "trial_type": "html-keyboard-response", "trial_index": 140, "time_elapsed": 1159633, "internal_node_id": "0.0-6.0-45.0"}}, {"uniqueid": "w39245123:a22586622", "current_trial": 141, "dateTime": 1664556389506, "trialdata": {"rt": 1051, "stimulus": "<p id='stroop-text' class='stroop-green'>YELLOW</p>", "response": "g", "stimulus-type": "incongruent", "word": "yellow", "color": "green", "correct_response": "g", "trial_id": "stroop-trial-1-incongruent-26", "trial_type": "html-keyboard-response", "trial_index": 141, "time_elapsed": 1161187, "internal_node_id": "0.0-6.0-46.0"}}, {"uniqueid": "w39245123:a22586622", "current_trial": 142, "dateTime": 1664556390480, "trialdata": {"rt": 470, "stimulus": "<p id='stroop-text' class='stroop-green'>DOG</p>", "response": "g", "stimulus-type": "unrelated", "word": "DOG", "color": "green", "correct_response": "g", "trial_id": "stroop-trial-1-unrelated-17", "trial_type": "html-keyboard-response", "trial_index": 142, "time_elapsed": 1162162, "internal_node_id": "0.0-6.0-47.0"}}, {"uniqueid": "w39245123:a22586622", "current_trial": 143, "dateTime": 1664556391563, "trialdata": {"rt": 579, "stimulus": "<p id='stroop-text' class='stroop-blue'>SHIP</p>", "response": "b", "stimulus-type": "unrelated", "word": "SHIP", "color": "blue", "correct_response": "b", "trial_id": "stroop-trial-1-unrelated-11", "trial_type": "html-keyboard-response", "trial_index": 143, "time_elapsed": 1163245, "internal_node_id": "0.0-6.0-48.0"}}, {"uniqueid": "w39245123:a22586622", "current_trial": 144, "dateTime": 1664556392687, "trialdata": {"rt": 619, "stimulus": "<p id='stroop-text' class='stroop-blue'>RED</p>", "response": "b", "stimulus-type": "incongruent", "word": "red", "color": "blue", "correct_response": "b", "trial_id": "stroop-trial-1-incongruent-7", "trial_type": "html-keyboard-response", "trial_index": 144, "time_elapsed": 1164369, "internal_node_id": "0.0-6.0-49.0"}}, {"uniqueid": "w39245123:a22586622", "current_trial": 145, "dateTime": 1664556394251, "trialdata": {"rt": 1060, "stimulus": "<p id='stroop-text' class='stroop-yellow'>BRIDGE</p>", "response": "y", "stimulus-type": "unrelated", "word": "BRIDGE", "color": "yellow", "correct_response": "y", "trial_id": "stroop-trial-1-unrelated-30", "trial_type": "html-keyboard-response", "trial_index": 145, "time_elapsed": 1165932, "internal_node_id": "0.0-6.0-50.0"}}, {"uniqueid": "w39245123:a22586622", "current_trial": 146, "dateTime": 1664556395321, "trialdata": {"rt": 567, "stimulus": "<p id='stroop-text' class='stroop-yellow'>CHAIR</p>", "response": "y", "stimulus-type": "unrelated", "word": "CHAIR", "color": "yellow", "correct_response": "y", "trial_id": "stroop-trial-1-unrelated-27", "trial_type": "html-keyboard-response", "trial_index": 146, "time_elapsed": 1167003, "internal_node_id": "0.0-6.0-51.0"}}, {"uniqueid": "w39245123:a22586622", "current_trial": 147, "dateTime": 1664556396365, "trialdata": {"rt": 541, "stimulus": "<p id='stroop-text' class='stroop-yellow'>BLUE</p>", "response": "y", "stimulus-type": "incongruent", "word": "blue", "color": "yellow", "correct_response": "y", "trial_id": "stroop-trial-1-incongruent-3", "trial_type": "html-keyboard-response", "trial_index": 147, "time_elapsed": 1168046, "internal_node_id": "0.0-6.0-52.0"}}, {"uniqueid": "w39245123:a22586622", "current_trial": 148, "dateTime": 1664556397407, "trialdata": {"rt": 539, "stimulus": "<p id='stroop-text' class='stroop-yellow'>BOAT</p>", "response": "y", "stimulus-type": "unrelated", "word": "BOAT", "color": "yellow", "correct_response": "y", "trial_id": "stroop-trial-1-unrelated-28", "trial_type": "html-keyboard-response", "trial_index": 148, "time_elapsed": 1169089, "internal_node_id": "0.0-6.0-53.0"}}, {"uniqueid": "w39245123:a22586622", "current_trial": 149, "dateTime": 1664556398545, "trialdata": {"rt": 634, "stimulus": "<p id='stroop-text' class='stroop-green'>BRAIN</p>", "response": "g", "stimulus-type": "unrelated", "word": "BRAIN", "color": "green", "correct_response": "g", "trial_id": "stroop-trial-1-unrelated-16", "trial_type": "html-keyboard-response", "trial_index": 149, "time_elapsed": 1170227, "internal_node_id": "0.0-6.0-54.0"}}, {"uniqueid": "w39245123:a22586622", "current_trial": 150, "dateTime": 1664556399865, "trialdata": {"rt": 816, "stimulus": "<p id='stroop-text' class='stroop-yellow'>BRAIN</p>", "response": "y", "stimulus-type": "unrelated", "word": "BRAIN", "color": "yellow", "correct_response": "y", "trial_id": "stroop-trial-1-unrelated-12", "trial_type": "html-keyboard-response", "trial_index": 150, "time_elapsed": 1171547, "internal_node_id": "0.0-6.0-55.0"}}, {"uniqueid": "w39245123:a22586622", "current_trial": 151, "dateTime": 1664556400948, "trialdata": {"rt": 579, "stimulus": "<p id='stroop-text' class='stroop-yellow'>RED</p>", "response": "y", "stimulus-type": "incongruent", "word": "red", "color": "yellow", "correct_response": "y", "trial_id": "stroop-trial-1-incongruent-29", "trial_type": "html-keyboard-response", "trial_index": 151, "time_elapsed": 1172630, "internal_node_id": "0.0-6.0-56.0"}}, {"uniqueid": "w39245123:a22586622", "current_trial": 152, "dateTime": 1664556401920, "trialdata": {"rt": 469, "stimulus": "<p id='stroop-text' class='stroop-green'>GREEN</p>", "response": "g", "stimulus-type": "congruent", "word": "green", "color": "green", "correct_response": "g", "trial_id": "stroop-trial-1-congruent-19", "trial_type": "html-keyboard-response", "trial_index": 152, "time_elapsed": 1173602, "internal_node_id": "0.0-6.0-57.0"}}, {"uniqueid": "w39245123:a22586622", "current_trial": 153, "dateTime": 1664556403667, "trialdata": {"rt": 1244, "stimulus": "<p id='stroop-text' class='stroop-red'>BLUE</p>", "response": "r", "stimulus-type": "incongruent", "word": "blue", "color": "red", "correct_response": "r", "trial_id": "stroop-trial-1-incongruent-2", "trial_type": "html-keyboard-response", "trial_index": 153, "time_elapsed": 1175349, "internal_node_id": "0.0-6.0-58.0"}}, {"uniqueid": "w39245123:a22586622", "current_trial": 154, "dateTime": 1664556404791, "trialdata": {"rt": 620, "stimulus": "<p id='stroop-text' class='stroop-yellow'>YELLOW</p>", "response": "y", "stimulus-type": "congruent", "word": "yellow", "color": "yellow", "correct_response": "y", "trial_id": "stroop-trial-1-congruent-14", "trial_type": "html-keyboard-response", "trial_index": 154, "time_elapsed": 1176473, "internal_node_id": "0.0-6.0-59.0"}}, {"uniqueid": "w39245123:a22586622", "current_trial": 155, "dateTime": 1664556405870, "trialdata": {"rt": 577, "stimulus": "<p id='stroop-text' class='stroop-yellow'>YELLOW</p>", "response": "y", "stimulus-type": "congruent", "word": "yellow", "color": "yellow", "correct_response": "y", "trial_id": "stroop-trial-1-congruent-28", "trial_type": "html-keyboard-response", "trial_index": 155, "time_elapsed": 1177552, "internal_node_id": "0.0-6.0-60.0"}}, {"uniqueid": "w39245123:a22586622", "current_trial": 156, "dateTime": 1664556406968, "trialdata": {"rt": 595, "stimulus": "<p id='stroop-text' class='stroop-blue'>FORK</p>", "response": "b", "stimulus-type": "unrelated", "word": "FORK", "color": "blue", "correct_response": "b", "trial_id": "stroop-trial-1-unrelated-24", "trial_type": "html-keyboard-response", "trial_index": 156, "time_elapsed": 1178649, "internal_node_id": "0.0-6.0-61.0"}}, {"uniqueid": "w39245123:a22586622", "current_trial": 157, "dateTime": 1664556408309, "trialdata": {"rt": 839, "stimulus": "<p id='stroop-text' class='stroop-yellow'>BOTTLE</p>", "response": "y", "stimulus-type": "unrelated", "word": "BOTTLE", "color": "yellow", "correct_response": "y", "trial_id": "stroop-trial-1-unrelated-4", "trial_type": "html-keyboard-response", "trial_index": 157, "time_elapsed": 1179991, "internal_node_id": "0.0-6.0-62.0"}}, {"uniqueid": "w39245123:a22586622", "current_trial": 158, "dateTime": 1664556409475, "trialdata": {"rt": 660, "stimulus": "<p id='stroop-text' class='stroop-green'>GREEN</p>", "response": "g", "stimulus-type": "congruent", "word": "green", "color": "green", "correct_response": "g", "trial_id": "stroop-trial-1-congruent-29", "trial_type": "html-keyboard-response", "trial_index": 158, "time_elapsed": 1181156, "internal_node_id": "0.0-6.0-63.0"}}, {"uniqueid": "w39245123:a22586622", "current_trial": 159, "dateTime": 1664556410772, "trialdata": {"rt": 794, "stimulus": "<p id='stroop-text' class='stroop-red'>RED</p>", "response": "r", "stimulus-type": "congruent", "word": "red", "color": "red", "correct_response": "r", "trial_id": "stroop-trial-1-congruent-24", "trial_type": "html-keyboard-response", "trial_index": 159, "time_elapsed": 1182454, "internal_node_id": "0.0-6.0-64.0"}}, {"uniqueid": "w39245123:a22586622", "current_trial": 160, "dateTime": 1664556411962, "trialdata": {"rt": 680, "stimulus": "<p id='stroop-text' class='stroop-yellow'>YELLOW</p>", "response": "y", "stimulus-type": "congruent", "word": "yellow", "color": "yellow", "correct_response": "y", "trial_id": "stroop-trial-1-congruent-3", "trial_type": "html-keyboard-response", "trial_index": 160, "time_elapsed": 1183644, "internal_node_id": "0.0-6.0-65.0"}}, {"uniqueid": "w39245123:a22586622", "current_trial": 161, "dateTime": 1664556413164, "trialdata": {"rt": 693, "stimulus": "<p id='stroop-text' class='stroop-red'>SHIP</p>", "response": "r", "stimulus-type": "unrelated", "word": "SHIP", "color": "red", "correct_response": "r", "trial_id": "stroop-trial-1-unrelated-1", "trial_type": "html-keyboard-response", "trial_index": 161, "time_elapsed": 1184846, "internal_node_id": "0.0-6.0-66.0"}}, {"uniqueid": "w39245123:a22586622", "current_trial": 162, "dateTime": 1664556414319, "trialdata": {"rt": 652, "stimulus": "<p id='stroop-text' class='stroop-green'>GREEN</p>", "response": "g", "stimulus-type": "congruent", "word": "green", "color": "green", "correct_response": "g", "trial_id": "stroop-trial-1-congruent-15", "trial_type": "html-keyboard-response", "trial_index": 162, "time_elapsed": 1186000, "internal_node_id": "0.0-6.0-67.0"}}, {"uniqueid": "w39245123:a22586622", "current_trial": 163, "dateTime": 1664556415562, "trialdata": {"rt": 739, "stimulus": "<p id='stroop-text' class='stroop-yellow'>YELLOW</p>", "response": "y", "stimulus-type": "congruent", "word": "yellow", "color": "yellow", "correct_response": "y", "trial_id": "stroop-trial-1-congruent-26", "trial_type": "html-keyboard-response", "trial_index": 163, "time_elapsed": 1187243, "internal_node_id": "0.0-6.0-68.0"}}, {"uniqueid": "w39245123:a22586622", "current_trial": 164, "dateTime": 1664556416599, "trialdata": {"rt": 526, "stimulus": "<p id='stroop-text' class='stroop-red'>GREEN</p>", "response": "r", "stimulus-type": "incongruent", "word": "green", "color": "red", "correct_response": "r", "trial_id": "stroop-trial-1-incongruent-24", "trial_type": "html-keyboard-response", "trial_index": 164, "time_elapsed": 1188280, "internal_node_id": "0.0-6.0-69.0"}}, {"uniqueid": "w39245123:a22586622", "current_trial": 165, "dateTime": 1664556417711, "trialdata": {"rt": 606, "stimulus": "<p id='stroop-text' class='stroop-red'>RED</p>", "response": "r", "stimulus-type": "congruent", "word": "red", "color": "red", "correct_response": "r", "trial_id": "stroop-trial-1-congruent-8", "trial_type": "html-keyboard-response", "trial_index": 165, "time_elapsed": 1189393, "internal_node_id": "0.0-6.0-70.0"}}, {"uniqueid": "w39245123:a22586622", "current_trial": 166, "dateTime": 1664556418745, "trialdata": {"rt": 531, "stimulus": "<p id='stroop-text' class='stroop-green'>YELLOW</p>", "response": "g", "stimulus-type": "incongruent", "word": "yellow", "color": "green", "correct_response": "g", "trial_id": "stroop-trial-1-incongruent-12", "trial_type": "html-keyboard-response", "trial_index": 166, "time_elapsed": 1190427, "internal_node_id": "0.0-6.0-71.0"}}, {"uniqueid": "w39245123:a22586622", "current_trial": 167, "dateTime": 1664556419936, "trialdata": {"rt": 687, "stimulus": "<p id='stroop-text' class='stroop-blue'>GREEN</p>", "response": "b", "stimulus-type": "incongruent", "word": "green", "color": "blue", "correct_response": "b", "trial_id": "stroop-trial-1-incongruent-9", "trial_type": "html-keyboard-response", "trial_index": 167, "time_elapsed": 1191617, "internal_node_id": "0.0-6.0-72.0"}}, {"uniqueid": "w39245123:a22586622", "current_trial": 168, "dateTime": 1664556421044, "trialdata": {"rt": 604, "stimulus": "<p id='stroop-text' class='stroop-blue'>YELLOW</p>", "response": "b", "stimulus-type": "incongruent", "word": "yellow", "color": "blue", "correct_response": "b", "trial_id": "stroop-trial-1-incongruent-14", "trial_type": "html-keyboard-response", "trial_index": 168, "time_elapsed": 1192725, "internal_node_id": "0.0-6.0-73.0"}}, {"uniqueid": "w39245123:a22586622", "current_trial": 169, "dateTime": 1664556422559, "trialdata": {"rt": 1009, "stimulus": "<p id='stroop-text' class='stroop-red'>GREEN</p>", "response": "r", "stimulus-type": "incongruent", "word": "green", "color": "red", "correct_response": "r", "trial_id": "stroop-trial-1-incongruent-18", "trial_type": "html-keyboard-response", "trial_index": 169, "time_elapsed": 1194241, "internal_node_id": "0.0-6.0-74.0"}}, {"uniqueid": "w39245123:a22586622", "current_trial": 170, "dateTime": 1664556423744, "trialdata": {"rt": 681, "stimulus": "<p id='stroop-text' class='stroop-blue'>FORK</p>", "response": "b", "stimulus-type": "unrelated", "word": "FORK", "color": "blue", "correct_response": "b", "trial_id": "stroop-trial-1-unrelated-8", "trial_type": "html-keyboard-response", "trial_index": 170, "time_elapsed": 1195425, "internal_node_id": "0.0-6.0-75.0"}}, {"uniqueid": "w39245123:a22586622", "current_trial": 171, "dateTime": 1664556425048, "trialdata": {"rt": 800, "stimulus": "<p id='stroop-text' class='stroop-green'>DOG</p>", "response": "g", "stimulus-type": "unrelated", "word": "DOG", "color": "green", "correct_response": "g", "trial_id": "stroop-trial-1-unrelated-14", "trial_type": "html-keyboard-response", "trial_index": 171, "time_elapsed": 1196730, "internal_node_id": "0.0-6.0-76.0"}}, {"uniqueid": "w39245123:a22586622", "current_trial": 172, "dateTime": 1664556426241, "trialdata": {"rt": 690, "stimulus": "<p id='stroop-text' class='stroop-red'>GREEN</p>", "response": "r", "stimulus-type": "incongruent", "word": "green", "color": "red", "correct_response": "r", "trial_id": "stroop-trial-1-incongruent-5", "trial_type": "html-keyboard-response", "trial_index": 172, "time_elapsed": 1197922, "internal_node_id": "0.0-6.0-77.0"}}, {"uniqueid": "w39245123:a22586622", "current_trial": 173, "dateTime": 1664556427296, "trialdata": {"rt": 553, "stimulus": "<p id='stroop-text' class='stroop-red'>MONKEY</p>", "response": "r", "stimulus-type": "unrelated", "word": "MONKEY", "color": "red", "correct_response": "r", "trial_id": "stroop-trial-1-unrelated-10", "trial_type": "html-keyboard-response", "trial_index": 173, "time_elapsed": 1198978, "internal_node_id": "0.0-6.0-78.0"}}, {"uniqueid": "w39245123:a22586622", "current_trial": 174, "dateTime": 1664556429089, "trialdata": {"rt": 1289, "stimulus": "<p id='stroop-text' class='stroop-blue'>RED</p>", "response": "b", "stimulus-type": "incongruent", "word": "red", "color": "blue", "correct_response": "b", "trial_id": "stroop-trial-1-incongruent-1", "trial_type": "html-keyboard-response", "trial_index": 174, "time_elapsed": 1200771, "internal_node_id": "0.0-6.0-79.0"}}, {"uniqueid": "w39245123:a22586622", "current_trial": 175, "dateTime": 1664556430069, "trialdata": {"rt": 475, "stimulus": "<p id='stroop-text' class='stroop-blue'>BLUE</p>", "response": "b", "stimulus-type": "congruent", "word": "blue", "color": "blue", "correct_response": "b", "trial_id": "stroop-trial-1-congruent-16", "trial_type": "html-keyboard-response", "trial_index": 175, "time_elapsed": 1201751, "internal_node_id": "0.0-6.0-80.0"}}, {"uniqueid": "w39245123:a22586622", "current_trial": 176, "dateTime": 1664556431269, "trialdata": {"rt": 697, "stimulus": "<p id='stroop-text' class='stroop-green'>RED</p>", "response": "g", "stimulus-type": "incongruent", "word": "red", "color": "green", "correct_response": "g", "trial_id": "stroop-trial-1-incongruent-16", "trial_type": "html-keyboard-response", "trial_index": 176, "time_elapsed": 1202951, "internal_node_id": "0.0-6.0-81.0"}}, {"uniqueid": "w39245123:a22586622", "current_trial": 177, "dateTime": 1664556432759, "trialdata": {"rt": 987, "stimulus": "<p id='stroop-text' class='stroop-yellow'>BOAT</p>", "response": "y", "stimulus-type": "unrelated", "word": "BOAT", "color": "yellow", "correct_response": "y", "trial_id": "stroop-trial-1-unrelated-19", "trial_type": "html-keyboard-response", "trial_index": 177, "time_elapsed": 1204441, "internal_node_id": "0.0-6.0-82.0"}}, {"uniqueid": "w39245123:a22586622", "current_trial": 178, "dateTime": 1664556433639, "trialdata": {"rt": 377, "stimulus": "<p id='stroop-text' class='stroop-yellow'>CHAIR</p>", "response": "y", "stimulus-type": "unrelated", "word": "CHAIR", "color": "yellow", "correct_response": "y", "trial_id": "stroop-trial-1-unrelated-22", "trial_type": "html-keyboard-response", "trial_index": 178, "time_elapsed": 1205321, "internal_node_id": "0.0-6.0-83.0"}}, {"uniqueid": "w39245123:a22586622", "current_trial": 179, "dateTime": 1664556434556, "trialdata": {"rt": 414, "stimulus": "<p id='stroop-text' class='stroop-yellow'>YELLOW</p>", "response": "y", "stimulus-type": "congruent", "word": "yellow", "color": "yellow", "correct_response": "y", "trial_id": "stroop-trial-1-congruent-4", "trial_type": "html-keyboard-response", "trial_index": 179, "time_elapsed": 1206238, "internal_node_id": "0.0-6.0-84.0"}}, {"uniqueid": "w39245123:a22586622", "current_trial": 180, "dateTime": 1664556436608, "trialdata": {"rt": 1548, "stimulus": "<p id='stroop-text' class='stroop-red'>GREEN</p>", "response": "r", "stimulus-type": "incongruent", "word": "green", "color": "red", "correct_response": "r", "trial_id": "stroop-trial-1-incongruent-4", "trial_type": "html-keyboard-response", "trial_index": 180, "time_elapsed": 1208290, "internal_node_id": "0.0-6.0-85.0"}}, {"uniqueid": "w39245123:a22586622", "current_trial": 181, "dateTime": 1664556437840, "trialdata": {"rt": 728, "stimulus": "<p id='stroop-text' class='stroop-yellow'>YELLOW</p>", "response": "y", "stimulus-type": "congruent", "word": "yellow", "color": "yellow", "correct_response": "y", "trial_id": "stroop-trial-1-congruent-1", "trial_type": "html-keyboard-response", "trial_index": 181, "time_elapsed": 1209522, "internal_node_id": "0.0-6.0-86.0"}}, {"uniqueid": "w39245123:a22586622", "current_trial": 182, "dateTime": 1664556439031, "trialdata": {"rt": 687, "stimulus": "<p id='stroop-text' class='stroop-red'>GREEN</p>", "response": "r", "stimulus-type": "incongruent", "word": "green", "color": "red", "correct_response": "r", "trial_id": "stroop-trial-1-incongruent-23", "trial_type": "html-keyboard-response", "trial_index": 182, "time_elapsed": 1210713, "internal_node_id": "0.0-6.0-87.0"}}, {"uniqueid": "w39245123:a22586622", "current_trial": 183, "dateTime": 1664556440206, "trialdata": {"rt": 670, "stimulus": "<p id='stroop-text' class='stroop-green'>YELLOW</p>", "response": "g", "stimulus-type": "incongruent", "word": "yellow", "color": "green", "correct_response": "g", "trial_id": "stroop-trial-1-incongruent-17", "trial_type": "html-keyboard-response", "trial_index": 183, "time_elapsed": 1211887, "internal_node_id": "0.0-6.0-88.0"}}, {"uniqueid": "w39245123:a22586622", "current_trial": 184, "dateTime": 1664556441137, "trialdata": {"rt": 428, "stimulus": "<p id='stroop-text' class='stroop-green'>STONE</p>", "response": "g", "stimulus-type": "unrelated", "word": "STONE", "color": "green", "correct_response": "g", "trial_id": "stroop-trial-1-unrelated-25", "trial_type": "html-keyboard-response", "trial_index": 184, "time_elapsed": 1212818, "internal_node_id": "0.0-6.0-89.0"}}, {"uniqueid": "w39245123:a22586622", "current_trial": 185, "dateTime": 1664556443466, "trialdata": {"rt": 1825, "stimulus": "  <h1> End of block! </h1>\n\n  You have reached the end of the block 2/5. If you need a short break, feel free to take one now before moving on.\n\n  <br><br>\n  In the next block, you will complete another 90 rounds of this game.\n\n  <br><br>\n  <div style='text-align: center;'>Press <code>space</code> to begin.</div>\n  <br><br>\n<div style='text-align: center;'>(If the experiment doesn't continue, try clicking on the text and then pressing <code>space</code>.)</div>", "response": " ", "trial_id": "stroop_1_ready_3", "trial_type": "html-keyboard-response", "trial_index": 185, "time_elapsed": 1215148, "internal_node_id": "0.0-7.0"}}, {"uniqueid": "w39245123:a22586622", "current_trial": 186, "dateTime": 1664556445793, "trialdata": {"rt": 2325, "stimulus": "<p id='stroop-text' class='stroop-blue'>BLUE</p>", "response": "b", "stimulus-type": "congruent", "word": "blue", "color": "blue", "correct_response": "b", "trial_id": "stroop-trial-1-congruent-22", "trial_type": "html-keyboard-response", "trial_index": 186, "time_elapsed": 1217475, "internal_node_id": "0.0-8.0-0.0"}}, {"uniqueid": "w39245123:a22586622", "current_trial": 187, "dateTime": 1664556446981, "trialdata": {"rt": 685, "stimulus": "<p id='stroop-text' class='stroop-red'>RED</p>", "response": "r", "stimulus-type": "congruent", "word": "red", "color": "red", "correct_response": "r", "trial_id": "stroop-trial-1-congruent-25", "trial_type": "html-keyboard-response", "trial_index": 187, "time_elapsed": 1218663, "internal_node_id": "0.0-8.0-1.0"}}, {"uniqueid": "w39245123:a22586622", "current_trial": 188, "dateTime": 1664556448167, "trialdata": {"rt": 683, "stimulus": "<p id='stroop-text' class='stroop-yellow'>YELLOW</p>", "response": "y", "stimulus-type": "congruent", "word": "yellow", "color": "yellow", "correct_response": "y", "trial_id": "stroop-trial-1-congruent-2", "trial_type": "html-keyboard-response", "trial_index": 188, "time_elapsed": 1219849, "internal_node_id": "0.0-8.0-2.0"}}, {"uniqueid": "w39245123:a22586622", "current_trial": 189, "dateTime": 1664556449365, "trialdata": {"rt": 694, "stimulus": "<p id='stroop-text' class='stroop-blue'>GREEN</p>", "response": "b", "stimulus-type": "incongruent", "word": "green", "color": "blue", "correct_response": "b", "trial_id": "stroop-trial-1-incongruent-16", "trial_type": "html-keyboard-response", "trial_index": 189, "time_elapsed": 1221047, "internal_node_id": "0.0-8.0-3.0"}}, {"uniqueid": "w39245123:a22586622", "current_trial": 190, "dateTime": 1664556450476, "trialdata": {"rt": 608, "stimulus": "<p id='stroop-text' class='stroop-yellow'>YELLOW</p>", "response": "y", "stimulus-type": "congruent", "word": "yellow", "color": "yellow", "correct_response": "y", "trial_id": "stroop-trial-1-congruent-4", "trial_type": "html-keyboard-response", "trial_index": 190, "time_elapsed": 1222158, "internal_node_id": "0.0-8.0-4.0"}}, {"uniqueid": "w39245123:a22586622", "current_trial": 191, "dateTime": 1664556451709, "trialdata": {"rt": 730, "stimulus": "<p id='stroop-text' class='stroop-red'>FORK</p>", "response": "r", "stimulus-type": "unrelated", "word": "FORK", "color": "red", "correct_response": "r", "trial_id": "stroop-trial-1-unrelated-21", "trial_type": "html-keyboard-response", "trial_index": 191, "time_elapsed": 1223391, "internal_node_id": "0.0-8.0-5.0"}}, {"uniqueid": "w39245123:a22586622", "current_trial": 192, "dateTime": 1664556452807, "trialdata": {"rt": 593, "stimulus": "<p id='stroop-text' class='stroop-yellow'>YELLOW</p>", "response": "y", "stimulus-type": "congruent", "word": "yellow", "color": "yellow", "correct_response": "y", "trial_id": "stroop-trial-1-congruent-10", "trial_type": "html-keyboard-response", "trial_index": 192, "time_elapsed": 1224488, "internal_node_id": "0.0-8.0-6.0"}}, {"uniqueid": "w39245123:a22586622", "current_trial": 193, "dateTime": 1664556454167, "trialdata": {"rt": 857, "stimulus": "<p id='stroop-text' class='stroop-red'>BRIDGE</p>", "response": "r", "stimulus-type": "unrelated", "word": "BRIDGE", "color": "red", "correct_response": "r", "trial_id": "stroop-trial-1-unrelated-23", "trial_type": "html-keyboard-response", "trial_index": 193, "time_elapsed": 1225849, "internal_node_id": "0.0-8.0-7.0"}}, {"uniqueid": "w39245123:a22586622", "current_trial": 194, "dateTime": 1664556455854, "trialdata": {"rt": 1182, "stimulus": "<p id='stroop-text' class='stroop-blue'>RED</p>", "response": "b", "stimulus-type": "incongruent", "word": "red", "color": "blue", "correct_response": "b", "trial_id": "stroop-trial-1-incongruent-15", "trial_type": "html-keyboard-response", "trial_index": 194, "time_elapsed": 1227535, "internal_node_id": "0.0-8.0-8.0"}}, {"uniqueid": "w39245123:a22586622", "current_trial": 195, "dateTime": 1664556456955, "trialdata": {"rt": 598, "stimulus": "<p id='stroop-text' class='stroop-yellow'>DOG</p>", "response": "y", "stimulus-type": "unrelated", "word": "DOG", "color": "yellow", "correct_response": "y", "trial_id": "stroop-trial-1-unrelated-2", "trial_type": "html-keyboard-response", "trial_index": 195, "time_elapsed": 1228637, "internal_node_id": "0.0-8.0-9.0"}}, {"uniqueid": "w39245123:a22586622", "current_trial": 196, "dateTime": 1664556458027, "trialdata": {"rt": 569, "stimulus": "<p id='stroop-text' class='stroop-red'>GREEN</p>", "response": "r", "stimulus-type": "incongruent", "word": "green", "color": "red", "correct_response": "r", "trial_id": "stroop-trial-1-incongruent-28", "trial_type": "html-keyboard-response", "trial_index": 196, "time_elapsed": 1229709, "internal_node_id": "0.0-8.0-10.0"}}, {"uniqueid": "w39245123:a22586622", "current_trial": 197, "dateTime": 1664556459095, "trialdata": {"rt": 565, "stimulus": "<p id='stroop-text' class='stroop-green'>BLUE</p>", "response": "g", "stimulus-type": "incongruent", "word": "blue", "color": "green", "correct_response": "g", "trial_id": "stroop-trial-1-incongruent-14", "trial_type": "html-keyboard-response", "trial_index": 197, "time_elapsed": 1230777, "internal_node_id": "0.0-8.0-11.0"}}, {"uniqueid": "w39245123:a22586622", "current_trial": 198, "dateTime": 1664556460284, "trialdata": {"rt": 686, "stimulus": "<p id='stroop-text' class='stroop-red'>RED</p>", "response": "r", "stimulus-type": "congruent", "word": "red", "color": "red", "correct_response": "r", "trial_id": "stroop-trial-1-congruent-27", "trial_type": "html-keyboard-response", "trial_index": 198, "time_elapsed": 1231966, "internal_node_id": "0.0-8.0-12.0"}}, {"uniqueid": "w39245123:a22586622", "current_trial": 199, "dateTime": 1664556461884, "trialdata": {"rt": 1097, "stimulus": "<p id='stroop-text' class='stroop-yellow'>RED</p>", "response": "y", "stimulus-type": "incongruent", "word": "red", "color": "yellow", "correct_response": "y", "trial_id": "stroop-trial-1-incongruent-11", "trial_type": "html-keyboard-response", "trial_index": 199, "time_elapsed": 1233566, "internal_node_id": "0.0-8.0-13.0"}}, {"uniqueid": "w39245123:a22586622", "current_trial": 200, "dateTime": 1664556463537, "trialdata": {"rt": 1148, "stimulus": "<p id='stroop-text' class='stroop-yellow'>STONE</p>", "response": "y", "stimulus-type": "unrelated", "word": "STONE", "color": "yellow", "correct_response": "y", "trial_id": "stroop-trial-1-unrelated-22", "trial_type": "html-keyboard-response", "trial_index": 200, "time_elapsed": 1235218, "internal_node_id": "0.0-8.0-14.0"}}, {"uniqueid": "w39245123:a22586622", "current_trial": 201, "dateTime": 1664556464537, "trialdata": {"rt": 494, "stimulus": "<p id='stroop-text' class='stroop-green'>YELLOW</p>", "response": "g", "stimulus-type": "incongruent", "word": "yellow", "color": "green", "correct_response": "g", "trial_id": "stroop-trial-1-incongruent-30", "trial_type": "html-keyboard-response", "trial_index": 201, "time_elapsed": 1236218, "internal_node_id": "0.0-8.0-15.0"}}, {"uniqueid": "w39245123:a22586622", "current_trial": 202, "dateTime": 1664556465639, "trialdata": {"rt": 597, "stimulus": "<p id='stroop-text' class='stroop-yellow'>BRAIN</p>", "response": "y", "stimulus-type": "unrelated", "word": "BRAIN", "color": "yellow", "correct_response": "y", "trial_id": "stroop-trial-1-unrelated-14", "trial_type": "html-keyboard-response", "trial_index": 202, "time_elapsed": 1237319, "internal_node_id": "0.0-8.0-16.0"}}, {"uniqueid": "w39245123:a22586622", "current_trial": 203, "dateTime": 1664556466718, "trialdata": {"rt": 576, "stimulus": "<p id='stroop-text' class='stroop-blue'>BLUE</p>", "response": "b", "stimulus-type": "congruent", "word": "blue", "color": "blue", "correct_response": "b", "trial_id": "stroop-trial-1-congruent-3", "trial_type": "html-keyboard-response", "trial_index": 203, "time_elapsed": 1238400, "internal_node_id": "0.0-8.0-17.0"}}, {"uniqueid": "w39245123:a22586622", "current_trial": 204, "dateTime": 1664556467967, "trialdata": {"rt": 745, "stimulus": "<p id='stroop-text' class='stroop-red'>BLUE</p>", "response": "r", "stimulus-type": "incongruent", "word": "blue", "color": "red", "correct_response": "r", "trial_id": "stroop-trial-1-incongruent-20", "trial_type": "html-keyboard-response", "trial_index": 204, "time_elapsed": 1239649, "internal_node_id": "0.0-8.0-18.0"}}, {"uniqueid": "w39245123:a22586622", "current_trial": 205, "dateTime": 1664556470286, "trialdata": {"rt": 1815, "stimulus": "<p id='stroop-text' class='stroop-blue'>YELLOW</p>", "response": "b", "stimulus-type": "incongruent", "word": "yellow", "color": "blue", "correct_response": "b", "trial_id": "stroop-trial-1-incongruent-26", "trial_type": "html-keyboard-response", "trial_index": 205, "time_elapsed": 1241967, "internal_node_id": "0.0-8.0-19.0"}}, {"uniqueid": "w39245123:a22586622", "current_trial": 206, "dateTime": 1664556471284, "trialdata": {"rt": 493, "stimulus": "<p id='stroop-text' class='stroop-red'>RED</p>", "response": "y", "stimulus-type": "congruent", "word": "red", "color": "red", "correct_response": "r", "trial_id": "stroop-trial-1-congruent-20", "trial_type": "html-keyboard-response", "trial_index": 206, "time_elapsed": 1242966, "internal_node_id": "0.0-8.0-20.0"}}, {"uniqueid": "w39245123:a22586622", "current_trial": 207, "dateTime": 1664556472333, "trialdata": {"rt": 545, "stimulus": "<p id='stroop-text' class='stroop-yellow'>YELLOW</p>", "response": "y", "stimulus-type": "congruent", "word": "yellow", "color": "yellow", "correct_response": "y", "trial_id": "stroop-trial-1-congruent-8", "trial_type": "html-keyboard-response", "trial_index": 207, "time_elapsed": 1244014, "internal_node_id": "0.0-8.0-21.0"}}, {"uniqueid": "w39245123:a22586622", "current_trial": 208, "dateTime": 1664556473573, "trialdata": {"rt": 738, "stimulus": "<p id='stroop-text' class='stroop-blue'>SHIP</p>", "response": "b", "stimulus-type": "unrelated", "word": "SHIP", "color": "blue", "correct_response": "b", "trial_id": "stroop-trial-1-unrelated-8", "trial_type": "html-keyboard-response", "trial_index": 208, "time_elapsed": 1245254, "internal_node_id": "0.0-8.0-22.0"}}, {"uniqueid": "w39245123:a22586622", "current_trial": 209, "dateTime": 1664556474922, "trialdata": {"rt": 845, "stimulus": "<p id='stroop-text' class='stroop-blue'>YELLOW</p>", "response": "b", "stimulus-type": "incongruent", "word": "yellow", "color": "blue", "correct_response": "b", "trial_id": "stroop-trial-1-incongruent-7", "trial_type": "html-keyboard-response", "trial_index": 209, "time_elapsed": 1246604, "internal_node_id": "0.0-8.0-23.0"}}, {"uniqueid": "w39245123:a22586622", "current_trial": 210, "dateTime": 1664556476095, "trialdata": {"rt": 669, "stimulus": "<p id='stroop-text' class='stroop-yellow'>RED</p>", "response": "y", "stimulus-type": "incongruent", "word": "red", "color": "yellow", "correct_response": "y", "trial_id": "stroop-trial-1-incongruent-6", "trial_type": "html-keyboard-response", "trial_index": 210, "time_elapsed": 1247777, "internal_node_id": "0.0-8.0-24.0"}}, {"uniqueid": "w39245123:a22586622", "current_trial": 211, "dateTime": 1664556477250, "trialdata": {"rt": 651, "stimulus": "<p id='stroop-text' class='stroop-blue'>GREEN</p>", "response": "b", "stimulus-type": "incongruent", "word": "green", "color": "blue", "correct_response": "b", "trial_id": "stroop-trial-1-incongruent-29", "trial_type": "html-keyboard-response", "trial_index": 211, "time_elapsed": 1248932, "internal_node_id": "0.0-8.0-25.0"}}, {"uniqueid": "w39245123:a22586622", "current_trial": 212, "dateTime": 1664556478364, "trialdata": {"rt": 611, "stimulus": "<p id='stroop-text' class='stroop-red'>RED</p>", "response": "r", "stimulus-type": "congruent", "word": "red", "color": "red", "correct_response": "r", "trial_id": "stroop-trial-1-congruent-9", "trial_type": "html-keyboard-response", "trial_index": 212, "time_elapsed": 1250046, "internal_node_id": "0.0-8.0-26.0"}}, {"uniqueid": "w39245123:a22586622", "current_trial": 213, "dateTime": 1664556479452, "trialdata": {"rt": 583, "stimulus": "<p id='stroop-text' class='stroop-green'>GREEN</p>", "response": "g", "stimulus-type": "congruent", "word": "green", "color": "green", "correct_response": "g", "trial_id": "stroop-trial-1-congruent-17", "trial_type": "html-keyboard-response", "trial_index": 213, "time_elapsed": 1251133, "internal_node_id": "0.0-8.0-27.0"}}, {"uniqueid": "w39245123:a22586622", "current_trial": 214, "dateTime": 1664556480528, "trialdata": {"rt": 570, "stimulus": "<p id='stroop-text' class='stroop-blue'>BOTTLE</p>", "response": "b", "stimulus-type": "unrelated", "word": "BOTTLE", "color": "blue", "correct_response": "b", "trial_id": "stroop-trial-1-unrelated-18", "trial_type": "html-keyboard-response", "trial_index": 214, "time_elapsed": 1252210, "internal_node_id": "0.0-8.0-28.0"}}, {"uniqueid": "w39245123:a22586622", "current_trial": 215, "dateTime": 1664556481685, "trialdata": {"rt": 654, "stimulus": "<p id='stroop-text' class='stroop-blue'>BLUE</p>", "response": "b", "stimulus-type": "congruent", "word": "blue", "color": "blue", "correct_response": "b", "trial_id": "stroop-trial-1-congruent-13", "trial_type": "html-keyboard-response", "trial_index": 215, "time_elapsed": 1253367, "internal_node_id": "0.0-8.0-29.0"}}, {"uniqueid": "w39245123:a22586622", "current_trial": 216, "dateTime": 1664556482726, "trialdata": {"rt": 537, "stimulus": "<p id='stroop-text' class='stroop-blue'>BLUE</p>", "response": "b", "stimulus-type": "congruent", "word": "blue", "color": "blue", "correct_response": "b", "trial_id": "stroop-trial-1-congruent-26", "trial_type": "html-keyboard-response", "trial_index": 216, "time_elapsed": 1254408, "internal_node_id": "0.0-8.0-30.0"}}, {"uniqueid": "w39245123:a22586622", "current_trial": 217, "dateTime": 1664556483637, "trialdata": {"rt": 408, "stimulus": "<p id='stroop-text' class='stroop-blue'>BOTTLE</p>", "response": "b", "stimulus-type": "unrelated", "word": "BOTTLE", "color": "blue", "correct_response": "b", "trial_id": "stroop-trial-1-unrelated-16", "trial_type": "html-keyboard-response", "trial_index": 217, "time_elapsed": 1255319, "internal_node_id": "0.0-8.0-31.0"}}, {"uniqueid": "w39245123:a22586622", "current_trial": 218, "dateTime": 1664556484739, "trialdata": {"rt": 597, "stimulus": "<p id='stroop-text' class='stroop-green'>YELLOW</p>", "response": "g", "stimulus-type": "incongruent", "word": "yellow", "color": "green", "correct_response": "g", "trial_id": "stroop-trial-1-incongruent-5", "trial_type": "html-keyboard-response", "trial_index": 218, "time_elapsed": 1256421, "internal_node_id": "0.0-8.0-32.0"}}, {"uniqueid": "w39245123:a22586622", "current_trial": 219, "dateTime": 1664556485830, "trialdata": {"rt": 588, "stimulus": "<p id='stroop-text' class='stroop-yellow'>WINDOW</p>", "response": "y", "stimulus-type": "unrelated", "word": "WINDOW", "color": "yellow", "correct_response": "y", "trial_id": "stroop-trial-1-unrelated-29", "trial_type": "html-keyboard-response", "trial_index": 219, "time_elapsed": 1257512, "internal_node_id": "0.0-8.0-33.0"}}, {"uniqueid": "w39245123:a22586622", "current_trial": 220, "dateTime": 1664556486916, "trialdata": {"rt": 582, "stimulus": "<p id='stroop-text' class='stroop-yellow'>BOTTLE</p>", "response": "y", "stimulus-type": "unrelated", "word": "BOTTLE", "color": "yellow", "correct_response": "y", "trial_id": "stroop-trial-1-unrelated-17", "trial_type": "html-keyboard-response", "trial_index": 220, "time_elapsed": 1258597, "internal_node_id": "0.0-8.0-34.0"}}, {"uniqueid": "w39245123:a22586622", "current_trial": 221, "dateTime": 1664556488759, "trialdata": {"rt": 1340, "stimulus": "<p id='stroop-text' class='stroop-green'>RED</p>", "response": "g", "stimulus-type": "incongruent", "word": "red", "color": "green", "correct_response": "g", "trial_id": "stroop-trial-1-incongruent-27", "trial_type": "html-keyboard-response", "trial_index": 221, "time_elapsed": 1260441, "internal_node_id": "0.0-8.0-35.0"}}, {"uniqueid": "w39245123:a22586622", "current_trial": 222, "dateTime": 1664556489899, "trialdata": {"rt": 635, "stimulus": "<p id='stroop-text' class='