{"condition": 0, "counterbalance": 0, "assignmentId": "a26738058", "workerId": "w61134596", "hitId": "h70789944", "currenttrial": 863, "bonus": 0, "data": [{"uniqueid": "w61134596:a26738058", "current_trial": 0, "dateTime": 1664555697010, "trialdata": {"success": true, "trial_type": "fullscreen", "trial_index": 0, "time_elapsed": 3205, "internal_node_id": "0.0-0.0"}}, {"uniqueid": "w61134596:a26738058", "current_trial": 1, "dateTime": 1664555769983, "trialdata": {"view_history": [{"page_index": 0, "viewing_time": 72967}], "rt": 72969, "trial_id": "exp_instructions_distractor", "trial_type": "instructions", "trial_index": 1, "time_elapsed": 76178, "internal_node_id": "0.0-1.0"}}, {"uniqueid": "w61134596:a26738058", "current_trial": 2, "dateTime": 1664555809718, "trialdata": {"view_history": [{"page_index": 0, "viewing_time": 39733}], "rt": 39734, "trial_id": "color_game_instructions", "trial_type": "instructions", "trial_index": 2, "time_elapsed": 115913, "internal_node_id": "0.0-2.0"}}, {"uniqueid": "w61134596:a26738058", "current_trial": 3, "dateTime": 1664555815836, "trialdata": {"rt": 6114, "stimulus": "<h1> Get ready to start the game! </h1>\n\nThank you for reading the instructions. Get ready start with the first of 5 block(s) of this game.\n<br><br>\nIn this first block, you will complete 90 rounds of this game before moving on.\n<br><br>\nRemember, the better you perform, the bigger your bonus will be!\n<br><br>\n<div style='text-align: center;'>Press <code>space</code> to begin.</div>", "response": " ", "trial_id": "stroop_1_ready_1", "trial_type": "html-keyboard-response", "trial_index": 3, "time_elapsed": 122031, "internal_node_id": "0.0-3.0"}}, {"uniqueid": "w61134596:a26738058", "current_trial": 4, "dateTime": 1664555817232, "trialdata": {"rt": 1387, "stimulus": "<p id='stroop-text' class='stroop-yellow'>BOTTLE</p>", "response": "y", "stimulus-type": "unrelated", "word": "BOTTLE", "color": "yellow", "correct_response": "y", "trial_id": "stroop-trial-1-unrelated-22", "trial_type": "html-keyboard-response", "trial_index": 4, "time_elapsed": 123426, "internal_node_id": "0.0-4.0-0.0"}}, {"uniqueid": "w61134596:a26738058", "current_trial": 5, "dateTime": 1664555819315, "trialdata": {"rt": 1580, "stimulus": "<p id='stroop-text' class='stroop-red'>BOAT</p>", "response": "r", "stimulus-type": "unrelated", "word": "BOAT", "color": "red", "correct_response": "r", "trial_id": "stroop-trial-1-unrelated-29", "trial_type": "html-keyboard-response", "trial_index": 5, "time_elapsed": 125509, "internal_node_id": "0.0-4.0-1.0"}}, {"uniqueid": "w61134596:a26738058", "current_trial": 6, "dateTime": 1664555820897, "trialdata": {"rt": 1077, "stimulus": "<p id='stroop-text' class='stroop-blue'>GREEN</p>", "response": "b", "stimulus-type": "incongruent", "word": "green", "color": "blue", "correct_response": "b", "trial_id": "stroop-trial-1-incongruent-25", "trial_type": "html-keyboard-response", "trial_index": 6, "time_elapsed": 127091, "internal_node_id": "0.0-4.0-2.0"}}, {"uniqueid": "w61134596:a26738058", "current_trial": 7, "dateTime": 1664555822274, "trialdata": {"rt": 873, "stimulus": "<p id='stroop-text' class='stroop-blue'>YELLOW</p>", "response": "y", "stimulus-type": "incongruent", "word": "yellow", "color": "blue", "correct_response": "b", "trial_id": "stroop-trial-1-incongruent-26", "trial_type": "html-keyboard-response", "trial_index": 7, "time_elapsed": 128468, "internal_node_id": "0.0-4.0-3.0"}}, {"uniqueid": "w61134596:a26738058", "current_trial": 8, "dateTime": 1664555823830, "trialdata": {"rt": 1054, "stimulus": "<p id='stroop-text' class='stroop-blue'>BLUE</p>", "response": "b", "stimulus-type": "congruent", "word": "blue", "color": "blue", "correct_response": "b", "trial_id": "stroop-trial-1-congruent-12", "trial_type": "html-keyboard-response", "trial_index": 8, "time_elapsed": 130025, "internal_node_id": "0.0-4.0-4.0"}}, {"uniqueid": "w61134596:a26738058", "current_trial": 9, "dateTime": 1664555825264, "trialdata": {"rt": 931, "stimulus": "<p id='stroop-text' class='stroop-yellow'>BLUE</p>", "response": "y", "stimulus-type": "incongruent", "word": "blue", "color": "yellow", "correct_response": "y", "trial_id": "stroop-trial-1-incongruent-22", "trial_type": "html-keyboard-response", "trial_index": 9, "time_elapsed": 131458, "internal_node_id": "0.0-4.0-5.0"}}, {"uniqueid": "w61134596:a26738058", "current_trial": 10, "dateTime": 1664555826572, "trialdata": {"rt": 805, "stimulus": "<p id='stroop-text' class='stroop-yellow'>STONE</p>", "response": "y", "stimulus-type": "unrelated", "word": "STONE", "color": "yellow", "correct_response": "y", "trial_id": "stroop-trial-1-unrelated-30", "trial_type": "html-keyboard-response", "trial_index": 10, "time_elapsed": 132767, "internal_node_id": "0.0-4.0-6.0"}}, {"uniqueid": "w61134596:a26738058", "current_trial": 11, "dateTime": 1664555827925, "trialdata": {"rt": 848, "stimulus": "<p id='stroop-text' class='stroop-blue'>RED</p>", "response": "b", "stimulus-type": "incongruent", "word": "red", "color": "blue", "correct_response": "b", "trial_id": "stroop-trial-1-incongruent-11", "trial_type": "html-keyboard-response", "trial_index": 11, "time_elapsed": 134119, "internal_node_id": "0.0-4.0-7.0"}}, {"uniqueid": "w61134596:a26738058", "current_trial": 12, "dateTime": 1664555829398, "trialdata": {"rt": 970, "stimulus": "<p id='stroop-text' class='stroop-blue'>MONKEY</p>", "response": "b", "stimulus-type": "unrelated", "word": "MONKEY", "color": "blue", "correct_response": "b", "trial_id": "stroop-trial-1-unrelated-18", "trial_type": "html-keyboard-response", "trial_index": 12, "time_elapsed": 135592, "internal_node_id": "0.0-4.0-8.0"}}, {"uniqueid": "w61134596:a26738058", "current_trial": 13, "dateTime": 1664555830524, "trialdata": {"rt": 624, "stimulus": "<p id='stroop-text' class='stroop-red'>RED</p>", "response": "r", "stimulus-type": "congruent", "word": "red", "color": "red", "correct_response": "r", "trial_id": "stroop-trial-1-congruent-13", "trial_type": "html-keyboard-response", "trial_index": 13, "time_elapsed": 136719, "internal_node_id": "0.0-4.0-9.0"}}, {"uniqueid": "w61134596:a26738058", "current_trial": 14, "dateTime": 1664555832264, "trialdata": {"rt": 1236, "stimulus": "<p id='stroop-text' class='stroop-green'>STONE</p>", "response": "g", "stimulus-type": "unrelated", "word": "STONE", "color": "green", "correct_response": "g", "trial_id": "stroop-trial-1-unrelated-24", "trial_type": "html-keyboard-response", "trial_index": 14, "time_elapsed": 138459, "internal_node_id": "0.0-4.0-10.0"}}, {"uniqueid": "w61134596:a26738058", "current_trial": 15, "dateTime": 1664555833936, "trialdata": {"rt": 1168, "stimulus": "<p id='stroop-text' class='stroop-yellow'>GREEN</p>", "response": "y", "stimulus-type": "incongruent", "word": "green", "color": "yellow", "correct_response": "y", "trial_id": "stroop-trial-1-incongruent-2", "trial_type": "html-keyboard-response", "trial_index": 15, "time_elapsed": 140131, "internal_node_id": "0.0-4.0-11.0"}}, {"uniqueid": "w61134596:a26738058", "current_trial": 16, "dateTime": 1664555835736, "trialdata": {"rt": 1297, "stimulus": "<p id='stroop-text' class='stroop-green'>YELLOW</p>", "response": "b", "stimulus-type": "incongruent", "word": "yellow", "color": "green", "correct_response": "g", "trial_id": "stroop-trial-1-incongruent-16", "trial_type": "html-keyboard-response", "trial_index": 16, "time_elapsed": 141930, "internal_node_id": "0.0-4.0-12.0"}}, {"uniqueid": "w61134596:a26738058", "current_trial": 17, "dateTime": 1664555837299, "trialdata": {"rt": 1060, "stimulus": "<p id='stroop-text' class='stroop-red'>RED</p>", "response": "r", "stimulus-type": "congruent", "word": "red", "color": "red", "correct_response": "r", "trial_id": "stroop-trial-1-congruent-10", "trial_type": "html-keyboard-response", "trial_index": 17, "time_elapsed": 143494, "internal_node_id": "0.0-4.0-13.0"}}, {"uniqueid": "w61134596:a26738058", "current_trial": 18, "dateTime": 1664555838615, "trialdata": {"rt": 811, "stimulus": "<p id='stroop-text' class='stroop-red'>GREEN</p>", "response": "r", "stimulus-type": "incongruent", "word": "green", "color": "red", "correct_response": "r", "trial_id": "stroop-trial-1-incongruent-1", "trial_type": "html-keyboard-response", "trial_index": 18, "time_elapsed": 144810, "internal_node_id": "0.0-4.0-14.0"}}, {"uniqueid": "w61134596:a26738058", "current_trial": 19, "dateTime": 1664555840347, "trialdata": {"rt": 1227, "stimulus": "<p id='stroop-text' class='stroop-blue'>FORK</p>", "response": "b", "stimulus-type": "unrelated", "word": "FORK", "color": "blue", "correct_response": "b", "trial_id": "stroop-trial-1-unrelated-1", "trial_type": "html-keyboard-response", "trial_index": 19, "time_elapsed": 146541, "internal_node_id": "0.0-4.0-15.0"}}, {"uniqueid": "w61134596:a26738058", "current_trial": 20, "dateTime": 1664555841802, "trialdata": {"rt": 951, "stimulus": "<p id='stroop-text' class='stroop-red'>BRIDGE</p>", "response": "r", "stimulus-type": "unrelated", "word": "BRIDGE", "color": "red", "correct_response": "r", "trial_id": "stroop-trial-1-unrelated-2", "trial_type": "html-keyboard-response", "trial_index": 20, "time_elapsed": 147997, "internal_node_id": "0.0-4.0-16.0"}}, {"uniqueid": "w61134596:a26738058", "current_trial": 21, "dateTime": 1664555843623, "trialdata": {"rt": 1317, "stimulus": "<p id='stroop-text' class='stroop-yellow'>RED</p>", "response": "y", "stimulus-type": "incongruent", "word": "red", "color": "yellow", "correct_response": "y", "trial_id": "stroop-trial-1-incongruent-15", "trial_type": "html-keyboard-response", "trial_index": 21, "time_elapsed": 149817, "internal_node_id": "0.0-4.0-17.0"}}, {"uniqueid": "w61134596:a26738058", "current_trial": 22, "dateTime": 1664555844970, "trialdata": {"rt": 843, "stimulus": "<p id='stroop-text' class='stroop-blue'>YELLOW</p>", "response": "b", "stimulus-type": "incongruent", "word": "yellow", "color": "blue", "correct_response": "b", "trial_id": "stroop-trial-1-incongruent-27", "trial_type": "html-keyboard-response", "trial_index": 22, "time_elapsed": 151164, "internal_node_id": "0.0-4.0-18.0"}}, {"uniqueid": "w61134596:a26738058", "current_trial": 23, "dateTime": 1664555846524, "trialdata": {"rt": 1051, "stimulus": "<p id='stroop-text' class='stroop-blue'>RED</p>", "response": "b", "stimulus-type": "incongruent", "word": "red", "color": "blue", "correct_response": "b", "trial_id": "stroop-trial-1-incongruent-3", "trial_type": "html-keyboard-response", "trial_index": 23, "time_elapsed": 152718, "internal_node_id": "0.0-4.0-19.0"}}, {"uniqueid": "w61134596:a26738058", "current_trial": 24, "dateTime": 1664555847901, "trialdata": {"rt": 874, "stimulus": "<p id='stroop-text' class='stroop-green'>GREEN</p>", "response": "g", "stimulus-type": "congruent", "word": "green", "color": "green", "correct_response": "g", "trial_id": "stroop-trial-1-congruent-24", "trial_type": "html-keyboard-response", "trial_index": 24, "time_elapsed": 154096, "internal_node_id": "0.0-4.0-20.0"}}, {"uniqueid": "w61134596:a26738058", "current_trial": 25, "dateTime": 1664555849359, "trialdata": {"rt": 955, "stimulus": "<p id='stroop-text' class='stroop-red'>RED</p>", "response": "r", "stimulus-type": "congruent", "word": "red", "color": "red", "correct_response": "r", "trial_id": "stroop-trial-1-congruent-9", "trial_type": "html-keyboard-response", "trial_index": 25, "time_elapsed": 155554, "internal_node_id": "0.0-4.0-21.0"}}, {"uniqueid": "w61134596:a26738058", "current_trial": 26, "dateTime": 1664555850665, "trialdata": {"rt": 802, "stimulus": "<p id='stroop-text' class='stroop-yellow'>BRAIN</p>", "response": "y", "stimulus-type": "unrelated", "word": "BRAIN", "color": "yellow", "correct_response": "y", "trial_id": "stroop-trial-1-unrelated-28", "trial_type": "html-keyboard-response", "trial_index": 26, "time_elapsed": 156860, "internal_node_id": "0.0-4.0-22.0"}}, {"uniqueid": "w61134596:a26738058", "current_trial": 27, "dateTime": 1664555852001, "trialdata": {"rt": 833, "stimulus": "<p id='stroop-text' class='stroop-blue'>BLUE</p>", "response": "b", "stimulus-type": "congruent", "word": "blue", "color": "blue", "correct_response": "b", "trial_id": "stroop-trial-1-congruent-8", "trial_type": "html-keyboard-response", "trial_index": 27, "time_elapsed": 158196, "internal_node_id": "0.0-4.0-23.0"}}, {"uniqueid": "w61134596:a26738058", "current_trial": 28, "dateTime": 1664555853597, "trialdata": {"rt": 1092, "stimulus": "<p id='stroop-text' class='stroop-green'>CHAIR</p>", "response": "g", "stimulus-type": "unrelated", "word": "CHAIR", "color": "green", "correct_response": "g", "trial_id": "stroop-trial-1-unrelated-4", "trial_type": "html-keyboard-response", "trial_index": 28, "time_elapsed": 159792, "internal_node_id": "0.0-4.0-24.0"}}, {"uniqueid": "w61134596:a26738058", "current_trial": 29, "dateTime": 1664555854704, "trialdata": {"rt": 601, "stimulus": "<p id='stroop-text' class='stroop-red'>RED</p>", "response": "r", "stimulus-type": "congruent", "word": "red", "color": "red", "correct_response": "r", "trial_id": "stroop-trial-1-congruent-21", "trial_type": "html-keyboard-response", "trial_index": 29, "time_elapsed": 160898, "internal_node_id": "0.0-4.0-25.0"}}, {"uniqueid": "w61134596:a26738058", "current_trial": 30, "dateTime": 1664555856220, "trialdata": {"rt": 1011, "stimulus": "<p id='stroop-text' class='stroop-blue'>BLUE</p>", "response": "b", "stimulus-type": "congruent", "word": "blue", "color": "blue", "correct_response": "b", "trial_id": "stroop-trial-1-congruent-17", "trial_type": "html-keyboard-response", "trial_index": 30, "time_elapsed": 162415, "internal_node_id": "0.0-4.0-26.0"}}, {"uniqueid": "w61134596:a26738058", "current_trial": 31, "dateTime": 1664555857676, "trialdata": {"rt": 952, "stimulus": "<p id='stroop-text' class='stroop-green'>GREEN</p>", "response": "g", "stimulus-type": "congruent", "word": "green", "color": "green", "correct_response": "g", "trial_id": "stroop-trial-1-congruent-20", "trial_type": "html-keyboard-response", "trial_index": 31, "time_elapsed": 163870, "internal_node_id": "0.0-4.0-27.0"}}, {"uniqueid": "w61134596:a26738058", "current_trial": 32, "dateTime": 1664555859100, "trialdata": {"rt": 921, "stimulus": "<p id='stroop-text' class='stroop-blue'>GREEN</p>", "response": "b", "stimulus-type": "incongruent", "word": "green", "color": "blue", "correct_response": "b", "trial_id": "stroop-trial-1-incongruent-6", "trial_type": "html-keyboard-response", "trial_index": 32, "time_elapsed": 165295, "internal_node_id": "0.0-4.0-28.0"}}, {"uniqueid": "w61134596:a26738058", "current_trial": 33, "dateTime": 1664555860372, "trialdata": {"rt": 769, "stimulus": "<p id='stroop-text' class='stroop-yellow'>YELLOW</p>", "response": "y", "stimulus-type": "congruent", "word": "yellow", "color": "yellow", "correct_response": "y", "trial_id": "stroop-trial-1-congruent-30", "trial_type": "html-keyboard-response", "trial_index": 33, "time_elapsed": 166567, "internal_node_id": "0.0-4.0-29.0"}}, {"uniqueid": "w61134596:a26738058", "current_trial": 34, "dateTime": 1664555861660, "trialdata": {"rt": 785, "stimulus": "<p id='stroop-text' class='stroop-green'>YELLOW</p>", "response": "g", "stimulus-type": "incongruent", "word": "yellow", "color": "green", "correct_response": "g", "trial_id": "stroop-trial-1-incongruent-13", "trial_type": "html-keyboard-response", "trial_index": 34, "time_elapsed": 167854, "internal_node_id": "0.0-4.0-30.0"}}, {"uniqueid": "w61134596:a26738058", "current_trial": 35, "dateTime": 1664555862997, "trialdata": {"rt": 834, "stimulus": "<p id='stroop-text' class='stroop-blue'>BLUE</p>", "response": "b", "stimulus-type": "congruent", "word": "blue", "color": "blue", "correct_response": "b", "trial_id": "stroop-trial-1-congruent-1", "trial_type": "html-keyboard-response", "trial_index": 35, "time_elapsed": 169192, "internal_node_id": "0.0-4.0-31.0"}}, {"uniqueid": "w61134596:a26738058", "current_trial": 36, "dateTime": 1664555864791, "trialdata": {"rt": 1289, "stimulus": "<p id='stroop-text' class='stroop-green'>YELLOW</p>", "response": "g", "stimulus-type": "incongruent", "word": "yellow", "color": "green", "correct_response": "g", "trial_id": "stroop-trial-1-incongruent-18", "trial_type": "html-keyboard-response", "trial_index": 36, "time_elapsed": 170985, "internal_node_id": "0.0-4.0-32.0"}}, {"uniqueid": "w61134596:a26738058", "current_trial": 37, "dateTime": 1664555866108, "trialdata": {"rt": 813, "stimulus": "<p id='stroop-text' class='stroop-red'>RED</p>", "response": "r", "stimulus-type": "congruent", "word": "red", "color": "red", "correct_response": "r", "trial_id": "stroop-trial-1-congruent-27", "trial_type": "html-keyboard-response", "trial_index": 37, "time_elapsed": 172303, "internal_node_id": "0.0-4.0-33.0"}}, {"uniqueid": "w61134596:a26738058", "current_trial": 38, "dateTime": 1664555867396, "trialdata": {"rt": 783, "stimulus": "<p id='stroop-text' class='stroop-blue'>MONKEY</p>", "response": "b", "stimulus-type": "unrelated", "word": "MONKEY", "color": "blue", "correct_response": "b", "trial_id": "stroop-trial-1-unrelated-9", "trial_type": "html-keyboard-response", "trial_index": 38, "time_elapsed": 173590, "internal_node_id": "0.0-4.0-34.0"}}, {"uniqueid": "w61134596:a26738058", "current_trial": 39, "dateTime": 1664555868502, "trialdata": {"rt": 602, "stimulus": "<p id='stroop-text' class='stroop-blue'>YELLOW</p>", "response": "b", "stimulus-type": "incongruent", "word": "yellow", "color": "blue", "correct_response": "b", "trial_id": "stroop-trial-1-incongruent-21", "trial_type": "html-keyboard-response", "trial_index": 39, "time_elapsed": 174696, "internal_node_id": "0.0-4.0-35.0"}}, {"uniqueid": "w61134596:a26738058", "current_trial": 40, "dateTime": 1664555869540, "trialdata": {"rt": 533, "stimulus": "<p id='stroop-text' class='stroop-blue'>BLUE</p>", "response": "b", "stimulus-type": "congruent", "word": "blue", "color": "blue", "correct_response": "b", "trial_id": "stroop-trial-1-congruent-22", "trial_type": "html-keyboard-response", "trial_index": 40, "time_elapsed": 175735, "internal_node_id": "0.0-4.0-36.0"}}, {"uniqueid": "w61134596:a26738058", "current_trial": 41, "dateTime": 1664555870409, "trialdata": {"rt": 365, "stimulus": "<p id='stroop-text' class='stroop-blue'>BLUE</p>", "response": "b", "stimulus-type": "congruent", "word": "blue", "color": "blue", "correct_response": "b", "trial_id": "stroop-trial-1-congruent-15", "trial_type": "html-keyboard-response", "trial_index": 41, "time_elapsed": 176603, "internal_node_id": "0.0-4.0-37.0"}}, {"uniqueid": "w61134596:a26738058", "current_trial": 42, "dateTime": 1664555871419, "trialdata": {"rt": 505, "stimulus": "<p id='stroop-text' class='stroop-blue'>BOAT</p>", "response": "b", "stimulus-type": "unrelated", "word": "BOAT", "color": "blue", "correct_response": "b", "trial_id": "stroop-trial-1-unrelated-14", "trial_type": "html-keyboard-response", "trial_index": 42, "time_elapsed": 177613, "internal_node_id": "0.0-4.0-38.0"}}, {"uniqueid": "w61134596:a26738058", "current_trial": 43, "dateTime": 1664555872472, "trialdata": {"rt": 550, "stimulus": "<p id='stroop-text' class='stroop-red'>RED</p>", "response": "r", "stimulus-type": "congruent", "word": "red", "color": "red", "correct_response": "r", "trial_id": "stroop-trial-1-congruent-7", "trial_type": "html-keyboard-response", "trial_index": 43, "time_elapsed": 178667, "internal_node_id": "0.0-4.0-39.0"}}, {"uniqueid": "w61134596:a26738058", "current_trial": 44, "dateTime": 1664555873626, "trialdata": {"rt": 650, "stimulus": "<p id='stroop-text' class='stroop-blue'>GREEN</p>", "response": "b", "stimulus-type": "incongruent", "word": "green", "color": "blue", "correct_response": "b", "trial_id": "stroop-trial-1-incongruent-28", "trial_type": "html-keyboard-response", "trial_index": 44, "time_elapsed": 179821, "internal_node_id": "0.0-4.0-40.0"}}, {"uniqueid": "w61134596:a26738058", "current_trial": 45, "dateTime": 1664555874871, "trialdata": {"rt": 740, "stimulus": "<p id='stroop-text' class='stroop-green'>STONE</p>", "response": "g", "stimulus-type": "unrelated", "word": "STONE", "color": "green", "correct_response": "g", "trial_id": "stroop-trial-1-unrelated-7", "trial_type": "html-keyboard-response", "trial_index": 45, "time_elapsed": 181065, "internal_node_id": "0.0-4.0-41.0"}}, {"uniqueid": "w61134596:a26738058", "current_trial": 46, "dateTime": 1664555875984, "trialdata": {"rt": 608, "stimulus": "<p id='stroop-text' class='stroop-yellow'>GREEN</p>", "response": "y", "stimulus-type": "incongruent", "word": "green", "color": "yellow", "correct_response": "y", "trial_id": "stroop-trial-1-incongruent-20", "trial_type": "html-keyboard-response", "trial_index": 46, "time_elapsed": 182179, "internal_node_id": "0.0-4.0-42.0"}}, {"uniqueid": "w61134596:a26738058", "current_trial": 47, "dateTime": 1664555877137, "trialdata": {"rt": 648, "stimulus": "<p id='stroop-text' class='stroop-red'>RED</p>", "response": "r", "stimulus-type": "congruent", "word": "red", "color": "red", "correct_response": "r", "trial_id": "stroop-trial-1-congruent-14", "trial_type": "html-keyboard-response", "trial_index": 47, "time_elapsed": 183332, "internal_node_id": "0.0-4.0-43.0"}}, {"uniqueid": "w61134596:a26738058", "current_trial": 48, "dateTime": 1664555878282, "trialdata": {"rt": 641, "stimulus": "<p id='stroop-text' class='stroop-blue'>WINDOW</p>", "response": "b", "stimulus-type": "unrelated", "word": "WINDOW", "color": "blue", "correct_response": "b", "trial_id": "stroop-trial-1-unrelated-20", "trial_type": "html-keyboard-response", "trial_index": 48, "time_elapsed": 184477, "internal_node_id": "0.0-4.0-44.0"}}, {"uniqueid": "w61134596:a26738058", "current_trial": 49, "dateTime": 1664555879780, "trialdata": {"rt": 993, "stimulus": "<p id='stroop-text' class='stroop-green'>YELLOW</p>", "response": "g", "stimulus-type": "incongruent", "word": "yellow", "color": "green", "correct_response": "g", "trial_id": "stroop-trial-1-incongruent-29", "trial_type": "html-keyboard-response", "trial_index": 49, "time_elapsed": 185974, "internal_node_id": "0.0-4.0-45.0"}}, {"uniqueid": "w61134596:a26738058", "current_trial": 50, "dateTime": 1664555881017, "trialdata": {"rt": 734, "stimulus": "<p id='stroop-text' class='stroop-blue'>GREEN</p>", "response": "b", "stimulus-type": "incongruent", "word": "green", "color": "blue", "correct_response": "b", "trial_id": "stroop-trial-1-incongruent-9", "trial_type": "html-keyboard-response", "trial_index": 50, "time_elapsed": 187211, "internal_node_id": "0.0-4.0-46.0"}}, {"uniqueid": "w61134596:a26738058", "current_trial": 51, "dateTime": 1664555882214, "trialdata": {"rt": 694, "stimulus": "<p id='stroop-text' class='stroop-yellow'>BRIDGE</p>", "response": "y", "stimulus-type": "unrelated", "word": "BRIDGE", "color": "yellow", "correct_response": "y", "trial_id": "stroop-trial-1-unrelated-16", "trial_type": "html-keyboard-response", "trial_index": 51, "time_elapsed": 188408, "internal_node_id": "0.0-4.0-47.0"}}, {"uniqueid": "w61134596:a26738058", "current_trial": 52, "dateTime": 1664555883272, "trialdata": {"rt": 552, "stimulus": "<p id='stroop-text' class='stroop-red'>RED</p>", "response": "r", "stimulus-type": "congruent", "word": "red", "color": "red", "correct_response": "r", "trial_id": "stroop-trial-1-congruent-26", "trial_type": "html-keyboard-response", "trial_index": 52, "time_elapsed": 189464, "internal_node_id": "0.0-4.0-48.0"}}, {"uniqueid": "w61134596:a26738058", "current_trial": 53, "dateTime": 1664555884625, "trialdata": {"rt": 850, "stimulus": "<p id='stroop-text' class='stroop-blue'>BLUE</p>", "response": "b", "stimulus-type": "congruent", "word": "blue", "color": "blue", "correct_response": "b", "trial_id": "stroop-trial-1-congruent-3", "trial_type": "html-keyboard-response", "trial_index": 53, "time_elapsed": 190820, "internal_node_id": "0.0-4.0-49.0"}}, {"uniqueid": "w61134596:a26738058", "current_trial": 54, "dateTime": 1664555885851, "trialdata": {"rt": 723, "stimulus": "<p id='stroop-text' class='stroop-green'>BRAIN</p>", "response": "g", "stimulus-type": "unrelated", "word": "BRAIN", "color": "green", "correct_response": "g", "trial_id": "stroop-trial-1-unrelated-25", "trial_type": "html-keyboard-response", "trial_index": 54, "time_elapsed": 192046, "internal_node_id": "0.0-4.0-50.0"}}, {"uniqueid": "w61134596:a26738058", "current_trial": 55, "dateTime": 1664555886879, "trialdata": {"rt": 524, "stimulus": "<p id='stroop-text' class='stroop-green'>GREEN</p>", "response": "g", "stimulus-type": "congruent", "word": "green", "color": "green", "correct_response": "g", "trial_id": "stroop-trial-1-congruent-4", "trial_type": "html-keyboard-response", "trial_index": 55, "time_elapsed": 193073, "internal_node_id": "0.0-4.0-51.0"}}, {"uniqueid": "w61134596:a26738058", "current_trial": 56, "dateTime": 1664555888264, "trialdata": {"rt": 882, "stimulus": "<p id='stroop-text' class='stroop-yellow'>YELLOW</p>", "response": "y", "stimulus-type": "congruent", "word": "yellow", "color": "yellow", "correct_response": "y", "trial_id": "stroop-trial-1-congruent-11", "trial_type": "html-keyboard-response", "trial_index": 56, "time_elapsed": 194459, "internal_node_id": "0.0-4.0-52.0"}}, {"uniqueid": "w61134596:a26738058", "current_trial": 57, "dateTime": 1664555889433, "trialdata": {"rt": 665, "stimulus": "<p id='stroop-text' class='stroop-green'>BLUE</p>", "response": "g", "stimulus-type": "incongruent", "word": "blue", "color": "green", "correct_response": "g", "trial_id": "stroop-trial-1-incongruent-10", "trial_type": "html-keyboard-response", "trial_index": 57, "time_elapsed": 195627, "internal_node_id": "0.0-4.0-53.0"}}, {"uniqueid": "w61134596:a26738058", "current_trial": 58, "dateTime": 1664555890706, "trialdata": {"rt": 769, "stimulus": "<p id='stroop-text' class='stroop-blue'>GREEN</p>", "response": "b", "stimulus-type": "incongruent", "word": "green", "color": "blue", "correct_response": "b", "trial_id": "stroop-trial-1-incongruent-19", "trial_type": "html-keyboard-response", "trial_index": 58, "time_elapsed": 196900, "internal_node_id": "0.0-4.0-54.0"}}, {"uniqueid": "w61134596:a26738058", "current_trial": 59, "dateTime": 1664555891770, "trialdata": {"rt": 560, "stimulus": "<p id='stroop-text' class='stroop-blue'>BRIDGE</p>", "response": "b", "stimulus-type": "unrelated", "word": "BRIDGE", "color": "blue", "correct_response": "b", "trial_id": "stroop-trial-1-unrelated-10", "trial_type": "html-keyboard-response", "trial_index": 59, "time_elapsed": 197964, "internal_node_id": "0.0-4.0-55.0"}}, {"uniqueid": "w61134596:a26738058", "current_trial": 60, "dateTime": 1664555892858, "trialdata": {"rt": 585, "stimulus": "<p id='stroop-text' class='stroop-yellow'>YELLOW</p>", "response": "y", "stimulus-type": "congruent", "word": "yellow", "color": "yellow", "correct_response": "y", "trial_id": "stroop-trial-1-congruent-28", "trial_type": "html-keyboard-response", "trial_index": 60, "time_elapsed": 199053, "internal_node_id": "0.0-4.0-56.0"}}, {"uniqueid": "w61134596:a26738058", "current_trial": 61, "dateTime": 1664555893848, "trialdata": {"rt": 486, "stimulus": "<p id='stroop-text' class='stroop-yellow'>BLUE</p>", "response": "y", "stimulus-type": "incongruent", "word": "blue", "color": "yellow", "correct_response": "y", "trial_id": "stroop-trial-1-incongruent-5", "trial_type": "html-keyboard-response", "trial_index": 61, "time_elapsed": 200043, "internal_node_id": "0.0-4.0-57.0"}}, {"uniqueid": "w61134596:a26738058", "current_trial": 62, "dateTime": 1664555895028, "trialdata": {"rt": 677, "stimulus": "<p id='stroop-text' class='stroop-blue'>BRAIN</p>", "response": "b", "stimulus-type": "unrelated", "word": "BRAIN", "color": "blue", "correct_response": "b", "trial_id": "stroop-trial-1-unrelated-11", "trial_type": "html-keyboard-response", "trial_index": 62, "time_elapsed": 201222, "internal_node_id": "0.0-4.0-58.0"}}, {"uniqueid": "w61134596:a26738058", "current_trial": 63, "dateTime": 1664555896379, "trialdata": {"rt": 847, "stimulus": "<p id='stroop-text' class='stroop-yellow'>DOG</p>", "response": "y", "stimulus-type": "unrelated", "word": "DOG", "color": "yellow", "correct_response": "y", "trial_id": "stroop-trial-1-unrelated-26", "trial_type": "html-keyboard-response", "trial_index": 63, "time_elapsed": 202573, "internal_node_id": "0.0-4.0-59.0"}}, {"uniqueid": "w61134596:a26738058", "current_trial": 64, "dateTime": 1664555897380, "trialdata": {"rt": 498, "stimulus": "<p id='stroop-text' class='stroop-yellow'>YELLOW</p>", "response": "y", "stimulus-type": "congruent", "word": "yellow", "color": "yellow", "correct_response": "y", "trial_id": "stroop-trial-1-congruent-2", "trial_type": "html-keyboard-response", "trial_index": 64, "time_elapsed": 203575, "internal_node_id": "0.0-4.0-60.0"}}, {"uniqueid": "w61134596:a26738058", "current_trial": 65, "dateTime": 1664555898942, "trialdata": {"rt": 1057, "stimulus": "<p id='stroop-text' class='stroop-green'>FORK</p>", "response": "g", "stimulus-type": "unrelated", "word": "FORK", "color": "green", "correct_response": "g", "trial_id": "stroop-trial-1-unrelated-13", "trial_type": "html-keyboard-response", "trial_index": 65, "time_elapsed": 205136, "internal_node_id": "0.0-4.0-61.0"}}, {"uniqueid": "w61134596:a26738058", "current_trial": 66, "dateTime": 1664555899882, "trialdata": {"rt": 437, "stimulus": "<p id='stroop-text' class='stroop-green'>BLUE</p>", "response": "g", "stimulus-type": "incongruent", "word": "blue", "color": "green", "correct_response": "g", "trial_id": "stroop-trial-1-incongruent-23", "trial_type": "html-keyboard-response", "trial_index": 66, "time_elapsed": 206076, "internal_node_id": "0.0-4.0-62.0"}}, {"uniqueid": "w61134596:a26738058", "current_trial": 67, "dateTime": 1664555901150, "trialdata": {"rt": 764, "stimulus": "<p id='stroop-text' class='stroop-yellow'>BOTTLE</p>", "response": "y", "stimulus-type": "unrelated", "word": "BOTTLE", "color": "yellow", "correct_response": "y", "trial_id": "stroop-trial-1-unrelated-27", "trial_type": "html-keyboard-response", "trial_index": 67, "time_elapsed": 207345, "internal_node_id": "0.0-4.0-63.0"}}, {"uniqueid": "w61134596:a26738058", "current_trial": 68, "dateTime": 1664555902108, "trialdata": {"rt": 452, "stimulus": "<p id='stroop-text' class='stroop-yellow'>YELLOW</p>", "response": "y", "stimulus-type": "congruent", "word": "yellow", "color": "yellow", "correct_response": "y", "trial_id": "stroop-trial-1-congruent-6", "trial_type": "html-keyboard-response", "trial_index": 68, "time_elapsed": 208302, "internal_node_id": "0.0-4.0-64.0"}}, {"uniqueid": "w61134596:a26738058", "current_trial": 69, "dateTime": 1664555903288, "trialdata": {"rt": 677, "stimulus": "<p id='stroop-text' class='stroop-red'>FORK</p>", "response": "r", "stimulus-type": "unrelated", "word": "FORK", "color": "red", "correct_response": "r", "trial_id": "stroop-trial-1-unrelated-5", "trial_type": "html-keyboard-response", "trial_index": 69, "time_elapsed": 209483, "internal_node_id": "0.0-4.0-65.0"}}, {"uniqueid": "w61134596:a26738058", "current_trial": 70, "dateTime": 1664555904231, "trialdata": {"rt": 438, "stimulus": "<p id='stroop-text' class='stroop-red'>YELLOW</p>", "response": "r", "stimulus-type": "incongruent", "word": "yellow", "color": "red", "correct_response": "r", "trial_id": "stroop-trial-1-incongruent-12", "trial_type": "html-keyboard-response", "trial_index": 70, "time_elapsed": 210425, "internal_node_id": "0.0-4.0-66.0"}}, {"uniqueid": "w61134596:a26738058", "current_trial": 71, "dateTime": 1664555906310, "trialdata": {"rt": 1574, "stimulus": "<p id='stroop-text' class='stroop-green'>RED</p>", "response": "g", "stimulus-type": "incongruent", "word": "red", "color": "green", "correct_response": "g", "trial_id": "stroop-trial-1-incongruent-14", "trial_type": "html-keyboard-response", "trial_index": 71, "time_elapsed": 212504, "internal_node_id": "0.0-4.0-67.0"}}, {"uniqueid": "w61134596:a26738058", "current_trial": 72, "dateTime": 1664555907958, "trialdata": {"rt": 1145, "stimulus": "<p id='stroop-text' class='stroop-blue'>CHAIR</p>", "response": "b", "stimulus-type": "unrelated", "word": "CHAIR", "color": "blue", "correct_response": "b", "trial_id": "stroop-trial-1-unrelated-15", "trial_type": "html-keyboard-response", "trial_index": 72, "time_elapsed": 214153, "internal_node_id": "0.0-4.0-68.0"}}, {"uniqueid": "w61134596:a26738058", "current_trial": 73, "dateTime": 1664555909578, "trialdata": {"rt": 1116, "stimulus": "<p id='stroop-text' class='stroop-green'>MONKEY</p>", "response": "g", "stimulus-type": "unrelated", "word": "MONKEY", "color": "green", "correct_response": "g", "trial_id": "stroop-trial-1-unrelated-21", "trial_type": "html-keyboard-response", "trial_index": 73, "time_elapsed": 215772, "internal_node_id": "0.0-4.0-69.0"}}, {"uniqueid": "w61134596:a26738058", "current_trial": 74, "dateTime": 1664555910767, "trialdata": {"rt": 685, "stimulus": "<p id='stroop-text' class='stroop-blue'>YELLOW</p>", "response": "b", "stimulus-type": "incongruent", "word": "yellow", "color": "blue", "correct_response": "b", "trial_id": "stroop-trial-1-incongruent-7", "trial_type": "html-keyboard-response", "trial_index": 74, "time_elapsed": 216962, "internal_node_id": "0.0-4.0-70.0"}}, {"uniqueid": "w61134596:a26738058", "current_trial": 75, "dateTime": 1664555911957, "trialdata": {"rt": 685, "stimulus": "<p id='stroop-text' class='stroop-red'>FORK</p>", "response": "r", "stimulus-type": "unrelated", "word": "FORK", "color": "red", "correct_response": "r", "trial_id": "stroop-trial-1-unrelated-12", "trial_type": "html-keyboard-response", "trial_index": 75, "time_elapsed": 218151, "internal_node_id": "0.0-4.0-71.0"}}, {"uniqueid": "w61134596:a26738058", "current_trial": 76, "dateTime": 1664555913145, "trialdata": {"rt": 684, "stimulus": "<p id='stroop-text' class='stroop-red'>RED</p>", "response": "r", "stimulus-type": "congruent", "word": "red", "color": "red", "correct_response": "r", "trial_id": "stroop-trial-1-congruent-23", "trial_type": "html-keyboard-response", "trial_index": 76, "time_elapsed": 219339, "internal_node_id": "0.0-4.0-72.0"}}, {"uniqueid": "w61134596:a26738058", "current_trial": 77, "dateTime": 1664555914189, "trialdata": {"rt": 539, "stimulus": "<p id='stroop-text' class='stroop-red'>RED</p>", "response": "r", "stimulus-type": "congruent", "word": "red", "color": "red", "correct_response": "r", "trial_id": "stroop-trial-1-congruent-16", "trial_type": "html-keyboard-response", "trial_index": 77, "time_elapsed": 220384, "internal_node_id": "0.0-4.0-73.0"}}, {"uniqueid": "w61134596:a26738058", "current_trial": 78, "dateTime": 1664555915265, "trialdata": {"rt": 573, "stimulus": "<p id='stroop-text' class='stroop-green'>GREEN</p>", "response": "g", "stimulus-type": "congruent", "word": "green", "color": "green", "correct_response": "g", "trial_id": "stroop-trial-1-congruent-25", "trial_type": "html-keyboard-response", "trial_index": 78, "time_elapsed": 221460, "internal_node_id": "0.0-4.0-74.0"}}, {"uniqueid": "w61134596:a26738058", "current_trial": 79, "dateTime": 1664555916567, "trialdata": {"rt": 798, "stimulus": "<p id='stroop-text' class='stroop-blue'>YELLOW</p>", "response": "b", "stimulus-type": "incongruent", "word": "yellow", "color": "blue", "correct_response": "b", "trial_id": "stroop-trial-1-incongruent-30", "trial_type": "html-keyboard-response", "trial_index": 79, "time_elapsed": 222761, "internal_node_id": "0.0-4.0-75.0"}}, {"uniqueid": "w61134596:a26738058", "current_trial": 80, "dateTime": 1664555917647, "trialdata": {"rt": 576, "stimulus": "<p id='stroop-text' class='stroop-yellow'>YELLOW</p>", "response": "y", "stimulus-type": "congruent", "word": "yellow", "color": "yellow", "correct_response": "y", "trial_id": "stroop-trial-1-congruent-5", "trial_type": "html-keyboard-response", "trial_index": 80, "time_elapsed": 223841, "internal_node_id": "0.0-4.0-76.0"}}, {"uniqueid": "w61134596:a26738058", "current_trial": 81, "dateTime": 1664555918701, "trialdata": {"rt": 549, "stimulus": "<p id='stroop-text' class='stroop-yellow'>STONE</p>", "response": "y", "stimulus-type": "unrelated", "word": "STONE", "color": "yellow", "correct_response": "y", "trial_id": "stroop-trial-1-unrelated-8", "trial_type": "html-keyboard-response", "trial_index": 81, "time_elapsed": 224895, "internal_node_id": "0.0-4.0-77.0"}}, {"uniqueid": "w61134596:a26738058", "current_trial": 82, "dateTime": 1664555919833, "trialdata": {"rt": 629, "stimulus": "<p id='stroop-text' class='stroop-red'>DOG</p>", "response": "r", "stimulus-type": "unrelated", "word": "DOG", "color": "red", "correct_response": "r", "trial_id": "stroop-trial-1-unrelated-3", "trial_type": "html-keyboard-response", "trial_index": 82, "time_elapsed": 226028, "internal_node_id": "0.0-4.0-78.0"}}, {"uniqueid": "w61134596:a26738058", "current_trial": 83, "dateTime": 1664555921058, "trialdata": {"rt": 720, "stimulus": "<p id='stroop-text' class='stroop-yellow'>GREEN</p>", "response": "y", "stimulus-type": "incongruent", "word": "green", "color": "yellow", "correct_response": "y", "trial_id": "stroop-trial-1-incongruent-17", "trial_type": "html-keyboard-response", "trial_index": 83, "time_elapsed": 227252, "internal_node_id": "0.0-4.0-79.0"}}, {"uniqueid": "w61134596:a26738058", "current_trial": 84, "dateTime": 1664555922254, "trialdata": {"rt": 693, "stimulus": "<p id='stroop-text' class='stroop-green'>FORK</p>", "response": "g", "stimulus-type": "unrelated", "word": "FORK", "color": "green", "correct_response": "g", "trial_id": "stroop-trial-1-unrelated-6", "trial_type": "html-keyboard-response", "trial_index": 84, "time_elapsed": 228449, "internal_node_id": "0.0-4.0-80.0"}}, {"uniqueid": "w61134596:a26738058", "current_trial": 85, "dateTime": 1664555923260, "trialdata": {"rt": 502, "stimulus": "<p id='stroop-text' class='stroop-green'>STONE</p>", "response": "g", "stimulus-type": "unrelated", "word": "STONE", "color": "green", "correct_response": "g", "trial_id": "stroop-trial-1-unrelated-19", "trial_type": "html-keyboard-response", "trial_index": 85, "time_elapsed": 229455, "internal_node_id": "0.0-4.0-81.0"}}, {"uniqueid": "w61134596:a26738058", "current_trial": 86, "dateTime": 1664555924774, "trialdata": {"rt": 1009, "stimulus": "<p id='stroop-text' class='stroop-yellow'>BLUE</p>", "response": "y", "stimulus-type": "incongruent", "word": "blue", "color": "yellow", "correct_response": "y", "trial_id": "stroop-trial-1-incongruent-24", "trial_type": "html-keyboard-response", "trial_index": 86, "time_elapsed": 230969, "internal_node_id": "0.0-4.0-82.0"}}, {"uniqueid": "w61134596:a26738058", "current_trial": 87, "dateTime": 1664555926127, "trialdata": {"rt": 849, "stimulus": "<p id='stroop-text' class='stroop-green'>BOAT</p>", "response": "g", "stimulus-type": "unrelated", "word": "BOAT", "color": "green", "correct_response": "g", "trial_id": "stroop-trial-1-unrelated-17", "trial_type": "html-keyboard-response", "trial_index": 87, "time_elapsed": 232321, "internal_node_id": "0.0-4.0-83.0"}}, {"uniqueid": "w61134596:a26738058", "current_trial": 88, "dateTime": 1664555927372, "trialdata": {"rt": 742, "stimulus": "<p id='stroop-text' class='stroop-blue'>YELLOW</p>", "response": "b", "stimulus-type": "incongruent", "word": "yellow", "color": "blue", "correct_response": "b", "trial_id": "stroop-trial-1-incongruent-8", "trial_type": "html-keyboard-response", "trial_index": 88, "time_elapsed": 233566, "internal_node_id": "0.0-4.0-84.0"}}, {"uniqueid": "w61134596:a26738058", "current_trial": 89, "dateTime": 1664555928884, "trialdata": {"rt": 1009, "stimulus": "<p id='stroop-text' class='stroop-green'>GREEN</p>", "response": "g", "stimulus-type": "congruent", "word": "green", "color": "green", "correct_response": "g", "trial_id": "stroop-trial-1-congruent-18", "trial_type": "html-keyboard-response", "trial_index": 89, "time_elapsed": 235079, "internal_node_id": "0.0-4.0-85.0"}}, {"uniqueid": "w61134596:a26738058", "current_trial": 90, "dateTime": 1664555930033, "trialdata": {"rt": 645, "stimulus": "<p id='stroop-text' class='stroop-yellow'>YELLOW</p>", "response": "y", "stimulus-type": "congruent", "word": "yellow", "color": "yellow", "correct_response": "y", "trial_id": "stroop-trial-1-congruent-19", "trial_type": "html-keyboard-response", "trial_index": 90, "time_elapsed": 236228, "internal_node_id": "0.0-4.0-86.0"}}, {"uniqueid": "w61134596:a26738058", "current_trial": 91, "dateTime": 1664555931161, "trialdata": {"rt": 621, "stimulus": "<p id='stroop-text' class='stroop-blue'>BLUE</p>", "response": "b", "stimulus-type": "congruent", "word": "blue", "color": "blue", "correct_response": "b", "trial_id": "stroop-trial-1-congruent-29", "trial_type": "html-keyboard-response", "trial_index": 91, "time_elapsed": 237355, "internal_node_id": "0.0-4.0-87.0"}}, {"uniqueid": "w61134596:a26738058", "current_trial": 92, "dateTime": 1664555932249, "trialdata": {"rt": 583, "stimulus": "<p id='stroop-text' class='stroop-blue'>MONKEY</p>", "response": "b", "stimulus-type": "unrelated", "word": "MONKEY", "color": "blue", "correct_response": "b", "trial_id": "stroop-trial-1-unrelated-23", "trial_type": "html-keyboard-response", "trial_index": 92, "time_elapsed": 238443, "internal_node_id": "0.0-4.0-88.0"}}, {"uniqueid": "w61134596:a26738058", "current_trial": 93, "dateTime": 1664555933187, "trialdata": {"rt": 433, "stimulus": "<p id='stroop-text' class='stroop-blue'>YELLOW</p>", "response": "b", "stimulus-type": "incongruent", "word": "yellow", "color": "blue", "correct_response": "b", "trial_id": "stroop-trial-1-incongruent-4", "trial_type": "html-keyboard-response", "trial_index": 93, "time_elapsed": 239381, "internal_node_id": "0.0-4.0-89.0"}}, {"uniqueid": "w61134596:a26738058", "current_trial": 94, "dateTime": 1664556013634, "trialdata": {"rt": 79943, "stimulus": "  <h1> End of block! </h1>\n\n  You have reached the end of the block 1/5. If you need a short break, feel free to take one now before moving on.\n\n  <br><br>\n  In the next block, you will complete another 90 rounds of this game.\n\n  <br><br>\n  <div style='text-align: center;'>Press <code>space</code> to begin.</div>\n  <br><br>\n<div style='text-align: center;'>(If the experiment doesn't continue, try clicking on the text and then pressing <code>space</code>.)</div>", "response": " ", "trial_id": "stroop_1_ready_2", "trial_type": "html-keyboard-response", "trial_index": 94, "time_elapsed": 319829, "internal_node_id": "0.0-5.0"}}, {"uniqueid": "w61134596:a26738058", "current_trial": 95, "dateTime": 1664556014738, "trialdata": {"rt": 1100, "stimulus": "<p id='stroop-text' class='stroop-green'>GREEN</p>", "response": "g", "stimulus-type": "congruent", "word": "green", "color": "green", "correct_response": "g", "trial_id": "stroop-trial-1-congruent-23", "trial_type": "html-keyboard-response", "trial_index": 95, "time_elapsed": 320933, "internal_node_id": "0.0-6.0-0.0"}}, {"uniqueid": "w61134596:a26738058", "current_trial": 96, "dateTime": 1664556015867, "trialdata": {"rt": 626, "stimulus": "<p id='stroop-text' class='stroop-green'>RED</p>", "response": "g", "stimulus-type": "incongruent", "word": "red", "color": "green", "correct_response": "g", "trial_id": "stroop-trial-1-incongruent-5", "trial_type": "html-keyboard-response", "trial_index": 96, "time_elapsed": 322062, "internal_node_id": "0.0-6.0-1.0"}}, {"uniqueid": "w61134596:a26738058", "current_trial": 97, "dateTime": 1664556016896, "trialdata": {"rt": 526, "stimulus": "<p id='stroop-text' class='stroop-green'>YELLOW</p>", "response": "g", "stimulus-type": "incongruent", "word": "yellow", "color": "green", "correct_response": "g", "trial_id": "stroop-trial-1-incongruent-11", "trial_type": "html-keyboard-response", "trial_index": 97, "time_elapsed": 323091, "internal_node_id": "0.0-6.0-2.0"}}, {"uniqueid": "w61134596:a26738058", "current_trial": 98, "dateTime": 1664556017896, "trialdata": {"rt": 496, "stimulus": "<p id='stroop-text' class='stroop-yellow'>YELLOW</p>", "response": "y", "stimulus-type": "congruent", "word": "yellow", "color": "yellow", "correct_response": "y", "trial_id": "stroop-trial-1-congruent-5", "trial_type": "html-keyboard-response", "trial_index": 98, "time_elapsed": 324091, "internal_node_id": "0.0-6.0-3.0"}}, {"uniqueid": "w61134596:a26738058", "current_trial": 99, "dateTime": 1664556018876, "trialdata": {"rt": 477, "stimulus": "<p id='stroop-text' class='stroop-yellow'>YELLOW</p>", "response": "y", "stimulus-type": "congruent", "word": "yellow", "color": "yellow", "correct_response": "y", "trial_id": "stroop-trial-1-congruent-7", "trial_type": "html-keyboard-response", "trial_index": 99, "time_elapsed": 325071, "internal_node_id": "0.0-6.0-4.0"}}, {"uniqueid": "w61134596:a26738058", "current_trial": 100, "dateTime": 1664556020057, "trialdata": {"rt": 675, "stimulus": "<p id='stroop-text' class='stroop-yellow'>RED</p>", "response": "y", "stimulus-type": "incongruent", "word": "red", "color": "yellow", "correct_response": "y", "trial_id": "stroop-trial-1-incongruent-8", "trial_type": "html-keyboard-response", "trial_index": 100, "time_elapsed": 326252, "internal_node_id": "0.0-6.0-5.0"}}, {"uniqueid": "w61134596:a26738058", "current_trial": 101, "dateTime": 1664556021150, "trialdata": {"rt": 587, "stimulus": "<p id='stroop-text' class='stroop-red'>MONKEY</p>", "response": "r", "stimulus-type": "unrelated", "word": "MONKEY", "color": "red", "correct_response": "r", "trial_id": "stroop-trial-1-unrelated-27", "trial_type": "html-keyboard-response", "trial_index": 101, "time_elapsed": 327344, "internal_node_id": "0.0-6.0-6.0"}}, {"uniqueid": "w61134596:a26738058", "current_trial": 102, "dateTime": 1664556022155, "trialdata": {"rt": 501, "stimulus": "<p id='stroop-text' class='stroop-red'>BLUE</p>", "response": "r", "stimulus-type": "incongruent", "word": "blue", "color": "red", "correct_response": "r", "trial_id": "stroop-trial-1-incongruent-29", "trial_type": "html-keyboard-response", "trial_index": 102, "time_elapsed": 328350, "internal_node_id": "0.0-6.0-7.0"}}, {"uniqueid": "w61134596:a26738058", "current_trial": 103, "dateTime": 1664556023203, "trialdata": {"rt": 544, "stimulus": "<p id='stroop-text' class='stroop-green'>BRAIN</p>", "response": "g", "stimulus-type": "unrelated", "word": "BRAIN", "color": "green", "correct_response": "g", "trial_id": "stroop-trial-1-unrelated-22", "trial_type": "html-keyboard-response", "trial_index": 103, "time_elapsed": 329397, "internal_node_id": "0.0-6.0-8.0"}}, {"uniqueid": "w61134596:a26738058", "current_trial": 104, "dateTime": 1664556024090, "trialdata": {"rt": 384, "stimulus": "<p id='stroop-text' class='stroop-green'>BRIDGE</p>", "response": "g", "stimulus-type": "unrelated", "word": "BRIDGE", "color": "green", "correct_response": "g", "trial_id": "stroop-trial-1-unrelated-29", "trial_type": "html-keyboard-response", "trial_index": 104, "time_elapsed": 330284, "internal_node_id": "0.0-6.0-9.0"}}, {"uniqueid": "w61134596:a26738058", "current_trial": 105, "dateTime": 1664556025201, "trialdata": {"rt": 606, "stimulus": "<p id='stroop-text' class='stroop-blue'>BRAIN</p>", "response": "b", "stimulus-type": "unrelated", "word": "BRAIN", "color": "blue", "correct_response": "b", "trial_id": "stroop-trial-1-unrelated-20", "trial_type": "html-keyboard-response", "trial_index": 105, "time_elapsed": 331396, "internal_node_id": "0.0-6.0-10.0"}}, {"uniqueid": "w61134596:a26738058", "current_trial": 106, "dateTime": 1664556026419, "trialdata": {"rt": 714, "stimulus": "<p id='stroop-text' class='stroop-red'>YELLOW</p>", "response": "r", "stimulus-type": "incongruent", "word": "yellow", "color": "red", "correct_response": "r", "trial_id": "stroop-trial-1-incongruent-16", "trial_type": "html-keyboard-response", "trial_index": 106, "time_elapsed": 332613, "internal_node_id": "0.0-6.0-11.0"}}, {"uniqueid": "w61134596:a26738058", "current_trial": 107, "dateTime": 1664556027555, "trialdata": {"rt": 633, "stimulus": "<p id='stroop-text' class='stroop-green'>RED</p>", "response": "g", "stimulus-type": "incongruent", "word": "red", "color": "green", "correct_response": "g", "trial_id": "stroop-trial-1-incongruent-14", "trial_type": "html-keyboard-response", "trial_index": 107, "time_elapsed": 333750, "internal_node_id": "0.0-6.0-12.0"}}, {"uniqueid": "w61134596:a26738058", "current_trial": 108, "dateTime": 1664556028509, "trialdata": {"rt": 449, "stimulus": "<p id='stroop-text' class='stroop-yellow'>YELLOW</p>", "response": "y", "stimulus-type": "congruent", "word": "yellow", "color": "yellow", "correct_response": "y", "trial_id": "stroop-trial-1-congruent-16", "trial_type": "html-keyboard-response", "trial_index": 108, "time_elapsed": 334703, "internal_node_id": "0.0-6.0-13.0"}}, {"uniqueid": "w61134596:a26738058", "current_trial": 109, "dateTime": 1664556029602, "trialdata": {"rt": 587, "stimulus": "<p id='stroop-text' class='stroop-red'>YELLOW</p>", "response": "r", "stimulus-type": "incongruent", "word": "yellow", "color": "red", "correct_response": "r", "trial_id": "stroop-trial-1-incongruent-13", "trial_type": "html-keyboard-response", "trial_index": 109, "time_elapsed": 335796, "internal_node_id": "0.0-6.0-14.0"}}, {"uniqueid": "w61134596:a26738058", "current_trial": 110, "dateTime": 1664556030646, "trialdata": {"rt": 541, "stimulus": "<p id='stroop-text' class='stroop-yellow'>YELLOW</p>", "response": "y", "stimulus-type": "congruent", "word": "yellow", "color": "yellow", "correct_response": "y", "trial_id": "stroop-trial-1-congruent-17", "trial_type": "html-keyboard-response", "trial_index": 110, "time_elapsed": 336840, "internal_node_id": "0.0-6.0-15.0"}}, {"uniqueid": "w61134596:a26738058", "current_trial": 111, "dateTime": 1664556031891, "trialdata": {"rt": 741, "stimulus": "<p id='stroop-text' class='stroop-red'>RED</p>", "response": "r", "stimulus-type": "congruent", "word": "red", "color": "red", "correct_response": "r", "trial_id": "stroop-trial-1-congruent-1", "trial_type": "html-keyboard-response", "trial_index": 111, "time_elapsed": 338085, "internal_node_id": "0.0-6.0-16.0"}}, {"uniqueid": "w61134596:a26738058", "current_trial": 112, "dateTime": 1664556032906, "trialdata": {"rt": 511, "stimulus": "<p id='stroop-text' class='stroop-green'>GREEN</p>", "response": "g", "stimulus-type": "congruent", "word": "green", "color": "green", "correct_response": "g", "trial_id": "stroop-trial-1-congruent-3", "trial_type": "html-keyboard-response", "trial_index": 112, "time_elapsed": 339101, "internal_node_id": "0.0-6.0-17.0"}}, {"uniqueid": "w61134596:a26738058", "current_trial": 113, "dateTime": 1664556033895, "trialdata": {"rt": 484, "stimulus": "<p id='stroop-text' class='stroop-blue'>YELLOW</p>", "response": "b", "stimulus-type": "incongruent", "word": "yellow", "color": "blue", "correct_response": "b", "trial_id": "stroop-trial-1-incongruent-22", "trial_type": "html-keyboard-response", "trial_index": 113, "time_elapsed": 340090, "internal_node_id": "0.0-6.0-18.0"}}, {"uniqueid": "w61134596:a26738058", "current_trial": 114, "dateTime": 1664556034898, "trialdata": {"rt": 499, "stimulus": "<p id='stroop-text' class='stroop-red'>CHAIR</p>", "response": "r", "stimulus-type": "unrelated", "word": "CHAIR", "color": "red", "correct_response": "r", "trial_id": "stroop-trial-1-unrelated-15", "trial_type": "html-keyboard-response", "trial_index": 114, "time_elapsed": 341093, "internal_node_id": "0.0-6.0-19.0"}}, {"uniqueid": "w61134596:a26738058", "current_trial": 115, "dateTime": 1664556036013, "trialdata": {"rt": 610, "stimulus": "<p id='stroop-text' class='stroop-red'>GREEN</p>", "response": "r", "stimulus-type": "incongruent", "word": "green", "color": "red", "correct_response": "r", "trial_id": "stroop-trial-1-incongruent-19", "trial_type": "html-keyboard-response", "trial_index": 115, "time_elapsed": 342208, "internal_node_id": "0.0-6.0-20.0"}}, {"uniqueid": "w61134596:a26738058", "current_trial": 116, "dateTime": 1664556037431, "trialdata": {"rt": 913, "stimulus": "<p id='stroop-text' class='stroop-green'>GREEN</p>", "response": "g", "stimulus-type": "congruent", "word": "green", "color": "green", "correct_response": "g", "trial_id": "stroop-trial-1-congruent-28", "trial_type": "html-keyboard-response", "trial_index": 116, "time_elapsed": 343625, "internal_node_id": "0.0-6.0-21.0"}}, {"uniqueid": "w61134596:a26738058", "current_trial": 117, "dateTime": 1664556038417, "trialdata": {"rt": 481, "stimulus": "<p id='stroop-text' class='stroop-yellow'>YELLOW</p>", "response": "y", "stimulus-type": "congruent", "word": "yellow", "color": "yellow", "correct_response": "y", "trial_id": "stroop-trial-1-congruent-22", "trial_type": "html-keyboard-response", "trial_index": 117, "time_elapsed": 344612, "internal_node_id": "0.0-6.0-22.0"}}, {"uniqueid": "w61134596:a26738058", "current_trial": 118, "dateTime": 1664556039473, "trialdata": {"rt": 552, "stimulus": "<p id='stroop-text' class='stroop-yellow'>YELLOW</p>", "response": "y", "stimulus-type": "congruent", "word": "yellow", "color": "yellow", "correct_response": "y", "trial_id": "stroop-trial-1-congruent-9", "trial_type": "html-keyboard-response", "trial_index": 118, "time_elapsed": 345668, "internal_node_id": "0.0-6.0-23.0"}}, {"uniqueid": "w61134596:a26738058", "current_trial": 119, "dateTime": 1664556040722, "trialdata": {"rt": 744, "stimulus": "<p id='stroop-text' class='stroop-green'>RED</p>", "response": "g", "stimulus-type": "incongruent", "word": "red", "color": "green", "correct_response": "g", "trial_id": "stroop-trial-1-incongruent-4", "trial_type": "html-keyboard-response", "trial_index": 119, "time_elapsed": 346916, "internal_node_id": "0.0-6.0-24.0"}}, {"uniqueid": "w61134596:a26738058", "current_trial": 120, "dateTime": 1664556042114, "trialdata": {"rt": 888, "stimulus": "<p id='stroop-text' class='stroop-blue'>BLUE</p>", "response": "b", "stimulus-type": "congruent", "word": "blue", "color": "blue", "correct_response": "b", "trial_id": "stroop-trial-1-congruent-12", "trial_type": "html-keyboard-response", "trial_index": 120, "time_elapsed": 348308, "internal_node_id": "0.0-6.0-25.0"}}, {"uniqueid": "w61134596:a26738058", "current_trial": 121, "dateTime": 1664556043029, "trialdata": {"rt": 412, "stimulus": "<p id='stroop-text' class='stroop-blue'>BLUE</p>", "response": "b", "stimulus-type": "congruent", "word": "blue", "color": "blue", "correct_response": "b", "trial_id": "stroop-trial-1-congruent-18", "trial_type": "html-keyboard-response", "trial_index": 121, "time_elapsed": 349224, "internal_node_id": "0.0-6.0-26.0"}}, {"uniqueid": "w61134596:a26738058", "current_trial": 122, "dateTime": 1664556044316, "trialdata": {"rt": 784, "stimulus": "<p id='stroop-text' class='stroop-red'>RED</p>", "response": "r", "stimulus-type": "congruent", "word": "red", "color": "red", "correct_response": "r", "trial_id": "stroop-trial-1-congruent-26", "trial_type": "html-keyboard-response", "trial_index": 122, "time_elapsed": 350511, "internal_node_id": "0.0-6.0-27.0"}}, {"uniqueid": "w61134596:a26738058", "current_trial": 123, "dateTime": 1664556045700, "trialdata": {"rt": 880, "stimulus": "<p id='stroop-text' class='stroop-green'>GREEN</p>", "response": "g", "stimulus-type": "congruent", "word": "green", "color": "green", "correct_response": "g", "trial_id": "stroop-trial-1-congruent-15", "trial_type": "html-keyboard-response", "trial_index": 123, "time_elapsed": 351895, "internal_node_id": "0.0-6.0-28.0"}}, {"uniqueid": "w61134596:a26738058", "current_trial": 124, "dateTime": 1664556046740, "trialdata": {"rt": 537, "stimulus": "<p id='stroop-text' class='stroop-green'>BRIDGE</p>", "response": "g", "stimulus-type": "unrelated", "word": "BRIDGE", "color": "green", "correct_response": "g", "trial_id": "stroop-trial-1-unrelated-28", "trial_type": "html-keyboard-response", "trial_index": 124, "time_elapsed": 352935, "internal_node_id": "0.0-6.0-29.0"}}, {"uniqueid": "w61134596:a26738058", "current_trial": 125, "dateTime": 1664556047840, "trialdata": {"rt": 596, "stimulus": "<p id='stroop-text' class='stroop-red'>MONKEY</p>", "response": "r", "stimulus-type": "unrelated", "word": "MONKEY", "color": "red", "correct_response": "r", "trial_id": "stroop-trial-1-unrelated-23", "trial_type": "html-keyboard-response", "trial_index": 125, "time_elapsed": 354035, "internal_node_id": "0.0-6.0-30.0"}}, {"uniqueid": "w61134596:a26738058", "current_trial": 126, "dateTime": 1664556049033, "trialdata": {"rt": 686, "stimulus": "<p id='stroop-text' class='stroop-green'>BOTTLE</p>", "response": "g", "stimulus-type": "unrelated", "word": "BOTTLE", "color": "green", "correct_response": "g", "trial_id": "stroop-trial-1-unrelated-10", "trial_type": "html-keyboard-response", "trial_index": 126, "time_elapsed": 355227, "internal_node_id": "0.0-6.0-31.0"}}, {"uniqueid": "w61134596:a26738058", "current_trial": 127, "dateTime": 1664556050158, "trialdata": {"rt": 621, "stimulus": "<p id='stroop-text' class='stroop-red'>RED</p>", "response": "r", "stimulus-type": "congruent", "word": "red", "color": "red", "correct_response": "r", "trial_id": "stroop-trial-1-congruent-24", "trial_type": "html-keyboard-response", "trial_index": 127, "time_elapsed": 356352, "internal_node_id": "0.0-6.0-32.0"}}, {"uniqueid": "w61134596:a26738058", "current_trial": 128, "dateTime": 1664556051347, "trialdata": {"rt": 685, "stimulus": "<p id='stroop-text' class='stroop-red'>RED</p>", "response": "r", "stimulus-type": "congruent", "word": "red", "color": "red", "correct_response": "r", "trial_id": "stroop-trial-1-congruent-30", "trial_type": "html-keyboard-response", "trial_index": 128, "time_elapsed": 357542, "internal_node_id": "0.0-6.0-33.0"}}, {"uniqueid": "w61134596:a26738058", "current_trial": 129, "dateTime": 1664556052946, "trialdata": {"rt": 1095, "stimulus": "<p id='stroop-text' class='stroop-yellow'>BLUE</p>", "response": "y", "stimulus-type": "incongruent", "word": "blue", "color": "yellow", "correct_response": "y", "trial_id": "stroop-trial-1-incongruent-15", "trial_type": "html-keyboard-response", "trial_index": 129, "time_elapsed": 359140, "internal_node_id": "0.0-6.0-34.0"}}, {"uniqueid": "w61134596:a26738058", "current_trial": 130, "dateTime": 1664556053930, "trialdata": {"rt": 479, "stimulus": "<p id='stroop-text' class='stroop-yellow'>BOAT</p>", "response": "y", "stimulus-type": "unrelated", "word": "BOAT", "color": "yellow", "correct_response": "y", "trial_id": "stroop-trial-1-unrelated-6", "trial_type": "html-keyboard-response", "trial_index": 130, "time_elapsed": 360124, "internal_node_id": "0.0-6.0-35.0"}}, {"uniqueid": "w61134596:a26738058", "current_trial": 131, "dateTime": 1664556055026, "trialdata": {"rt": 593, "stimulus": "<p id='stroop-text' class='stroop-blue'>BLUE</p>", "response": "b", "stimulus-type": "congruent", "word": "blue", "color": "blue", "correct_response": "b", "trial_id": "stroop-trial-1-congruent-11", "trial_type": "html-keyboard-response", "trial_index": 131, "time_elapsed": 361221, "internal_node_id": "0.0-6.0-36.0"}}, {"uniqueid": "w61134596:a26738058", "current_trial": 132, "dateTime": 1664556056352, "trialdata": {"rt": 821, "stimulus": "<p id='stroop-text' class='stroop-red'>RED</p>", "response": "r", "stimulus-type": "congruent", "word": "red", "color": "red", "correct_response": "r", "trial_id": "stroop-trial-1-congruent-4", "trial_type": "html-keyboard-response", "trial_index": 132, "time_elapsed": 362546, "internal_node_id": "0.0-6.0-37.0"}}, {"uniqueid": "w61134596:a26738058", "current_trial": 133, "dateTime": 1664556057471, "trialdata": {"rt": 615, "stimulus": "<p id='stroop-text' class='stroop-yellow'>YELLOW</p>", "response": "y", "stimulus-type": "congruent", "word": "yellow", "color": "yellow", "correct_response": "y", "trial_id": "stroop-trial-1-congruent-21", "trial_type": "html-keyboard-response", "trial_index": 133, "time_elapsed": 363666, "internal_node_id": "0.0-6.0-38.0"}}, {"uniqueid": "w61134596:a26738058", "current_trial": 134, "dateTime": 1664556058571, "trialdata": {"rt": 596, "stimulus": "<p id='stroop-text' class='stroop-yellow'>RED</p>", "response": "y", "stimulus-type": "incongruent", "word": "red", "color": "yellow", "correct_response": "y", "trial_id": "stroop-trial-1-incongruent-26", "trial_type": "html-keyboard-response", "trial_index": 134, "time_elapsed": 364766, "internal_node_id": "0.0-6.0-39.0"}}, {"uniqueid": "w61134596:a26738058", "current_trial": 135, "dateTime": 1664556059829, "trialdata": {"rt": 753, "stimulus": "<p id='stroop-text' class='stroop-red'>SHIP</p>", "response": "r", "stimulus-type": "unrelated", "word": "SHIP", "color": "red", "correct_response": "r", "trial_id": "stroop-trial-1-unrelated-8", "trial_type": "html-keyboard-response", "trial_index": 135, "time_elapsed": 366023, "internal_node_id": "0.0-6.0-40.0"}}, {"uniqueid": "w61134596:a26738058", "current_trial": 136, "dateTime": 1664556061097, "trialdata": {"rt": 764, "stimulus": "<p id='stroop-text' class='stroop-blue'>STONE</p>", "response": "b", "stimulus-type": "unrelated", "word": "STONE", "color": "blue", "correct_response": "b", "trial_id": "stroop-trial-1-unrelated-7", "trial_type": "html-keyboard-response", "trial_index": 136, "time_elapsed": 367292, "internal_node_id": "0.0-6.0-41.0"}}, {"uniqueid": "w61134596:a26738058", "current_trial": 137, "dateTime": 1664556061997, "trialdata": {"rt": 394, "stimulus": "<p id='stroop-text' class='stroop-blue'>GREEN</p>", "response": "b", "stimulus-type": "incongruent", "word": "green", "color": "blue", "correct_response": "b", "trial_id": "stroop-trial-1-incongruent-28", "trial_type": "html-keyboard-response", "trial_index": 137, "time_elapsed": 368191, "internal_node_id": "0.0-6.0-42.0"}}, {"uniqueid": "w61134596:a26738058", "current_trial": 138, "dateTime": 1664556063206, "trialdata": {"rt": 705, "stimulus": "<p id='stroop-text' class='stroop-yellow'>BRAIN</p>", "response": "y", "stimulus-type": "unrelated", "word": "BRAIN", "color": "yellow", "correct_response": "y", "trial_id": "stroop-trial-1-unrelated-25", "trial_type": "html-keyboard-response", "trial_index": 138, "time_elapsed": 369401, "internal_node_id": "0.0-6.0-43.0"}}, {"uniqueid": "w61134596:a26738058", "current_trial": 139, "dateTime": 1664556064486, "trialdata": {"rt": 777, "stimulus": "<p id='stroop-text' class='stroop-red'>SHIP</p>", "response": "r", "stimulus-type": "unrelated", "word": "SHIP", "color": "red", "correct_response": "r", "trial_id": "stroop-trial-1-unrelated-9", "trial_type": "html-keyboard-response", "trial_index": 139, "time_elapsed": 370681, "internal_node_id": "0.0-6.0-44.0"}}, {"uniqueid": "w61134596:a26738058", "current_trial": 140, "dateTime": 1664556065882, "trialdata": {"rt": 891, "stimulus": "<p id='stroop-text' class='stroop-yellow'>CHAIR</p>", "response": "y", "stimulus-type": "unrelated", "word": "CHAIR", "color": "yellow", "correct_response": "y", "trial_id": "stroop-trial-1-unrelated-3", "trial_type": "html-keyboard-response", "trial_index": 140, "time_elapsed": 372077, "internal_node_id": "0.0-6.0-45.0"}}, {"uniqueid": "w61134596:a26738058", "current_trial": 141, "dateTime": 1664556067036, "trialdata": {"rt": 650, "stimulus": "<p id='stroop-text' class='stroop-red'>BLUE</p>", "response": "r", "stimulus-type": "incongruent", "word": "blue", "color": "red", "correct_response": "r", "trial_id": "stroop-trial-1-incongruent-3", "trial_type": "html-keyboard-response", "trial_index": 141, "time_elapsed": 373231, "internal_node_id": "0.0-6.0-46.0"}}, {"uniqueid": "w61134596:a26738058", "current_trial": 142, "dateTime": 1664556068017, "trialdata": {"rt": 476, "stimulus": "<p id='stroop-text' class='stroop-blue'>BLUE</p>", "response": "b", "stimulus-type": "congruent", "word": "blue", "color": "blue", "correct_response": "b", "trial_id": "stroop-trial-1-congruent-13", "trial_type": "html-keyboard-response", "trial_index": 142, "time_elapsed": 374212, "internal_node_id": "0.0-6.0-47.0"}}, {"uniqueid": "w61134596:a26738058", "current_trial": 143, "dateTime": 1664556069030, "trialdata": {"rt": 507, "stimulus": "<p id='stroop-text' class='stroop-blue'>BLUE</p>", "response": "b", "stimulus-type": "congruent", "word": "blue", "color": "blue", "correct_response": "b", "trial_id": "stroop-trial-1-congruent-6", "trial_type": "html-keyboard-response", "trial_index": 143, "time_elapsed": 375224, "internal_node_id": "0.0-6.0-48.0"}}, {"uniqueid": "w61134596:a26738058", "current_trial": 144, "dateTime": 1664556070331, "trialdata": {"rt": 795, "stimulus": "<p id='stroop-text' class='stroop-green'>YELLOW</p>", "response": "g", "stimulus-type": "incongruent", "word": "yellow", "color": "green", "correct_response": "g", "trial_id": "stroop-trial-1-incongruent-23", "trial_type": "html-keyboard-response", "trial_index": 144, "time_elapsed": 376525, "internal_node_id": "0.0-6.0-49.0"}}, {"uniqueid": "w61134596:a26738058", "current_trial": 145, "dateTime": 1664556071480, "trialdata": {"rt": 645, "stimulus": "<p id='stroop-text' class='stroop-red'>SHIP</p>", "response": "r", "stimulus-type": "unrelated", "word": "SHIP", "color": "red", "correct_response": "r", "trial_id": "stroop-trial-1-unrelated-24", "trial_type": "html-keyboard-response", "trial_index": 145, "time_elapsed": 377674, "internal_node_id": "0.0-6.0-50.0"}}, {"uniqueid": "w61134596:a26738058", "current_trial": 146, "dateTime": 1664556072553, "trialdata": {"rt": 569, "stimulus": "<p id='stroop-text' class='stroop-red'>RED</p>", "response": "r", "stimulus-type": "congruent", "word": "red", "color": "red", "correct_response": "r", "trial_id": "stroop-trial-1-congruent-8", "trial_type": "html-keyboard-response", "trial_index": 146, "time_elapsed": 378748, "internal_node_id": "0.0-6.0-51.0"}}, {"uniqueid": "w61134596:a26738058", "current_trial": 147, "dateTime": 1664556073500, "trialdata": {"rt": 443, "stimulus": "<p id='stroop-text' class='stroop-red'>RED</p>", "response": "r", "stimulus-type": "congruent", "word": "red", "color": "red", "correct_response": "r", "trial_id": "stroop-trial-1-congruent-20", "trial_type": "html-keyboard-response", "trial_index": 147, "time_elapsed": 379694, "internal_node_id": "0.0-6.0-52.0"}}, {"uniqueid": "w61134596:a26738058", "current_trial": 148, "dateTime": 1664556074603, "trialdata": {"rt": 598, "stimulus": "<p id='stroop-text' class='stroop-blue'>MONKEY</p>", "response": "b", "stimulus-type": "unrelated", "word": "MONKEY", "color": "blue", "correct_response": "b", "trial_id": "stroop-trial-1-unrelated-30", "trial_type": "html-keyboard-response", "trial_index": 148, "time_elapsed": 380798, "internal_node_id": "0.0-6.0-53.0"}}, {"uniqueid": "w61134596:a26738058", "current_trial": 149, "dateTime": 1664556075549, "trialdata": {"rt": 441, "stimulus": "<p id='stroop-text' class='stroop-blue'>YELLOW</p>", "response": "b", "stimulus-type": "incongruent", "word": "yellow", "color": "blue", "correct_response": "b", "trial_id": "stroop-trial-1-incongruent-2", "trial_type": "html-keyboard-response", "trial_index": 149, "time_elapsed": 381743, "internal_node_id": "0.0-6.0-54.0"}}, {"uniqueid": "w61134596:a26738058", "current_trial": 150, "dateTime": 1664556076426, "trialdata": {"rt": 373, "stimulus": "<p id='stroop-text' class='stroop-blue'>BLUE</p>", "response": "b", "stimulus-type": "congruent", "word": "blue", "color": "blue", "correct_response": "b", "trial_id": "stroop-trial-1-congruent-14", "trial_type": "html-keyboard-response", "trial_index": 150, "time_elapsed": 382620, "internal_node_id": "0.0-6.0-55.0"}}, {"uniqueid": "w61134596:a26738058", "current_trial": 151, "dateTime": 1664556077707, "trialdata": {"rt": 774, "stimulus": "<p id='stroop-text' class='stroop-yellow'>DOG</p>", "response": "y", "stimulus-type": "unrelated", "word": "DOG", "color": "yellow", "correct_response": "y", "trial_id": "stroop-trial-1-unrelated-17", "trial_type": "html-keyboard-response", "trial_index": 151, "time_elapsed": 383902, "internal_node_id": "0.0-6.0-56.0"}}, {"uniqueid": "w61134596:a26738058", "current_trial": 152, "dateTime": 1664556078869, "trialdata": {"rt": 657, "stimulus": "<p id='stroop-text' class='stroop-blue'>BRAIN</p>", "response": "b", "stimulus-type": "unrelated", "word": "BRAIN", "color": "blue", "correct_response": "b", "trial_id": "stroop-trial-1-unrelated-11", "trial_type": "html-keyboard-response", "trial_index": 152, "time_elapsed": 385063, "internal_node_id": "0.0-6.0-57.0"}}, {"uniqueid": "w61134596:a26738058", "current_trial": 153, "dateTime": 1664556079814, "trialdata": {"rt": 440, "stimulus": "<p id='stroop-text' class='stroop-blue'>MONKEY</p>", "response": "b", "stimulus-type": "unrelated", "word": "MONKEY", "color": "blue", "correct_response": "b", "trial_id": "stroop-trial-1-unrelated-26", "trial_type": "html-keyboard-response", "trial_index": 153, "time_elapsed": 386008, "internal_node_id": "0.0-6.0-58.0"}}, {"uniqueid": "w61134596:a26738058", "current_trial": 154, "dateTime": 1664556081352, "trialdata": {"rt": 1033, "stimulus": "<p id='stroop-text' class='stroop-red'>FORK</p>", "response": "r", "stimulus-type": "unrelated", "word": "FORK", "color": "red", "correct_response": "r", "trial_id": "stroop-trial-1-unrelated-16", "trial_type": "html-keyboard-response", "trial_index": 154, "time_elapsed": 387547, "internal_node_id": "0.0-6.0-59.0"}}, {"uniqueid": "w61134596:a26738058", "current_trial": 155, "dateTime": 1664556082326, "trialdata": {"rt": 471, "stimulus": "<p id='stroop-text' class='stroop-red'>GREEN</p>", "response": "r", "stimulus-type": "incongruent", "word": "green", "color": "red", "correct_response": "r", "trial_id": "stroop-trial-1-incongruent-20", "trial_type": "html-keyboard-response", "trial_index": 155, "time_elapsed": 388521, "internal_node_id": "0.0-6.0-60.0"}}, {"uniqueid": "w61134596:a26738058", "current_trial": 156, "dateTime": 1664556084373, "trialdata": {"rt": 1542, "stimulus": "<p id='stroop-text' class='stroop-blue'>YELLOW</p>", "response": "b", "stimulus-type": "incongruent", "word": "yellow", "color": "blue", "correct_response": "b", "trial_id": "stroop-trial-1-incongruent-10", "trial_type": "html-keyboard-response", "trial_index": 156, "time_elapsed": 390568, "internal_node_id": "0.0-6.0-61.0"}}, {"uniqueid": "w61134596:a26738058", "current_trial": 157, "dateTime": 1664556085527, "trialdata": {"rt": 648, "stimulus": "<p id='stroop-text' class='stroop-yellow'>CHAIR</p>", "response": "y", "stimulus-type": "unrelated", "word": "CHAIR", "color": "yellow", "correct_response": "y", "trial_id": "stroop-trial-1-unrelated-1", "trial_type": "html-keyboard-response", "trial_index": 157, "time_elapsed": 391721, "internal_node_id": "0.0-6.0-62.0"}}, {"uniqueid": "w61134596:a26738058", "current_trial": 158, "dateTime": 1664556087399, "trialdata": {"rt": 1368, "stimulus": "<p id='stroop-text' class='stroop-green'>RED</p>", "response": "g", "stimulus-type": "incongruent", "word": "red", "color": "green", "correct_response": "g", "trial_id": "stroop-trial-1-incongruent-27", "trial_type": "html-keyboard-response", "trial_index": 158, "time_elapsed": 393594, "internal_node_id": "0.0-6.0-63.0"}}, {"uniqueid": "w61134596:a26738058", "current_trial": 159, "dateTime": 1664556088546, "trialdata": {"rt": 643, "stimulus": "<p id='stroop-text' class='stroop-blue'>RED</p>", "response": "b", "stimulus-type": "incongruent", "word": "red", "color": "blue", "correct_response": "b", "trial_id": "stroop-trial-1-incongruent-7", "trial_type": "html-keyboard-response", "trial_index": 159, "time_elapsed": 394741, "internal_node_id": "0.0-6.0-64.0"}}, {"uniqueid": "w61134596:a26738058", "current_trial": 160, "dateTime": 1664556089640, "trialdata": {"rt": 588, "stimulus": "<p id='stroop-text' class='stroop-yellow'>GREEN</p>", "response": "y", "stimulus-type": "incongruent", "word": "green", "color": "yellow", "correct_response": "y", "trial_id": "stroop-trial-1-incongruent-17", "trial_type": "html-keyboard-response", "trial_index": 160, "time_elapsed": 395835, "internal_node_id": "0.0-6.0-65.0"}}, {"uniqueid": "w61134596:a26738058", "current_trial": 161, "dateTime": 1664556090625, "trialdata": {"rt": 480, "stimulus": "<p id='stroop-text' class='stroop-red'>RED</p>", "response": "r", "stimulus-type": "congruent", "word": "red", "color": "red", "correct_response": "r", "trial_id": "stroop-trial-1-congruent-29", "trial_type": "html-keyboard-response", "trial_index": 161, "time_elapsed": 396819, "internal_node_id": "0.0-6.0-66.0"}}, {"uniqueid": "w61134596:a26738058", "current_trial": 162, "dateTime": 1664556091885, "trialdata": {"rt": 756, "stimulus": "<p id='stroop-text' class='stroop-blue'>GREEN</p>", "response": "b", "stimulus-type": "incongruent", "word": "green", "color": "blue", "correct_response": "b", "trial_id": "stroop-trial-1-incongruent-24", "trial_type": "html-keyboard-response", "trial_index": 162, "time_elapsed": 398080, "internal_node_id": "0.0-6.0-67.0"}}, {"uniqueid": "w61134596:a26738058", "current_trial": 163, "dateTime": 1664556093057, "trialdata": {"rt": 665, "stimulus": "<p id='stroop-text' class='stroop-yellow'>BOAT</p>", "response": "y", "stimulus-type": "unrelated", "word": "BOAT", "color": "yellow", "correct_response": "y", "trial_id": "stroop-trial-1-unrelated-5", "trial_type": "html-keyboard-response", "trial_index": 163, "time_elapsed": 399251, "internal_node_id": "0.0-6.0-68.0"}}, {"uniqueid": "w61134596:a26738058", "current_trial": 164, "dateTime": 1664556094227, "trialdata": {"rt": 666, "stimulus": "<p id='stroop-text' class='stroop-yellow'>BRAIN</p>", "response": "y", "stimulus-type": "unrelated", "word": "BRAIN", "color": "yellow", "correct_response": "y", "trial_id": "stroop-trial-1-unrelated-14", "trial_type": "html-keyboard-response", "trial_index": 164, "time_elapsed": 400421, "internal_node_id": "0.0-6.0-69.0"}}, {"uniqueid": "w61134596:a26738058", "current_trial": 165, "dateTime": 1664556095572, "trialdata": {"rt": 841, "stimulus": "<p id='stroop-text' class='stroop-red'>GREEN</p>", "response": "r", "stimulus-type": "incongruent", "word": "green", "color": "red", "correct_response": "r", "trial_id": "stroop-trial-1-incongruent-1", "trial_type": "html-keyboard-response", "trial_index": 165, "time_elapsed": 401767, "internal_node_id": "0.0-6.0-70.0"}}, {"uniqueid": "w61134596:a26738058", "current_trial": 166, "dateTime": 1664556096574, "trialdata": {"rt": 496, "stimulus": "<p id='stroop-text' class='stroop-blue'>YELLOW</p>", "response": "b", "stimulus-type": "incongruent", "word": "yellow", "color": "blue", "correct_response": "b", "trial_id": "stroop-trial-1-incongruent-9", "trial_type": "html-keyboard-response", "trial_index": 166, "time_elapsed": 402769, "internal_node_id": "0.0-6.0-71.0"}}, {"uniqueid": "w61134596:a26738058", "current_trial": 167, "dateTime": 1664556097700, "trialdata": {"rt": 621, "stimulus": "<p id='stroop-text' class='stroop-yellow'>YELLOW</p>", "response": "y", "stimulus-type": "congruent", "word": "yellow", "color": "yellow", "correct_response": "y", "trial_id": "stroop-trial-1-congruent-10", "trial_type": "html-keyboard-response", "trial_index": 167, "time_elapsed": 403895, "internal_node_id": "0.0-6.0-72.0"}}, {"uniqueid": "w61134596:a26738058", "current_trial": 168, "dateTime": 1664556098836, "trialdata": {"rt": 630, "stimulus": "<p id='stroop-text' class='stroop-yellow'>BRAIN</p>", "response": "y", "stimulus-type": "unrelated", "word": "BRAIN", "color": "yellow", "correct_response": "y", "trial_id": "stroop-trial-1-unrelated-13", "trial_type": "html-keyboard-response", "trial_index": 168, "time_elapsed": 405030, "internal_node_id": "0.0-6.0-73.0"}}, {"uniqueid": "w61134596:a26738058", "current_trial": 169, "dateTime": 1664556100154, "trialdata": {"rt": 813, "stimulus": "<p id='stroop-text' class='stroop-red'>MONKEY</p>", "response": "g", "stimulus-type": "unrelated", "word": "MONKEY", "color": "red", "correct_response": "r", "trial_id": "stroop-trial-1-unrelated-12", "trial_type": "html-keyboard-response", "trial_index": 169, "time_elapsed": 406348, "internal_node_id": "0.0-6.0-74.0"}}, {"uniqueid": "w61134596:a26738058", "current_trial": 170, "dateTime": 1664556101565, "trialdata": {"rt": 907, "stimulus": "<p id='stroop-text' class='stroop-red'>BLUE</p>", "response": "r", "stimulus-type": "incongruent", "word": "blue", "color": "red", "correct_response": "r", "trial_id": "stroop-trial-1-incongruent-18", "trial_type": "html-keyboard-response", "trial_index": 170, "time_elapsed": 407760, "internal_node_id": "0.0-6.0-75.0"}}, {"uniqueid": "w61134596:a26738058", "current_trial": 171, "dateTime": 1664556102722, "trialdata": {"rt": 652, "stimulus": "<p id='stroop-text' class='stroop-yellow'>YELLOW</p>", "response": "y", "stimulus-type": "congruent", "word": "yellow", "color": "yellow", "correct_response": "y", "trial_id": "stroop-trial-1-congruent-19", "trial_type": "html-keyboard-response", "trial_index": 171, "time_elapsed": 408916, "internal_node_id": "0.0-6.0-76.0"}}, {"uniqueid": "w61134596:a26738058", "current_trial": 172, "dateTime": 1664556103788, "trialdata": {"rt": 561, "stimulus": "<p id='stroop-text' class='stroop-yellow'>BRIDGE</p>", "response": "y", "stimulus-type": "unrelated", "word": "BRIDGE", "color": "yellow", "correct_response": "y", "trial_id": "stroop-trial-1-unrelated-18", "trial_type": "html-keyboard-response", "trial_index": 172, "time_elapsed": 409983, "internal_node_id": "0.0-6.0-77.0"}}, {"uniqueid": "w61134596:a26738058", "current_trial": 173, "dateTime": 1664556105161, "trialdata": {"rt": 869, "stimulus": "<p id='stroop-text' class='stroop-red'>WINDOW</p>", "response": "r", "stimulus-type": "unrelated", "word": "WINDOW", "color": "red", "correct_response": "r", "trial_id": "stroop-trial-1-unrelated-4", "trial_type": "html-keyboard-response", "trial_index": 173, "time_elapsed": 411356, "internal_node_id": "0.0-6.0-78.0"}}, {"uniqueid": "w61134596:a26738058", "current_trial": 174, "dateTime": 1664556106122, "trialdata": {"rt": 457, "stimulus": "<p id='stroop-text' class='stroop-green'>GREEN</p>", "response": "g", "stimulus-type": "congruent", "word": "green", "color": "green", "correct_response": "g", "trial_id": "stroop-trial-1-congruent-25", "trial_type": "html-keyboard-response", "trial_index": 174, "time_elapsed": 412317, "internal_node_id": "0.0-6.0-79.0"}}, {"uniqueid": "w61134596:a26738058", "current_trial": 175, "dateTime": 1664556107455, "trialdata": {"rt": 827, "stimulus": "<p id='stroop-text' class='stroop-yellow'>YELLOW</p>", "response": "y", "stimulus-type": "congruent", "word": "yellow", "color": "yellow", "correct_response": "y", "trial_id": "stroop-trial-1-congruent-27", "trial_type": "html-keyboard-response", "trial_index": 175, "time_elapsed": 413649, "internal_node_id": "0.0-6.0-80.0"}}, {"uniqueid": "w61134596:a26738058", "current_trial": 176, "dateTime": 1664556108747, "trialdata": {"rt": 787, "stimulus": "<p id='stroop-text' class='stroop-red'>STONE</p>", "response": "r", "stimulus-type": "unrelated", "word": "STONE", "color": "red", "correct_response": "r", "trial_id": "stroop-trial-1-unrelated-21", "trial_type": "html-keyboard-response", "trial_index": 176, "time_elapsed": 414942, "internal_node_id": "0.0-6.0-81.0"}}, {"uniqueid": "w61134596:a26738058", "current_trial": 177, "dateTime": 1664556109850, "trialdata": {"rt": 599, "stimulus": "<p id='stroop-text' class='stroop-red'>BOTTLE</p>", "response": "r", "stimulus-type": "unrelated", "word": "BOTTLE", "color": "red", "correct_response": "r", "trial_id": "stroop-trial-1-unrelated-2", "trial_type": "html-keyboard-response", "trial_index": 177, "time_elapsed": 416045, "internal_node_id": "0.0-6.0-82.0"}}, {"uniqueid": "w61134596:a26738058", "current_trial": 178, "dateTime": 1664556110830, "trialdata": {"rt": 474, "stimulus": "<p id='stroop-text' class='stroop-red'>BLUE</p>", "response": "r", "stimulus-type": "incongruent", "word": "blue", "color": "red", "correct_response": "r", "trial_id": "stroop-trial-1-incongruent-25", "trial_type": "html-keyboard-response", "trial_index": 178, "time_elapsed": 417024, "internal_node_id": "0.0-6.0-83.0"}}, {"uniqueid": "w61134596:a26738058", "current_trial": 179, "dateTime": 1664556112173, "trialdata": {"rt": 838, "stimulus": "<p id='stroop-text' class='stroop-blue'>BOTTLE</p>", "response": "b", "stimulus-type": "unrelated", "word": "BOTTLE", "color": "blue", "correct_response": "b", "trial_id": "stroop-trial-1-unrelated-19", "trial_type": "html-keyboard-response", "trial_index": 179, "time_elapsed": 418368, "internal_node_id": "0.0-6.0-84.0"}}, {"uniqueid": "w61134596:a26738058", "current_trial": 180, "dateTime": 1664556113153, "trialdata": {"rt": 474, "stimulus": "<p id='stroop-text' class='stroop-blue'>RED</p>", "response": "b", "stimulus-type": "incongruent", "word": "red", "color": "blue", "correct_response": "b", "trial_id": "stroop-trial-1-incongruent-6", "trial_type": "html-keyboard-response", "trial_index": 180, "time_elapsed": 419347, "internal_node_id": "0.0-6.0-85.0"}}, {"uniqueid": "w61134596:a26738058", "current_trial": 181, "dateTime": 1664556114178, "trialdata": {"rt": 521, "stimulus": "<p id='stroop-text' class='stroop-yellow'>YELLOW</p>", "response": "y", "stimulus-type": "congruent", "word": "yellow", "color": "yellow", "correct_response": "y", "trial_id": "stroop-trial-1-congruent-2", "trial_type": "html-keyboard-response", "trial_index": 181, "time_elapsed": 420372, "internal_node_id": "0.0-6.0-86.0"}}, {"uniqueid": "w61134596:a26738058", "current_trial": 182, "dateTime": 1664556115072, "trialdata": {"rt": 390, "stimulus": "<p id='stroop-text' class='stroop-green'>YELLOW</p>", "response": "g", "stimulus-type": "incongruent", "word": "yellow", "color": "green", "correct_response": "g", "trial_id": "stroop-trial-1-incongruent-30", "trial_type": "html-keyboard-response", "trial_index": 182, "time_elapsed": 421267, "internal_node_id": "0.0-6.0-87.0"}}, {"uniqueid": "w61134596:a26738058", "current_trial": 183, "dateTime": 1664556115989, "trialdata": {"rt": 410, "stimulus": "<p id='stroop-text' class='stroop-green'>YELLOW</p>", "response": "g", "stimulus-type": "incongruent", "word": "yellow", "color": "green", "correct_response": "g", "trial_id": "stroop-trial-1-incongruent-12", "trial_type": "html-keyboard-response", "trial_index": 183, "time_elapsed": 422183, "internal_node_id": "0.0-6.0-88.0"}}, {"uniqueid": "w61134596:a26738058", "current_trial": 184, "dateTime": 1664556116972, "trialdata": {"rt": 479, "stimulus": "<p id='stroop-text' class='stroop-red'>YELLOW</p>", "response": "r", "stimulus-type": "incongruent", "word": "yellow", "color": "red", "correct_response": "r", "trial_id": "stroop-trial-1-incongruent-21", "trial_type": "html-keyboard-response", "trial_index": 184, "time_elapsed": 423166, "internal_node_id": "0.0-6.0-89.0"}}, {"uniqueid": "w61134596:a26738058", "current_trial": 185, "dateTime": 1664556214653, "trialdata": {"rt": 97182, "stimulus": "  <h1> End of block! </h1>\n\n  You have reached the end of the block 2/5. If you need a short break, feel free to take one now before moving on.\n\n  <br><br>\n  In the next block, you will complete another 90 rounds of this game.\n\n  <br><br>\n  <div style='text-align: center;'>Press <code>space</code> to begin.</div>\n  <br><br>\n<div style='text-align: center;'>(If the experiment doesn't continue, try clicking on the text and then pressing <code>space</code>.)</div>", "response": " ", "trial_id": "stroop_1_ready_3", "trial_type": "html-keyboard-response", "trial_index": 185, "time_elapsed": 520848, "internal_node_id": "0.0-7.0"}}, {"uniqueid": "w61134596:a26738058", "current_trial": 186, "dateTime": 1664556215617, "trialdata": {"rt": 957, "stimulus": "<p id='stroop-text' class='stroop-green'>RED</p>", "response": "g", "stimulus-type": "incongruent", "word": "red", "color": "green", "correct_response": "g", "trial_id": "stroop-trial-1-incongruent-20", "trial_type": "html-keyboard-response", "trial_index": 186, "time_elapsed": 521811, "internal_node_id": "0.0-8.0-0.0"}}, {"uniqueid": "w61134596:a26738058", "current_trial": 187, "dateTime": 1664556216642, "trialdata": {"rt": 521, "stimulus": "<p id='stroop-text' class='stroop-green'>YELLOW</p>", "response": "g", "stimulus-type": "incongruent", "word": "yellow", "color": "green", "correct_response": "g", "trial_id": "stroop-trial-1-incongruent-2", "trial_type": "html-keyboard-response", "trial_index": 187, "time_elapsed": 522837, "internal_node_id": "0.0-8.0-1.0"}}, {"uniqueid": "w61134596:a26738058", "current_trial": 188, "dateTime": 1664556217656, "trialdata": {"rt": 509, "stimulus": "<p id='stroop-text' class='stroop-blue'>BLUE</p>", "response": "b", "stimulus-type": "congruent", "word": "blue", "color": "blue", "correct_response": "b", "trial_id": "stroop-trial-1-congruent-24", "trial_type": "html-keyboard-response", "trial_index": 188, "time_elapsed": 523850, "internal_node_id": "0.0-8.0-2.0"}}, {"uniqueid": "w61134596:a26738058", "current_trial": 189, "dateTime": 1664556218789, "trialdata": {"rt": 625, "stimulus": "<p id='stroop-text' class='stroop-yellow'>BLUE</p>", "response": "y", "stimulus-type": "incongruent", "word": "blue", "color": "yellow", "correct_response": "y", "trial_id": "stroop-trial-1-incongruent-8", "trial_type": "html-keyboard-response", "trial_index": 189, "time_elapsed": 524983, "internal_node_id": "0.0-8.0-3.0"}}, {"uniqueid": "w61134596:a26738058", "current_trial": 190, "dateTime": 1664556219796, "trialdata": {"rt": 502, "stimulus": "<p id='stroop-text' class='stroop-green'>CHAIR</p>", "response": "g", "stimulus-type": "unrelated", "word": "CHAIR", "color": "green", "correct_response": "g", "trial_id": "stroop-trial-1-unrelated-5", "trial_type": "html-keyboard-response", "trial_index": 190, "time_elapsed": 525990, "internal_node_id": "0.0-8.0-4.0"}}, {"uniqueid": "w61134596:a26738058", "current_trial": 191, "dateTime": 1664556221104, "trialdata": {"rt": 803, "stimulus": "<p id='stroop-text' class='stroop-yellow'>YELLOW</p>", "response": "y", "stimulus-type": "congruent", "word": "yellow", "color": "yellow", "correct_response": "y", "trial_id": "stroop-trial-1-congruent-30", "trial_type": "html-keyboard-response", "trial_index": 191, "time_elapsed": 527298, "internal_node_id": "0.0-8.0-5.0"}}, {"uniqueid": "w61134596:a26738058", "current_trial": 192, "dateTime": 1664556222124, "trialdata": {"rt": 516, "stimulus": "<p id='stroop-text' class='stroop-green'>GREEN</p>", "response": "g", "stimulus-type": "congruent", "word": "green", "color": "green", "correct_response": "g", "trial_id": "stroop-trial-1-congruent-13", "trial_type": "html-keyboard-response", "trial_index": 192, "time_elapsed": 528319, "internal_node_id": "0.0-8.0-6.0"}}, {"uniqueid": "w61134596:a26738058", "current_trial": 193, "dateTime": 1664556223159, "trialdata": {"rt": 531, "stimulus": "<p id='stroop-text' class='stroop-blue'>BLUE</p>", "response": "b", "stimulus-type": "congruent", "word": "blue", "color": "blue", "correct_response": "b", "trial_id": "stroop-trial-1-congruent-20", "trial_type": "html-keyboard-response", "trial_index": 193, "time_elapsed": 529354, "internal_node_id": "0.0-8.0-7.0"}}, {"uniqueid": "w61134596:a26738058", "current_trial": 194, "dateTime": 1664556224389, "trialdata": {"rt": 724, "stimulus": "<p id='stroop-text' class='stroop-blue'>BLUE</p>", "response": "b", "stimulus-type": "congruent", "word": "blue", "color": "blue", "correct_response": "b", "trial_id": "stroop-trial-1-congruent-29", "trial_type": "html-keyboard-response", "trial_index": 194, "time_elapsed": 530583, "internal_node_id": "0.0-8.0-8.0"}}, {"uniqueid": "w61134596:a26738058", "current_trial": 195, "dateTime": 1664556225468, "trialdata": {"rt": 576, "stimulus": "<p id='stroop-text' class='stroop-red'>BLUE</p>", "response": "r", "stimulus-type": "incongruent", "word": "blue", "color": "red", "correct_response": "r", "trial_id": "stroop-trial-1-incongruent-30", "trial_type": "html-keyboard-response", "trial_index": 195, "time_elapsed": 531663, "internal_node_id": "0.0-8.0-9.0"}}, {"uniqueid": "w61134596:a26738058", "current_trial": 196, "dateTime": 1664556226474, "trialdata": {"rt": 500, "stimulus": "<p id='stroop-text' class='stroop-red'>BRAIN</p>", "response": "r", "stimulus-type": "unrelated", "word": "BRAIN", "color": "red", "correct_response": "r", "trial_id": "stroop-trial-1-unrelated-25", "trial_type": "html-keyboard-response", "trial_index": 196, "time_elapsed": 532669, "internal_node_id": "0.0-8.0-10.0"}}, {"uniqueid": "w61134596:a26738058", "current_trial": 197, "dateTime": 1664556227537, "trialdata": {"rt": 559, "stimulus": "<p id='stroop-text' class='stroop-green'>GREEN</p>", "response": "g", "stimulus-type": "congruent", "word": "green", "color": "green", "correct_response": "g", "trial_id": "stroop-trial-1-congruent-27", "trial_type": "html-keyboard-response", "trial_index": 197, "time_elapsed": 533732, "internal_node_id": "0.0-8.0-11.0"}}, {"uniqueid": "w61134596:a26738058", "current_trial": 198, "dateTime": 1664556228496, "trialdata": {"rt": 455, "stimulus": "<p id='stroop-text' class='stroop-green'>GREEN</p>", "response": "g", "stimulus-type": "congruent", "word": "green", "color": "green", "correct_response": "g", "trial_id": "stroop-trial-1-congruent-9", "trial_type": "html-keyboard-response", "trial_index": 198, "time_elapsed": 534690, "internal_node_id": "0.0-8.0-12.0"}}, {"uniqueid": "w61134596:a26738058", "current_trial": 199, "dateTime": 1664556229875, "trialdata": {"rt": 875, "stimulus": "<p id='stroop-text' class='stroop-red'>RED</p>", "response": "r", "stimulus-type": "congruent", "word": "red", "color": "red", "correct_response": "r", "trial_id": "stroop-trial-1-congruent-21", "trial_type": "html-keyboard-response", "trial_index": 199, "time_elapsed": 536069, "internal_node_id": "0.0-8.0-13.0"}}, {"uniqueid": "w61134596:a26738058", "current_trial": 200, "dateTime": 1664556230835, "trialdata": {"rt": 456, "stimulus": "<p id='stroop-text' class='stroop-red'>BLUE</p>", "response": "g", "stimulus-type": "incongruent", "word": "blue", "color": "red", "correct_response": "r", "trial_id": "stroop-trial-1-incongruent-10", "trial_type": "html-keyboard-response", "trial_index": 200, "time_elapsed": 537030, "internal_node_id": "0.0-8.0-14.0"}}, {"uniqueid": "w61134596:a26738058", "current_trial": 201, "dateTime": 1664556231749, "trialdata": {"rt": 408, "stimulus": "<p id='stroop-text' class='stroop-red'>RED</p>", "response": "r", "stimulus-type": "congruent", "word": "red", "color": "red", "correct_response": "r", "trial_id": "stroop-trial-1-congruent-6", "trial_type": "html-keyboard-response", "trial_index": 201, "time_elapsed": 537943, "internal_node_id": "0.0-8.0-15.0"}}, {"uniqueid": "w61134596:a26738058", "current_trial": 202, "dateTime": 1664556232841, "trialdata": {"rt": 589, "stimulus": "<p id='stroop-text' class='stroop-blue'>GREEN</p>", "response": "b", "stimulus-type": "incongruent", "word": "green", "color": "blue", "correct_response": "b", "trial_id": "stroop-trial-1-incongruent-13", "trial_type": "html-keyboard-response", "trial_index": 202, "time_elapsed": 539036, "internal_node_id": "0.0-8.0-16.0"}}, {"uniqueid": "w61134596:a26738058", "current_trial": 203, "dateTime": 1664556234016, "trialdata": {"rt": 670, "stimulus": "<p id='stroop-text' class='stroop-blue'>FORK</p>", "response": "b", "stimulus-type": "unrelated", "word": "FORK", "color": "blue", "correct_response": "b", "trial_id": "stroop-trial-1-unrelated-11", "trial_type": "html-keyboard-response", "trial_index": 203, "time_elapsed": 540210, "internal_node_id": "0.0-8.0-17.0"}}, {"uniqueid": "w61134596:a26738058", "current_trial": 204, "dateTime": 1664556235193, "trialdata": {"rt": 671, "stimulus": "<p id='stroop-text' class='stroop-yellow'>MONKEY</p>", "response": "y", "stimulus-type": "unrelated", "word": "MONKEY", "color": "yellow", "correct_response": "y", "trial_id": "stroop-trial-1-unrelated-17", "trial_type": "html-keyboard-response", "trial_index": 204, "time_elapsed": 541387, "internal_node_id": "0.0-8.0-18.0"}}, {"uniqueid": "w61134596:a26738058", "current_trial": 205, "dateTime": 1664556236827, "trialdata": {"rt": 1130, "stimulus": "<p id='stroop-text' class='stroop-blue'>YELLOW</p>", "response": "b", "stimulus-type": "incongruent", "word": "yellow", "color": "blue", "correct_response": "b", "trial_id": "stroop-trial-1-incongruent-28", "trial_type": "html-keyboard-response", "trial_index": 205, "time_elapsed": 543022, "internal_node_id": "0.0-8.0-19.0"}}, {"uniqueid": "w61134596:a26738058", "current_trial": 206, "dateTime": 1664556237815, "trialdata": {"rt": 480, "stimulus": "<p id='stroop-text' class='stroop-blue'>BOAT</p>", "response": "b", "stimulus-type": "unrelated", "word": "BOAT", "color": "blue", "correct_response": "b", "trial_id": "stroop-trial-1-unrelated-12", "trial_type": "html-keyboard-response", "trial_index": 206, "time_elapsed": 544009, "internal_node_id": "0.0-8.0-20.0"}}, {"uniqueid": "w61134596:a26738058", "current_trial": 207, "dateTime": 1664556238899, "trialdata": {"rt": 579, "stimulus": "<p id='stroop-text' class='stroop-green'>GREEN</p>", "response": "r", "stimulus-type": "congruent", "word": "green", "color": "green", "correct_response": "g", "trial_id": "stroop-trial-1-congruent-12", "trial_type": "html-keyboard-response", "trial_index": 207, "time_elapsed": 545093, "internal_node_id": "0.0-8.0-21.0"}}, {"uniqueid": "w61134596:a26738058", "current_trial": 208, "dateTime": 1664556240826, "trialdata": {"rt": 1423, "stimulus": "<p id='stroop-text' class='stroop-red'>RED</p>", "response": "r", "stimulus-type": "congruent", "word": "red", "color": "red", "correct_response": "r", "trial_id": "stroop-trial-1-congruent-2", "trial_type": "html-keyboard-response", "trial_index": 208, "time_elapsed": 547020, "internal_node_id": "0.0-8.0-22.0"}}, {"uniqueid": "w61134596:a26738058", "current_trial": 209, "dateTime": 1664556241924, "trialdata": {"rt": 593, "stimulus": "<p id='stroop-text' class='stroop-red'>SHIP</p>", "response": "r", "stimulus-type": "unrelated", "word": "SHIP", "color": "red", "correct_response": "r", "trial_id": "stroop-trial-1-unrelated-19", "trial_type": "html-keyboard-response", "trial_index": 209, "time_elapsed": 548118, "internal_node_id": "0.0-8.0-23.0"}}, {"uniqueid": "w61134596:a26738058", "current_trial": 210, "dateTime": 1664556243030, "trialdata": {"rt": 602, "stimulus": "<p id='stroop-text' class='stroop-yellow'>GREEN</p>", "response": "y", "stimulus-type": "incongruent", "word": "green", "color": "yellow", "correct_response": "y", "trial_id": "stroop-trial-1-incongruent-22", "trial_type": "html-keyboard-response", "trial_index": 210, "time_elapsed": 549224, "internal_node_id": "0.0-8.0-24.0"}}, {"uniqueid": "w61134596:a26738058", "current_trial": 211, "dateTime": 1664556244107, "trialdata": {"rt": 571, "stimulus": "<p id='stroop-text' class='stroop-yellow'>DOG</p>", "response": "y", "stimulus-type": "unrelated", "word": "DOG", "color": "yellow", "correct_response": "y", "trial_id": "stroop-trial-1-unrelated-22", "trial_type": "html-keyboard-response", "trial_index": 211, "time_elapsed": 550301, "internal_node_id": "0.0-8.0-25.0"}}, {"uniqueid": "w61134596:a26738058", "current_trial": 212, "dateTime": 1664556245129, "trialdata": {"rt": 518, "stimulus": "<p id='stroop-text' class='stroop-green'>GREEN</p>", "response": "g", "stimulus-type": "congruent", "word": "green", "color": "green", "correct_response": "g", "trial_id": "stroop-trial-1-congruent-19", "trial_type": "html-keyboard-response", "trial_index": 212, "time_elapsed": 551323, "internal_node_id": "0.0-8.0-26.0"}}, {"uniqueid": "w61134596:a26738058", "current_trial": 213, "dateTime": 1664556246432, "trialdata": {"rt": 799, "stimulus": "<p id='stroop-text' class='stroop-red'>CHAIR</p>", "response": "r", "stimulus-type": "unrelated", "word": "CHAIR", "color": "red", "correct_response": "r", "trial_id": "stroop-trial-1-unrelated-23", "trial_type": "html-keyboard-response", "trial_index": 213, "time_elapsed": 552627, "internal_node_id": "0.0-8.0-27.0"}}, {"uniqueid": "w61134596:a26738058", "current_trial": 214, "dateTime": 1664556247548, "trialdata": {"rt": 610, "stimulus": "<p id='stroop-text' class='stroop-blue'>RED</p>", "response": "b", "stimulus-type": "incongruent", "word": "red", "color": "blue", "correct_response": "b", "trial_id": "stroop-trial-1-incongruent-25", "trial_type": "html-keyboard-response", "trial_index": 214, "time_elapsed": 553742, "internal_node_id": "0.0-8.0-28.0"}}, {"uniqueid": "w61134596:a26738058", "current_trial": 215, "dateTime": 1664556249018, "trialdata": {"rt": 965, "stimulus": "<p id='stroop-text' class='stroop-red'>YELLOW</p>", "response": "r", "stimulus-type": "incongruent", "word": "yellow", "color": "red", "correct_response": "r", "trial_id": "stroop-trial-1-incongruent-9", "trial_type": "html-keyboard-response", "trial_index": 215, "time_elapsed": 555212, "internal_node_id": "0.0-8.0-29.0"}}, {"uniqueid": "w61134596:a26738058", "current_trial": 216, "dateTime": 1664556250102, "trialdata": {"rt": 580, "stimulus": "<p id='stroop-text' class='stroop-blue'>BLUE</p>", "response": "b", "stimulus-type": "congruent", "word": "blue", "color": "blue", "correct_response": "b", "trial_id": "stroop-trial-1-congruent-18", "trial_type": "html-keyboard-response", "trial_index": 216, "time_elapsed": 556297, "internal_node_id": "0.0-8.0-30.0"}}, {"uniqueid": "w61134596:a26738058", "current_trial": 217, "dateTime": 1664556251451, "trialdata": {"rt": 845, "stimulus": "<p id='stroop-text' class='stroop-red'>BLUE</p>", "response": "r", "stimulus-type": "incongruent", "word": "blue", "color": "red", "correct_response": "r", "trial_id": "stroop-trial-1-incongruent-24", "trial_type": "html-keyboard-response", "trial_index": 217, "time_elapsed": 557646, "internal_node_id": "0.0-8.0-31.0"}}, {"uniqueid": "w61134596:a26738058", "current_trial": 218, "dateTime": 1664556252706, "trialdata": {"rt": 750, "stimulus": "<p id='stroop-text' class='stroop-yellow'>GREEN</p>", "response": "y", "stimulus-type": "incongruent", "word": "green", "color": "yellow", "correct_response": "y", "trial_id": "stroop-trial-1-incongruent-6", "trial_type": "html-keyboard-response", "trial_index": 218, "time_elapsed": 558900, "internal_node_id": "0.0-8.0-32.0"}}, {"uniqueid": "w61134596:a26738058", "current_trial": 219, "dateTime": 1664556253957, "trialdata": {"rt": 745, "stimulus": "<p id='stroop-text' class='stroop-blue'>GREEN</p>", "response": "b", "stimulus-type": "incongruent", "word": "green", "color": "blue", "correct_response": "b", "trial_id": "stroop-trial-1-incongruent-17", "trial_type": "html-keyboard-response", "trial_index": 219, "time_elapsed": 560152, "internal_node_id": "0.0-8.0-33.0"}}, {"uniqueid": "w61134596:a26738058", "current_trial": 220, "dateTime": 1664556254927, "trialdata": {"rt": 465, "stimulus": "<p id='stroop-text' class='stroop-blue'>BLUE</p>", "response": "b", "stimulus-type": "congruent", "word": "blue", "color": "blue", "correct_response": "b", "trial_id": "stroop-trial-1-congruent-23", "trial_type": "html-keyboard-response", "trial_index": 220, "time_elapsed": 561122, "internal_node_id": "0.0-8.0-34.0"}}, {"uniqueid": "w61134596:a26738058", "current_trial": 221, "dateTime": 1664556256342, "trialdata": {"rt": 909, "stimulus": "<p id='stroop-text' class='stroop-green'>GREEN</p>", "response": "g", "stimulus-type": "congruent", "word": "green", "color": "green", "correct_response": "g", "trial_id": "stroop-trial-1-congruent-10", "trial_type": "html-keyboard-response", "trial_index": 221, "time_elapsed": 562537, "internal_node_id": "0.0-8.0-35.0"}}, {"uniqueid": "w61134596:a26738058", "current_trial": 222, "dateTime": 1664556257366, "trialdata": {"rt": 519, "stimulus": "<p id='stroop-text' class='stroop-red'>YELLOW</p>", "response": "y", "stimulus-type": "incongruent", "word": "yellow", "color": "red", "correct_response": "r", "trial_id": "stroop-trial-1-incongruent-1", "trial_type": "html-keyboa