{"condition": 0, "counterbalance": 0, "assignmentId": "a56236787", "workerId": "w24200652", "hitId": "h67629088", "currenttrial": 959, "bonus": 0, "data": [{"uniqueid": "w24200652:a56236787", "current_trial": 0, "dateTime": 1664875381286, "trialdata": {"success": true, "trial_type": "fullscreen", "trial_index": 0, "time_elapsed": 5916, "internal_node_id": "0.0-0.0"}}, {"uniqueid": "w24200652:a56236787", "current_trial": 1, "dateTime": 1664875406109, "trialdata": {"view_history": [{"page_index": 0, "viewing_time": 24807}], "rt": 24808, "trial_id": "exp_instructions_distractor", "trial_type": "instructions", "trial_index": 1, "time_elapsed": 30741, "internal_node_id": "0.0-1.0"}}, {"uniqueid": "w24200652:a56236787", "current_trial": 2, "dateTime": 1664875434020, "trialdata": {"view_history": [{"page_index": 0, "viewing_time": 27909}], "rt": 27909, "trial_id": "color_game_instructions", "trial_type": "instructions", "trial_index": 2, "time_elapsed": 58652, "internal_node_id": "0.0-2.0"}}, {"uniqueid": "w24200652:a56236787", "current_trial": 3, "dateTime": 1664875443049, "trialdata": {"rt": 9025, "stimulus": "<h1> Get ready to start the game! </h1>\n\nThank you for reading the instructions. Get ready start with the first of 5 block(s) of this game.\n<br><br>\nIn this first block, you will complete 90 rounds of this game before moving on.\n<br><br>\nRemember, the better you perform, the bigger your bonus will be!\n<br><br>\n<div style='text-align: center;'>Press <code>space</code> to begin.</div>", "response": " ", "trial_id": "stroop_1_ready_1", "trial_type": "html-keyboard-response", "trial_index": 3, "time_elapsed": 67680, "internal_node_id": "0.0-3.0"}}, {"uniqueid": "w24200652:a56236787", "current_trial": 4, "dateTime": 1664875444519, "trialdata": {"rt": 1449, "stimulus": "<p id='stroop-text' class='stroop-green'>GREEN</p>", "response": "g", "stimulus-type": "congruent", "word": "green", "color": "green", "correct_response": "g", "trial_id": "stroop-trial-1-congruent-11", "trial_type": "html-keyboard-response", "trial_index": 4, "time_elapsed": 69149, "internal_node_id": "0.0-4.0-0.0"}}, {"uniqueid": "w24200652:a56236787", "current_trial": 5, "dateTime": 1664875446278, "trialdata": {"rt": 1254, "stimulus": "<p id='stroop-text' class='stroop-green'>BRIDGE</p>", "response": "g", "stimulus-type": "unrelated", "word": "BRIDGE", "color": "green", "correct_response": "g", "trial_id": "stroop-trial-1-unrelated-28", "trial_type": "html-keyboard-response", "trial_index": 5, "time_elapsed": 70909, "internal_node_id": "0.0-4.0-1.0"}}, {"uniqueid": "w24200652:a56236787", "current_trial": 6, "dateTime": 1664875447822, "trialdata": {"rt": 1038, "stimulus": "<p id='stroop-text' class='stroop-red'>RED</p>", "response": "r", "stimulus-type": "congruent", "word": "red", "color": "red", "correct_response": "r", "trial_id": "stroop-trial-1-congruent-8", "trial_type": "html-keyboard-response", "trial_index": 6, "time_elapsed": 72453, "internal_node_id": "0.0-4.0-2.0"}}, {"uniqueid": "w24200652:a56236787", "current_trial": 7, "dateTime": 1664875449245, "trialdata": {"rt": 917, "stimulus": "<p id='stroop-text' class='stroop-yellow'>YELLOW</p>", "response": "y", "stimulus-type": "congruent", "word": "yellow", "color": "yellow", "correct_response": "y", "trial_id": "stroop-trial-1-congruent-26", "trial_type": "html-keyboard-response", "trial_index": 7, "time_elapsed": 73876, "internal_node_id": "0.0-4.0-3.0"}}, {"uniqueid": "w24200652:a56236787", "current_trial": 8, "dateTime": 1664875451182, "trialdata": {"rt": 1432, "stimulus": "<p id='stroop-text' class='stroop-green'>YELLOW</p>", "response": "g", "stimulus-type": "incongruent", "word": "yellow", "color": "green", "correct_response": "g", "trial_id": "stroop-trial-1-incongruent-28", "trial_type": "html-keyboard-response", "trial_index": 8, "time_elapsed": 75813, "internal_node_id": "0.0-4.0-4.0"}}, {"uniqueid": "w24200652:a56236787", "current_trial": 9, "dateTime": 1664875453110, "trialdata": {"rt": 1422, "stimulus": "<p id='stroop-text' class='stroop-yellow'>BLUE</p>", "response": "y", "stimulus-type": "incongruent", "word": "blue", "color": "yellow", "correct_response": "y", "trial_id": "stroop-trial-1-incongruent-23", "trial_type": "html-keyboard-response", "trial_index": 9, "time_elapsed": 77741, "internal_node_id": "0.0-4.0-5.0"}}, {"uniqueid": "w24200652:a56236787", "current_trial": 10, "dateTime": 1664875454590, "trialdata": {"rt": 975, "stimulus": "<p id='stroop-text' class='stroop-green'>BLUE</p>", "response": "g", "stimulus-type": "incongruent", "word": "blue", "color": "green", "correct_response": "g", "trial_id": "stroop-trial-1-incongruent-30", "trial_type": "html-keyboard-response", "trial_index": 10, "time_elapsed": 79221, "internal_node_id": "0.0-4.0-6.0"}}, {"uniqueid": "w24200652:a56236787", "current_trial": 11, "dateTime": 1664875456382, "trialdata": {"rt": 1284, "stimulus": "<p id='stroop-text' class='stroop-blue'>BLUE</p>", "response": "b", "stimulus-type": "congruent", "word": "blue", "color": "blue", "correct_response": "b", "trial_id": "stroop-trial-1-congruent-21", "trial_type": "html-keyboard-response", "trial_index": 11, "time_elapsed": 81013, "internal_node_id": "0.0-4.0-7.0"}}, {"uniqueid": "w24200652:a56236787", "current_trial": 12, "dateTime": 1664875457534, "trialdata": {"rt": 648, "stimulus": "<p id='stroop-text' class='stroop-blue'>MONKEY</p>", "response": "b", "stimulus-type": "unrelated", "word": "MONKEY", "color": "blue", "correct_response": "b", "trial_id": "stroop-trial-1-unrelated-17", "trial_type": "html-keyboard-response", "trial_index": 12, "time_elapsed": 82166, "internal_node_id": "0.0-4.0-8.0"}}, {"uniqueid": "w24200652:a56236787", "current_trial": 13, "dateTime": 1664875459014, "trialdata": {"rt": 974, "stimulus": "<p id='stroop-text' class='stroop-yellow'>RED</p>", "response": "y", "stimulus-type": "incongruent", "word": "red", "color": "yellow", "correct_response": "y", "trial_id": "stroop-trial-1-incongruent-24", "trial_type": "html-keyboard-response", "trial_index": 13, "time_elapsed": 83645, "internal_node_id": "0.0-4.0-9.0"}}, {"uniqueid": "w24200652:a56236787", "current_trial": 14, "dateTime": 1664875460502, "trialdata": {"rt": 983, "stimulus": "<p id='stroop-text' class='stroop-red'>BRIDGE</p>", "response": "r", "stimulus-type": "unrelated", "word": "BRIDGE", "color": "red", "correct_response": "r", "trial_id": "stroop-trial-1-unrelated-3", "trial_type": "html-keyboard-response", "trial_index": 14, "time_elapsed": 85133, "internal_node_id": "0.0-4.0-10.0"}}, {"uniqueid": "w24200652:a56236787", "current_trial": 15, "dateTime": 1664875462174, "trialdata": {"rt": 1167, "stimulus": "<p id='stroop-text' class='stroop-green'>BRIDGE</p>", "response": "g", "stimulus-type": "unrelated", "word": "BRIDGE", "color": "green", "correct_response": "g", "trial_id": "stroop-trial-1-unrelated-20", "trial_type": "html-keyboard-response", "trial_index": 15, "time_elapsed": 86805, "internal_node_id": "0.0-4.0-11.0"}}, {"uniqueid": "w24200652:a56236787", "current_trial": 16, "dateTime": 1664875463646, "trialdata": {"rt": 967, "stimulus": "<p id='stroop-text' class='stroop-red'>GREEN</p>", "response": "r", "stimulus-type": "incongruent", "word": "green", "color": "red", "correct_response": "r", "trial_id": "stroop-trial-1-incongruent-26", "trial_type": "html-keyboard-response", "trial_index": 16, "time_elapsed": 88277, "internal_node_id": "0.0-4.0-12.0"}}, {"uniqueid": "w24200652:a56236787", "current_trial": 17, "dateTime": 1664875464838, "trialdata": {"rt": 688, "stimulus": "<p id='stroop-text' class='stroop-yellow'>YELLOW</p>", "response": "y", "stimulus-type": "congruent", "word": "yellow", "color": "yellow", "correct_response": "y", "trial_id": "stroop-trial-1-congruent-27", "trial_type": "html-keyboard-response", "trial_index": 17, "time_elapsed": 89469, "internal_node_id": "0.0-4.0-13.0"}}, {"uniqueid": "w24200652:a56236787", "current_trial": 18, "dateTime": 1664875466086, "trialdata": {"rt": 742, "stimulus": "<p id='stroop-text' class='stroop-yellow'>YELLOW</p>", "response": "y", "stimulus-type": "congruent", "word": "yellow", "color": "yellow", "correct_response": "y", "trial_id": "stroop-trial-1-congruent-19", "trial_type": "html-keyboard-response", "trial_index": 18, "time_elapsed": 90717, "internal_node_id": "0.0-4.0-14.0"}}, {"uniqueid": "w24200652:a56236787", "current_trial": 19, "dateTime": 1664875467238, "trialdata": {"rt": 645, "stimulus": "<p id='stroop-text' class='stroop-yellow'>BRIDGE</p>", "response": "y", "stimulus-type": "unrelated", "word": "BRIDGE", "color": "yellow", "correct_response": "y", "trial_id": "stroop-trial-1-unrelated-12", "trial_type": "html-keyboard-response", "trial_index": 19, "time_elapsed": 91869, "internal_node_id": "0.0-4.0-15.0"}}, {"uniqueid": "w24200652:a56236787", "current_trial": 20, "dateTime": 1664875468678, "trialdata": {"rt": 930, "stimulus": "<p id='stroop-text' class='stroop-blue'>YELLOW</p>", "response": "b", "stimulus-type": "incongruent", "word": "yellow", "color": "blue", "correct_response": "b", "trial_id": "stroop-trial-1-incongruent-16", "trial_type": "html-keyboard-response", "trial_index": 20, "time_elapsed": 93309, "internal_node_id": "0.0-4.0-16.0"}}, {"uniqueid": "w24200652:a56236787", "current_trial": 21, "dateTime": 1664875469910, "trialdata": {"rt": 727, "stimulus": "<p id='stroop-text' class='stroop-red'>BOAT</p>", "response": "r", "stimulus-type": "unrelated", "word": "BOAT", "color": "red", "correct_response": "r", "trial_id": "stroop-trial-1-unrelated-1", "trial_type": "html-keyboard-response", "trial_index": 21, "time_elapsed": 94542, "internal_node_id": "0.0-4.0-17.0"}}, {"uniqueid": "w24200652:a56236787", "current_trial": 22, "dateTime": 1664875471350, "trialdata": {"rt": 935, "stimulus": "<p id='stroop-text' class='stroop-blue'>BOTTLE</p>", "response": "g", "stimulus-type": "unrelated", "word": "BOTTLE", "color": "blue", "correct_response": "b", "trial_id": "stroop-trial-1-unrelated-9", "trial_type": "html-keyboard-response", "trial_index": 22, "time_elapsed": 95981, "internal_node_id": "0.0-4.0-18.0"}}, {"uniqueid": "w24200652:a56236787", "current_trial": 23, "dateTime": 1664875473190, "trialdata": {"rt": 1335, "stimulus": "<p id='stroop-text' class='stroop-green'>YELLOW</p>", "response": "g", "stimulus-type": "incongruent", "word": "yellow", "color": "green", "correct_response": "g", "trial_id": "stroop-trial-1-incongruent-21", "trial_type": "html-keyboard-response", "trial_index": 23, "time_elapsed": 97821, "internal_node_id": "0.0-4.0-19.0"}}, {"uniqueid": "w24200652:a56236787", "current_trial": 24, "dateTime": 1664875474414, "trialdata": {"rt": 704, "stimulus": "<p id='stroop-text' class='stroop-green'>GREEN</p>", "response": "g", "stimulus-type": "congruent", "word": "green", "color": "green", "correct_response": "g", "trial_id": "stroop-trial-1-congruent-24", "trial_type": "html-keyboard-response", "trial_index": 24, "time_elapsed": 99045, "internal_node_id": "0.0-4.0-20.0"}}, {"uniqueid": "w24200652:a56236787", "current_trial": 25, "dateTime": 1664875475582, "trialdata": {"rt": 663, "stimulus": "<p id='stroop-text' class='stroop-red'>GREEN</p>", "response": "r", "stimulus-type": "incongruent", "word": "green", "color": "red", "correct_response": "r", "trial_id": "stroop-trial-1-incongruent-9", "trial_type": "html-keyboard-response", "trial_index": 25, "time_elapsed": 100213, "internal_node_id": "0.0-4.0-21.0"}}, {"uniqueid": "w24200652:a56236787", "current_trial": 26, "dateTime": 1664875476886, "trialdata": {"rt": 796, "stimulus": "<p id='stroop-text' class='stroop-blue'>BLUE</p>", "response": "b", "stimulus-type": "congruent", "word": "blue", "color": "blue", "correct_response": "b", "trial_id": "stroop-trial-1-congruent-29", "trial_type": "html-keyboard-response", "trial_index": 26, "time_elapsed": 101517, "internal_node_id": "0.0-4.0-22.0"}}, {"uniqueid": "w24200652:a56236787", "current_trial": 27, "dateTime": 1664875478198, "trialdata": {"rt": 808, "stimulus": "<p id='stroop-text' class='stroop-red'>YELLOW</p>", "response": "r", "stimulus-type": "incongruent", "word": "yellow", "color": "red", "correct_response": "r", "trial_id": "stroop-trial-1-incongruent-5", "trial_type": "html-keyboard-response", "trial_index": 27, "time_elapsed": 102829, "internal_node_id": "0.0-4.0-23.0"}}, {"uniqueid": "w24200652:a56236787", "current_trial": 28, "dateTime": 1664875479854, "trialdata": {"rt": 1152, "stimulus": "<p id='stroop-text' class='stroop-green'>YELLOW</p>", "response": "g", "stimulus-type": "incongruent", "word": "yellow", "color": "green", "correct_response": "g", "trial_id": "stroop-trial-1-incongruent-15", "trial_type": "html-keyboard-response", "trial_index": 28, "time_elapsed": 104485, "internal_node_id": "0.0-4.0-24.0"}}, {"uniqueid": "w24200652:a56236787", "current_trial": 29, "dateTime": 1664875481422, "trialdata": {"rt": 1063, "stimulus": "<p id='stroop-text' class='stroop-red'>RED</p>", "response": "r", "stimulus-type": "congruent", "word": "red", "color": "red", "correct_response": "r", "trial_id": "stroop-trial-1-congruent-12", "trial_type": "html-keyboard-response", "trial_index": 29, "time_elapsed": 106053, "internal_node_id": "0.0-4.0-25.0"}}, {"uniqueid": "w24200652:a56236787", "current_trial": 30, "dateTime": 1664875482542, "trialdata": {"rt": 616, "stimulus": "<p id='stroop-text' class='stroop-yellow'>YELLOW</p>", "response": "y", "stimulus-type": "congruent", "word": "yellow", "color": "yellow", "correct_response": "y", "trial_id": "stroop-trial-1-congruent-22", "trial_type": "html-keyboard-response", "trial_index": 30, "time_elapsed": 107173, "internal_node_id": "0.0-4.0-26.0"}}, {"uniqueid": "w24200652:a56236787", "current_trial": 31, "dateTime": 1664875483862, "trialdata": {"rt": 814, "stimulus": "<p id='stroop-text' class='stroop-green'>BLUE</p>", "response": "g", "stimulus-type": "incongruent", "word": "blue", "color": "green", "correct_response": "g", "trial_id": "stroop-trial-1-incongruent-13", "trial_type": "html-keyboard-response", "trial_index": 31, "time_elapsed": 108493, "internal_node_id": "0.0-4.0-27.0"}}, {"uniqueid": "w24200652:a56236787", "current_trial": 32, "dateTime": 1664875485166, "trialdata": {"rt": 796, "stimulus": "<p id='stroop-text' class='stroop-yellow'>BRAIN</p>", "response": "y", "stimulus-type": "unrelated", "word": "BRAIN", "color": "yellow", "correct_response": "y", "trial_id": "stroop-trial-1-unrelated-29", "trial_type": "html-keyboard-response", "trial_index": 32, "time_elapsed": 109797, "internal_node_id": "0.0-4.0-28.0"}}, {"uniqueid": "w24200652:a56236787", "current_trial": 33, "dateTime": 1664875486262, "trialdata": {"rt": 591, "stimulus": "<p id='stroop-text' class='stroop-yellow'>CHAIR</p>", "response": "y", "stimulus-type": "unrelated", "word": "CHAIR", "color": "yellow", "correct_response": "y", "trial_id": "stroop-trial-1-unrelated-16", "trial_type": "html-keyboard-response", "trial_index": 33, "time_elapsed": 110894, "internal_node_id": "0.0-4.0-29.0"}}, {"uniqueid": "w24200652:a56236787", "current_trial": 34, "dateTime": 1664875487638, "trialdata": {"rt": 870, "stimulus": "<p id='stroop-text' class='stroop-blue'>SHIP</p>", "response": "b", "stimulus-type": "unrelated", "word": "SHIP", "color": "blue", "correct_response": "b", "trial_id": "stroop-trial-1-unrelated-6", "trial_type": "html-keyboard-response", "trial_index": 34, "time_elapsed": 112269, "internal_node_id": "0.0-4.0-30.0"}}, {"uniqueid": "w24200652:a56236787", "current_trial": 35, "dateTime": 1664875488934, "trialdata": {"rt": 790, "stimulus": "<p id='stroop-text' class='stroop-red'>FORK</p>", "response": "r", "stimulus-type": "unrelated", "word": "FORK", "color": "red", "correct_response": "r", "trial_id": "stroop-trial-1-unrelated-8", "trial_type": "html-keyboard-response", "trial_index": 35, "time_elapsed": 113565, "internal_node_id": "0.0-4.0-31.0"}}, {"uniqueid": "w24200652:a56236787", "current_trial": 36, "dateTime": 1664875490430, "trialdata": {"rt": 990, "stimulus": "<p id='stroop-text' class='stroop-blue'>DOG</p>", "response": "b", "stimulus-type": "unrelated", "word": "DOG", "color": "blue", "correct_response": "b", "trial_id": "stroop-trial-1-unrelated-24", "trial_type": "html-keyboard-response", "trial_index": 36, "time_elapsed": 115061, "internal_node_id": "0.0-4.0-32.0"}}, {"uniqueid": "w24200652:a56236787", "current_trial": 37, "dateTime": 1664875491686, "trialdata": {"rt": 734, "stimulus": "<p id='stroop-text' class='stroop-green'>GREEN</p>", "response": "y", "stimulus-type": "congruent", "word": "green", "color": "green", "correct_response": "g", "trial_id": "stroop-trial-1-congruent-9", "trial_type": "html-keyboard-response", "trial_index": 37, "time_elapsed": 116317, "internal_node_id": "0.0-4.0-33.0"}}, {"uniqueid": "w24200652:a56236787", "current_trial": 38, "dateTime": 1664875492958, "trialdata": {"rt": 767, "stimulus": "<p id='stroop-text' class='stroop-yellow'>YELLOW</p>", "response": "y", "stimulus-type": "congruent", "word": "yellow", "color": "yellow", "correct_response": "y", "trial_id": "stroop-trial-1-congruent-16", "trial_type": "html-keyboard-response", "trial_index": 38, "time_elapsed": 117589, "internal_node_id": "0.0-4.0-34.0"}}, {"uniqueid": "w24200652:a56236787", "current_trial": 39, "dateTime": 1664875494150, "trialdata": {"rt": 687, "stimulus": "<p id='stroop-text' class='stroop-yellow'>RED</p>", "response": "y", "stimulus-type": "incongruent", "word": "red", "color": "yellow", "correct_response": "y", "trial_id": "stroop-trial-1-incongruent-22", "trial_type": "html-keyboard-response", "trial_index": 39, "time_elapsed": 118781, "internal_node_id": "0.0-4.0-35.0"}}, {"uniqueid": "w24200652:a56236787", "current_trial": 40, "dateTime": 1664875495294, "trialdata": {"rt": 639, "stimulus": "<p id='stroop-text' class='stroop-green'>MONKEY</p>", "response": "g", "stimulus-type": "unrelated", "word": "MONKEY", "color": "green", "correct_response": "g", "trial_id": "stroop-trial-1-unrelated-7", "trial_type": "html-keyboard-response", "trial_index": 40, "time_elapsed": 119925, "internal_node_id": "0.0-4.0-36.0"}}, {"uniqueid": "w24200652:a56236787", "current_trial": 41, "dateTime": 1664875496638, "trialdata": {"rt": 837, "stimulus": "<p id='stroop-text' class='stroop-red'>GREEN</p>", "response": "r", "stimulus-type": "incongruent", "word": "green", "color": "red", "correct_response": "r", "trial_id": "stroop-trial-1-incongruent-8", "trial_type": "html-keyboard-response", "trial_index": 41, "time_elapsed": 121270, "internal_node_id": "0.0-4.0-37.0"}}, {"uniqueid": "w24200652:a56236787", "current_trial": 42, "dateTime": 1664875497766, "trialdata": {"rt": 622, "stimulus": "<p id='stroop-text' class='stroop-yellow'>GREEN</p>", "response": "y", "stimulus-type": "incongruent", "word": "green", "color": "yellow", "correct_response": "y", "trial_id": "stroop-trial-1-incongruent-17", "trial_type": "html-keyboard-response", "trial_index": 42, "time_elapsed": 122397, "internal_node_id": "0.0-4.0-38.0"}}, {"uniqueid": "w24200652:a56236787", "current_trial": 43, "dateTime": 1664875498934, "trialdata": {"rt": 663, "stimulus": "<p id='stroop-text' class='stroop-green'>GREEN</p>", "response": "r", "stimulus-type": "congruent", "word": "green", "color": "green", "correct_response": "g", "trial_id": "stroop-trial-1-congruent-1", "trial_type": "html-keyboard-response", "trial_index": 43, "time_elapsed": 123565, "internal_node_id": "0.0-4.0-39.0"}}, {"uniqueid": "w24200652:a56236787", "current_trial": 44, "dateTime": 1664875500463, "trialdata": {"rt": 1023, "stimulus": "<p id='stroop-text' class='stroop-blue'>DOG</p>", "response": "b", "stimulus-type": "unrelated", "word": "DOG", "color": "blue", "correct_response": "b", "trial_id": "stroop-trial-1-unrelated-21", "trial_type": "html-keyboard-response", "trial_index": 44, "time_elapsed": 125094, "internal_node_id": "0.0-4.0-40.0"}}, {"uniqueid": "w24200652:a56236787", "current_trial": 45, "dateTime": 1664875501942, "trialdata": {"rt": 974, "stimulus": "<p id='stroop-text' class='stroop-red'>YELLOW</p>", "response": "r", "stimulus-type": "incongruent", "word": "yellow", "color": "red", "correct_response": "r", "trial_id": "stroop-trial-1-incongruent-2", "trial_type": "html-keyboard-response", "trial_index": 45, "time_elapsed": 126573, "internal_node_id": "0.0-4.0-41.0"}}, {"uniqueid": "w24200652:a56236787", "current_trial": 46, "dateTime": 1664875503334, "trialdata": {"rt": 882, "stimulus": "<p id='stroop-text' class='stroop-green'>GREEN</p>", "response": "g", "stimulus-type": "congruent", "word": "green", "color": "green", "correct_response": "g", "trial_id": "stroop-trial-1-congruent-4", "trial_type": "html-keyboard-response", "trial_index": 46, "time_elapsed": 127965, "internal_node_id": "0.0-4.0-42.0"}}, {"uniqueid": "w24200652:a56236787", "current_trial": 47, "dateTime": 1664875504806, "trialdata": {"rt": 967, "stimulus": "<p id='stroop-text' class='stroop-green'>BLUE</p>", "response": "g", "stimulus-type": "incongruent", "word": "blue", "color": "green", "correct_response": "g", "trial_id": "stroop-trial-1-incongruent-3", "trial_type": "html-keyboard-response", "trial_index": 47, "time_elapsed": 129437, "internal_node_id": "0.0-4.0-43.0"}}, {"uniqueid": "w24200652:a56236787", "current_trial": 48, "dateTime": 1664875506086, "trialdata": {"rt": 775, "stimulus": "<p id='stroop-text' class='stroop-red'>SHIP</p>", "response": "r", "stimulus-type": "unrelated", "word": "SHIP", "color": "red", "correct_response": "r", "trial_id": "stroop-trial-1-unrelated-22", "trial_type": "html-keyboard-response", "trial_index": 48, "time_elapsed": 130717, "internal_node_id": "0.0-4.0-44.0"}}, {"uniqueid": "w24200652:a56236787", "current_trial": 49, "dateTime": 1664875507262, "trialdata": {"rt": 671, "stimulus": "<p id='stroop-text' class='stroop-yellow'>BLUE</p>", "response": "y", "stimulus-type": "incongruent", "word": "blue", "color": "yellow", "correct_response": "y", "trial_id": "stroop-trial-1-incongruent-19", "trial_type": "html-keyboard-response", "trial_index": 49, "time_elapsed": 131894, "internal_node_id": "0.0-4.0-45.0"}}, {"uniqueid": "w24200652:a56236787", "current_trial": 50, "dateTime": 1664875508559, "trialdata": {"rt": 788, "stimulus": "<p id='stroop-text' class='stroop-red'>FORK</p>", "response": "r", "stimulus-type": "unrelated", "word": "FORK", "color": "red", "correct_response": "r", "trial_id": "stroop-trial-1-unrelated-23", "trial_type": "html-keyboard-response", "trial_index": 50, "time_elapsed": 133190, "internal_node_id": "0.0-4.0-46.0"}}, {"uniqueid": "w24200652:a56236787", "current_trial": 51, "dateTime": 1664875511326, "trialdata": {"rt": 2262, "stimulus": "<p id='stroop-text' class='stroop-blue'>BLUE</p>", "response": "b", "stimulus-type": "congruent", "word": "blue", "color": "blue", "correct_response": "b", "trial_id": "stroop-trial-1-congruent-28", "trial_type": "html-keyboard-response", "trial_index": 51, "time_elapsed": 135957, "internal_node_id": "0.0-4.0-47.0"}}, {"uniqueid": "w24200652:a56236787", "current_trial": 52, "dateTime": 1664875512654, "trialdata": {"rt": 822, "stimulus": "<p id='stroop-text' class='stroop-red'>STONE</p>", "response": "r", "stimulus-type": "unrelated", "word": "STONE", "color": "red", "correct_response": "r", "trial_id": "stroop-trial-1-unrelated-15", "trial_type": "html-keyboard-response", "trial_index": 52, "time_elapsed": 137285, "internal_node_id": "0.0-4.0-48.0"}}, {"uniqueid": "w24200652:a56236787", "current_trial": 53, "dateTime": 1664875513879, "trialdata": {"rt": 720, "stimulus": "<p id='stroop-text' class='stroop-green'>YELLOW</p>", "response": "r", "stimulus-type": "incongruent", "word": "yellow", "color": "green", "correct_response": "g", "trial_id": "stroop-trial-1-incongruent-18", "trial_type": "html-keyboard-response", "trial_index": 53, "time_elapsed": 138510, "internal_node_id": "0.0-4.0-49.0"}}, {"uniqueid": "w24200652:a56236787", "current_trial": 54, "dateTime": 1664875515262, "trialdata": {"rt": 875, "stimulus": "<p id='stroop-text' class='stroop-red'>RED</p>", "response": "r", "stimulus-type": "congruent", "word": "red", "color": "red", "correct_response": "r", "trial_id": "stroop-trial-1-congruent-13", "trial_type": "html-keyboard-response", "trial_index": 54, "time_elapsed": 139893, "internal_node_id": "0.0-4.0-50.0"}}, {"uniqueid": "w24200652:a56236787", "current_trial": 55, "dateTime": 1664875516518, "trialdata": {"rt": 752, "stimulus": "<p id='stroop-text' class='stroop-red'>RED</p>", "response": "r", "stimulus-type": "congruent", "word": "red", "color": "red", "correct_response": "r", "trial_id": "stroop-trial-1-congruent-2", "trial_type": "html-keyboard-response", "trial_index": 55, "time_elapsed": 141149, "internal_node_id": "0.0-4.0-51.0"}}, {"uniqueid": "w24200652:a56236787", "current_trial": 56, "dateTime": 1664875517735, "trialdata": {"rt": 711, "stimulus": "<p id='stroop-text' class='stroop-green'>GREEN</p>", "response": "g", "stimulus-type": "congruent", "word": "green", "color": "green", "correct_response": "g", "trial_id": "stroop-trial-1-congruent-23", "trial_type": "html-keyboard-response", "trial_index": 56, "time_elapsed": 142366, "internal_node_id": "0.0-4.0-52.0"}}, {"uniqueid": "w24200652:a56236787", "current_trial": 57, "dateTime": 1664875518886, "trialdata": {"rt": 646, "stimulus": "<p id='stroop-text' class='stroop-yellow'>YELLOW</p>", "response": "y", "stimulus-type": "congruent", "word": "yellow", "color": "yellow", "correct_response": "y", "trial_id": "stroop-trial-1-congruent-10", "trial_type": "html-keyboard-response", "trial_index": 57, "time_elapsed": 143517, "internal_node_id": "0.0-4.0-53.0"}}, {"uniqueid": "w24200652:a56236787", "current_trial": 58, "dateTime": 1664875520158, "trialdata": {"rt": 767, "stimulus": "<p id='stroop-text' class='stroop-blue'>FORK</p>", "response": "b", "stimulus-type": "unrelated", "word": "FORK", "color": "blue", "correct_response": "b", "trial_id": "stroop-trial-1-unrelated-26", "trial_type": "html-keyboard-response", "trial_index": 58, "time_elapsed": 144789, "internal_node_id": "0.0-4.0-54.0"}}, {"uniqueid": "w24200652:a56236787", "current_trial": 59, "dateTime": 1664875521462, "trialdata": {"rt": 799, "stimulus": "<p id='stroop-text' class='stroop-red'>BOTTLE</p>", "response": "r", "stimulus-type": "unrelated", "word": "BOTTLE", "color": "red", "correct_response": "r", "trial_id": "stroop-trial-1-unrelated-14", "trial_type": "html-keyboard-response", "trial_index": 59, "time_elapsed": 146093, "internal_node_id": "0.0-4.0-55.0"}}, {"uniqueid": "w24200652:a56236787", "current_trial": 60, "dateTime": 1664875522702, "trialdata": {"rt": 735, "stimulus": "<p id='stroop-text' class='stroop-yellow'>BLUE</p>", "response": "y", "stimulus-type": "incongruent", "word": "blue", "color": "yellow", "correct_response": "y", "trial_id": "stroop-trial-1-incongruent-27", "trial_type": "html-keyboard-response", "trial_index": 60, "time_elapsed": 147333, "internal_node_id": "0.0-4.0-56.0"}}, {"uniqueid": "w24200652:a56236787", "current_trial": 61, "dateTime": 1664875524006, "trialdata": {"rt": 799, "stimulus": "<p id='stroop-text' class='stroop-blue'>GREEN</p>", "response": "b", "stimulus-type": "incongruent", "word": "green", "color": "blue", "correct_response": "b", "trial_id": "stroop-trial-1-incongruent-6", "trial_type": "html-keyboard-response", "trial_index": 61, "time_elapsed": 148637, "internal_node_id": "0.0-4.0-57.0"}}, {"uniqueid": "w24200652:a56236787", "current_trial": 62, "dateTime": 1664875525310, "trialdata": {"rt": 798, "stimulus": "<p id='stroop-text' class='stroop-red'>DOG</p>", "response": "r", "stimulus-type": "unrelated", "word": "DOG", "color": "red", "correct_response": "r", "trial_id": "stroop-trial-1-unrelated-4", "trial_type": "html-keyboard-response", "trial_index": 62, "time_elapsed": 149942, "internal_node_id": "0.0-4.0-58.0"}}, {"uniqueid": "w24200652:a56236787", "current_trial": 63, "dateTime": 1664875527140, "trialdata": {"rt": 1325, "stimulus": "<p id='stroop-text' class='stroop-green'>BRAIN</p>", "response": "g", "stimulus-type": "unrelated", "word": "BRAIN", "color": "green", "correct_response": "g", "trial_id": "stroop-trial-1-unrelated-5", "trial_type": "html-keyboard-response", "trial_index": 63, "time_elapsed": 151772, "internal_node_id": "0.0-4.0-59.0"}}, {"uniqueid": "w24200652:a56236787", "current_trial": 64, "dateTime": 1664875528799, "trialdata": {"rt": 1155, "stimulus": "<p id='stroop-text' class='stroop-red'>BLUE</p>", "response": "r", "stimulus-type": "incongruent", "word": "blue", "color": "red", "correct_response": "r", "trial_id": "stroop-trial-1-incongruent-11", "trial_type": "html-keyboard-response", "trial_index": 64, "time_elapsed": 153430, "internal_node_id": "0.0-4.0-60.0"}}, {"uniqueid": "w24200652:a56236787", "current_trial": 65, "dateTime": 1664875529982, "trialdata": {"rt": 674, "stimulus": "<p id='stroop-text' class='stroop-yellow'>FORK</p>", "response": "y", "stimulus-type": "unrelated", "word": "FORK", "color": "yellow", "correct_response": "y", "trial_id": "stroop-trial-1-unrelated-2", "trial_type": "html-keyboard-response", "trial_index": 65, "time_elapsed": 154613, "internal_node_id": "0.0-4.0-61.0"}}, {"uniqueid": "w24200652:a56236787", "current_trial": 66, "dateTime": 1664875531830, "trialdata": {"rt": 1343, "stimulus": "<p id='stroop-text' class='stroop-yellow'>GREEN</p>", "response": "y", "stimulus-type": "incongruent", "word": "green", "color": "yellow", "correct_response": "y", "trial_id": "stroop-trial-1-incongruent-12", "trial_type": "html-keyboard-response", "trial_index": 66, "time_elapsed": 156461, "internal_node_id": "0.0-4.0-62.0"}}, {"uniqueid": "w24200652:a56236787", "current_trial": 67, "dateTime": 1664875533662, "trialdata": {"rt": 1327, "stimulus": "<p id='stroop-text' class='stroop-blue'>GREEN</p>", "response": "b", "stimulus-type": "incongruent", "word": "green", "color": "blue", "correct_response": "b", "trial_id": "stroop-trial-1-incongruent-10", "trial_type": "html-keyboard-response", "trial_index": 67, "time_elapsed": 158293, "internal_node_id": "0.0-4.0-63.0"}}, {"uniqueid": "w24200652:a56236787", "current_trial": 68, "dateTime": 1664875534854, "trialdata": {"rt": 687, "stimulus": "<p id='stroop-text' class='stroop-red'>BRIDGE</p>", "response": "r", "stimulus-type": "unrelated", "word": "BRIDGE", "color": "red", "correct_response": "r", "trial_id": "stroop-trial-1-unrelated-19", "trial_type": "html-keyboard-response", "trial_index": 68, "time_elapsed": 159486, "internal_node_id": "0.0-4.0-64.0"}}, {"uniqueid": "w24200652:a56236787", "current_trial": 69, "dateTime": 1664875536495, "trialdata": {"rt": 1131, "stimulus": "<p id='stroop-text' class='stroop-blue'>BLUE</p>", "response": "g", "stimulus-type": "congruent", "word": "blue", "color": "blue", "correct_response": "b", "trial_id": "stroop-trial-1-congruent-14", "trial_type": "html-keyboard-response", "trial_index": 69, "time_elapsed": 161126, "internal_node_id": "0.0-4.0-65.0"}}, {"uniqueid": "w24200652:a56236787", "current_trial": 70, "dateTime": 1664875538878, "trialdata": {"rt": 1876, "stimulus": "<p id='stroop-text' class='stroop-red'>YELLOW</p>", "response": "r", "stimulus-type": "incongruent", "word": "yellow", "color": "red", "correct_response": "r", "trial_id": "stroop-trial-1-incongruent-7", "trial_type": "html-keyboard-response", "trial_index": 70, "time_elapsed": 163510, "internal_node_id": "0.0-4.0-66.0"}}, {"uniqueid": "w24200652:a56236787", "current_trial": 71, "dateTime": 1664875540310, "trialdata": {"rt": 926, "stimulus": "<p id='stroop-text' class='stroop-blue'>YELLOW</p>", "response": "g", "stimulus-type": "incongruent", "word": "yellow", "color": "blue", "correct_response": "b", "trial_id": "stroop-trial-1-incongruent-1", "trial_type": "html-keyboard-response", "trial_index": 71, "time_elapsed": 164941, "internal_node_id": "0.0-4.0-67.0"}}, {"uniqueid": "w24200652:a56236787", "current_trial": 72, "dateTime": 1664875541718, "trialdata": {"rt": 901, "stimulus": "<p id='stroop-text' class='stroop-yellow'>RED</p>", "response": "y", "stimulus-type": "incongruent", "word": "red", "color": "yellow", "correct_response": "y", "trial_id": "stroop-trial-1-incongruent-20", "trial_type": "html-keyboard-response", "trial_index": 72, "time_elapsed": 166349, "internal_node_id": "0.0-4.0-68.0"}}, {"uniqueid": "w24200652:a56236787", "current_trial": 73, "dateTime": 1664875543022, "trialdata": {"rt": 798, "stimulus": "<p id='stroop-text' class='stroop-red'>BOAT</p>", "response": "r", "stimulus-type": "unrelated", "word": "BOAT", "color": "red", "correct_response": "r", "trial_id": "stroop-trial-1-unrelated-18", "trial_type": "html-keyboard-response", "trial_index": 73, "time_elapsed": 167653, "internal_node_id": "0.0-4.0-69.0"}}, {"uniqueid": "w24200652:a56236787", "current_trial": 74, "dateTime": 1664875544990, "trialdata": {"rt": 1463, "stimulus": "<p id='stroop-text' class='stroop-blue'>BLUE</p>", "response": "b", "stimulus-type": "congruent", "word": "blue", "color": "blue", "correct_response": "b", "trial_id": "stroop-trial-1-congruent-3", "trial_type": "html-keyboard-response", "trial_index": 74, "time_elapsed": 169621, "internal_node_id": "0.0-4.0-70.0"}}, {"uniqueid": "w24200652:a56236787", "current_trial": 75, "dateTime": 1664875546166, "trialdata": {"rt": 670, "stimulus": "<p id='stroop-text' class='stroop-green'>GREEN</p>", "response": "g", "stimulus-type": "congruent", "word": "green", "color": "green", "correct_response": "g", "trial_id": "stroop-trial-1-congruent-30", "trial_type": "html-keyboard-response", "trial_index": 75, "time_elapsed": 170798, "internal_node_id": "0.0-4.0-71.0"}}, {"uniqueid": "w24200652:a56236787", "current_trial": 76, "dateTime": 1664875547222, "trialdata": {"rt": 549, "stimulus": "<p id='stroop-text' class='stroop-green'>GREEN</p>", "response": "g", "stimulus-type": "congruent", "word": "green", "color": "green", "correct_response": "g", "trial_id": "stroop-trial-1-congruent-20", "trial_type": "html-keyboard-response", "trial_index": 76, "time_elapsed": 171854, "internal_node_id": "0.0-4.0-72.0"}}, {"uniqueid": "w24200652:a56236787", "current_trial": 77, "dateTime": 1664875548269, "trialdata": {"rt": 539, "stimulus": "<p id='stroop-text' class='stroop-green'>GREEN</p>", "response": "g", "stimulus-type": "congruent", "word": "green", "color": "green", "correct_response": "g", "trial_id": "stroop-trial-1-congruent-5", "trial_type": "html-keyboard-response", "trial_index": 77, "time_elapsed": 172900, "internal_node_id": "0.0-4.0-73.0"}}, {"uniqueid": "w24200652:a56236787", "current_trial": 78, "dateTime": 1664875549254, "trialdata": {"rt": 481, "stimulus": "<p id='stroop-text' class='stroop-green'>GREEN</p>", "response": "g", "stimulus-type": "congruent", "word": "green", "color": "green", "correct_response": "g", "trial_id": "stroop-trial-1-congruent-7", "trial_type": "html-keyboard-response", "trial_index": 78, "time_elapsed": 173886, "internal_node_id": "0.0-4.0-74.0"}}, {"uniqueid": "w24200652:a56236787", "current_trial": 79, "dateTime": 1664875550566, "trialdata": {"rt": 804, "stimulus": "<p id='stroop-text' class='stroop-red'>BOAT</p>", "response": "r", "stimulus-type": "unrelated", "word": "BOAT", "color": "red", "correct_response": "r", "trial_id": "stroop-trial-1-unrelated-27", "trial_type": "html-keyboard-response", "trial_index": 79, "time_elapsed": 175198, "internal_node_id": "0.0-4.0-75.0"}}, {"uniqueid": "w24200652:a56236787", "current_trial": 80, "dateTime": 1664875551838, "trialdata": {"rt": 766, "stimulus": "<p id='stroop-text' class='stroop-blue'>RED</p>", "response": "b", "stimulus-type": "incongruent", "word": "red", "color": "blue", "correct_response": "b", "trial_id": "stroop-trial-1-incongruent-14", "trial_type": "html-keyboard-response", "trial_index": 80, "time_elapsed": 176470, "internal_node_id": "0.0-4.0-76.0"}}, {"uniqueid": "w24200652:a56236787", "current_trial": 81, "dateTime": 1664875553246, "trialdata": {"rt": 903, "stimulus": "<p id='stroop-text' class='stroop-green'>BOTTLE</p>", "response": "g", "stimulus-type": "unrelated", "word": "BOTTLE", "color": "green", "correct_response": "g", "trial_id": "stroop-trial-1-unrelated-10", "trial_type": "html-keyboard-response", "trial_index": 81, "time_elapsed": 177877, "internal_node_id": "0.0-4.0-77.0"}}, {"uniqueid": "w24200652:a56236787", "current_trial": 82, "dateTime": 1664875554558, "trialdata": {"rt": 805, "stimulus": "<p id='stroop-text' class='stroop-blue'>FORK</p>", "response": "b", "stimulus-type": "unrelated", "word": "FORK", "color": "blue", "correct_response": "b", "trial_id": "stroop-trial-1-unrelated-11", "trial_type": "html-keyboard-response", "trial_index": 82, "time_elapsed": 179189, "internal_node_id": "0.0-4.0-78.0"}}, {"uniqueid": "w24200652:a56236787", "current_trial": 83, "dateTime": 1664875555662, "trialdata": {"rt": 597, "stimulus": "<p id='stroop-text' class='stroop-yellow'>CHAIR</p>", "response": "y", "stimulus-type": "unrelated", "word": "CHAIR", "color": "yellow", "correct_response": "y", "trial_id": "stroop-trial-1-unrelated-13", "trial_type": "html-keyboard-response", "trial_index": 83, "time_elapsed": 180294, "internal_node_id": "0.0-4.0-79.0"}}, {"uniqueid": "w24200652:a56236787", "current_trial": 84, "dateTime": 1664875556862, "trialdata": {"rt": 694, "stimulus": "<p id='stroop-text' class='stroop-red'>RED</p>", "response": "r", "stimulus-type": "congruent", "word": "red", "color": "red", "correct_response": "r", "trial_id": "stroop-trial-1-congruent-25", "trial_type": "html-keyboard-response", "trial_index": 84, "time_elapsed": 181494, "internal_node_id": "0.0-4.0-80.0"}}, {"uniqueid": "w24200652:a56236787", "current_trial": 85, "dateTime": 1664875558214, "trialdata": {"rt": 844, "stimulus": "<p id='stroop-text' class='stroop-red'>GREEN</p>", "response": "r", "stimulus-type": "incongruent", "word": "green", "color": "red", "correct_response": "r", "trial_id": "stroop-trial-1-incongruent-29", "trial_type": "html-keyboard-response", "trial_index": 85, "time_elapsed": 182845, "internal_node_id": "0.0-4.0-81.0"}}, {"uniqueid": "w24200652:a56236787", "current_trial": 86, "dateTime": 1664875559246, "trialdata": {"rt": 527, "stimulus": "<p id='stroop-text' class='stroop-red'>BOTTLE</p>", "response": "r", "stimulus-type": "unrelated", "word": "BOTTLE", "color": "red", "correct_response": "r", "trial_id": "stroop-trial-1-unrelated-25", "trial_type": "html-keyboard-response", "trial_index": 86, "time_elapsed": 183877, "internal_node_id": "0.0-4.0-82.0"}}, {"uniqueid": "w24200652:a56236787", "current_trial": 87, "dateTime": 1664875560334, "trialdata": {"rt": 583, "stimulus": "<p id='stroop-text' class='stroop-yellow'>YELLOW</p>", "response": "y", "stimulus-type": "congruent", "word": "yellow", "color": "yellow", "correct_response": "y", "trial_id": "stroop-trial-1-congruent-17", "trial_type": "html-keyboard-response", "trial_index": 87, "time_elapsed": 184966, "internal_node_id": "0.0-4.0-83.0"}}, {"uniqueid": "w24200652:a56236787", "current_trial": 88, "dateTime": 1664875561406, "trialdata": {"rt": 564, "stimulus": "<p id='stroop-text' class='stroop-red'>GREEN</p>", "response": "r", "stimulus-type": "incongruent", "word": "green", "color": "red", "correct_response": "r", "trial_id": "stroop-trial-1-incongruent-4", "trial_type": "html-keyboard-response", "trial_index": 88, "time_elapsed": 186038, "internal_node_id": "0.0-4.0-84.0"}}, {"uniqueid": "w24200652:a56236787", "current_trial": 89, "dateTime": 1664875562606, "trialdata": {"rt": 695, "stimulus": "<p id='stroop-text' class='stroop-green'>BOAT</p>", "response": "g", "stimulus-type": "unrelated", "word": "BOAT", "color": "green", "correct_response": "g", "trial_id": "stroop-trial-1-unrelated-30", "trial_type": "html-keyboard-response", "trial_index": 89, "time_elapsed": 187238, "internal_node_id": "0.0-4.0-85.0"}}, {"uniqueid": "w24200652:a56236787", "current_trial": 90, "dateTime": 1664875563790, "trialdata": {"rt": 678, "stimulus": "<p id='stroop-text' class='stroop-red'>RED</p>", "response": "r", "stimulus-type": "congruent", "word": "red", "color": "red", "correct_response": "r", "trial_id": "stroop-trial-1-congruent-15", "trial_type": "html-keyboard-response", "trial_index": 90, "time_elapsed": 188422, "internal_node_id": "0.0-4.0-86.0"}}, {"uniqueid": "w24200652:a56236787", "current_trial": 91, "dateTime": 1664875565030, "trialdata": {"rt": 731, "stimulus": "<p id='stroop-text' class='stroop-green'>GREEN</p>", "response": "g", "stimulus-type": "congruent", "word": "green", "color": "green", "correct_response": "g", "trial_id": "stroop-trial-1-congruent-18", "trial_type": "html-keyboard-response", "trial_index": 91, "time_elapsed": 189662, "internal_node_id": "0.0-4.0-87.0"}}, {"uniqueid": "w24200652:a56236787", "current_trial": 92, "dateTime": 1664875566126, "trialdata": {"rt": 581, "stimulus": "<p id='stroop-text' class='stroop-yellow'>YELLOW</p>", "response": "y", "stimulus-type": "congruent", "word": "yellow", "color": "yellow", "correct_response": "y", "trial_id": "stroop-trial-1-congruent-6", "trial_type": "html-keyboard-response", "trial_index": 92, "time_elapsed": 190757, "internal_node_id": "0.0-4.0-88.0"}}, {"uniqueid": "w24200652:a56236787", "current_trial": 93, "dateTime": 1664875567326, "trialdata": {"rt": 692, "stimulus": "<p id='stroop-text' class='stroop-blue'>YELLOW</p>", "response": "b", "stimulus-type": "incongruent", "word": "yellow", "color": "blue", "correct_response": "b", "trial_id": "stroop-trial-1-incongruent-25", "trial_type": "html-keyboard-response", "trial_index": 93, "time_elapsed": 191958, "internal_node_id": "0.0-4.0-89.0"}}, {"uniqueid": "w24200652:a56236787", "current_trial": 94, "dateTime": 1664875591022, "trialdata": {"rt": 23186, "stimulus": "  <h1> End of block! </h1>\n\n  You have reached the end of the block 1/5. If you need a short break, feel free to take one now before moving on.\n\n  <br><br>\n  In the next block, you will complete another 90 rounds of this game.\n\n  <br><br>\n  <div style='text-align: center;'>Press <code>space</code> to begin.</div>\n  <br><br>\n<div style='text-align: center;'>(If the experiment doesn't continue, try clicking on the text and then pressing <code>space</code>.)</div>", "response": " ", "trial_id": "stroop_1_ready_2", "trial_type": "html-keyboard-response", "trial_index": 94, "time_elapsed": 215654, "internal_node_id": "0.0-5.0"}}, {"uniqueid": "w24200652:a56236787", "current_trial": 95, "dateTime": 1664875592326, "trialdata": {"rt": 1295, "stimulus": "<p id='stroop-text' class='stroop-blue'>YELLOW</p>", "response": "b", "stimulus-type": "incongruent", "word": "yellow", "color": "blue", "correct_response": "b", "trial_id": "stroop-trial-1-incongruent-17", "trial_type": "html-keyboard-response", "trial_index": 95, "time_elapsed": 216958, "internal_node_id": "0.0-6.0-0.0"}}, {"uniqueid": "w24200652:a56236787", "current_trial": 96, "dateTime": 1664875594158, "trialdata": {"rt": 1324, "stimulus": "<p id='stroop-text' class='stroop-yellow'>BRAIN</p>", "response": "y", "stimulus-type": "unrelated", "word": "BRAIN", "color": "yellow", "correct_response": "y", "trial_id": "stroop-trial-1-unrelated-20", "trial_type": "html-keyboard-response", "trial_index": 96, "time_elapsed": 218790, "internal_node_id": "0.0-6.0-1.0"}}, {"uniqueid": "w24200652:a56236787", "current_trial": 97, "dateTime": 1664875595158, "trialdata": {"rt": 493, "stimulus": "<p id='stroop-text' class='stroop-green'>RED</p>", "response": "g", "stimulus-type": "incongruent", "word": "red", "color": "green", "correct_response": "g", "trial_id": "stroop-trial-1-incongruent-1", "trial_type": "html-keyboard-response", "trial_index": 97, "time_elapsed": 219789, "internal_node_id": "0.0-6.0-2.0"}}, {"uniqueid": "w24200652:a56236787", "current_trial": 98, "dateTime": 1664875596230, "trialdata": {"rt": 567, "stimulus": "<p id='stroop-text' class='stroop-yellow'>WINDOW</p>", "response": "y", "stimulus-type": "unrelated", "word": "WINDOW", "color": "yellow", "correct_response": "y", "trial_id": "stroop-trial-1-unrelated-12", "trial_type": "html-keyboard-response", "trial_index": 98, "time_elapsed": 220862, "internal_node_id": "0.0-6.0-3.0"}}, {"uniqueid": "w24200652:a56236787", "current_trial": 99, "dateTime": 1664875597470, "trialdata": {"rt": 733, "stimulus": "<p id='stroop-text' class='stroop-blue'>BLUE</p>", "response": "b", "stimulus-type": "congruent", "word": "blue", "color": "blue", "correct_response": "b", "trial_id": "stroop-trial-1-congruent-14", "trial_type": "html-keyboard-response", "trial_index": 99, "time_elapsed": 222102, "internal_node_id": "0.0-6.0-4.0"}}, {"uniqueid": "w24200652:a56236787", "current_trial": 100, "dateTime": 1664875599126, "trialdata": {"rt": 1151, "stimulus": "<p id='stroop-text' class='stroop-yellow'>RED</p>", "response": "y", "stimulus-type": "incongruent", "word": "red", "color": "yellow", "correct_response": "y", "trial_id": "stroop-trial-1-incongruent-24", "trial_type": "html-keyboard-response", "trial_index": 100, "time_elapsed": 223758, "internal_node_id": "0.0-6.0-5.0"}}, {"uniqueid": "w24200652:a56236787", "current_trial": 101, "dateTime": 1664875600111, "trialdata": {"rt": 477, "stimulus": "<p id='stroop-text' class='stroop-yellow'>BRIDGE</p>", "response": "y", "stimulus-type": "unrelated", "word": "BRIDGE", "color": "yellow", "correct_response": "y", "trial_id": "stroop-trial-1-unrelated-16", "trial_type": "html-keyboard-response", "trial_index": 101, "time_elapsed": 224742, "internal_node_id": "0.0-6.0-6.0"}}, {"uniqueid": "w24200652:a56236787", "current_trial": 102, "dateTime": 1664875601014, "trialdata": {"rt": 392, "stimulus": "<p id='stroop-text' class='stroop-yellow'>MONKEY</p>", "response": "y", "stimulus-type": "unrelated", "word": "MONKEY", "color": "yellow", "correct_response": "y", "trial_id": "stroop-trial-1-unrelated-11", "trial_type": "html-keyboard-response", "trial_index": 102, "time_elapsed": 225645, "internal_node_id": "0.0-6.0-7.0"}}, {"uniqueid": "w24200652:a56236787", "current_trial": 103, "dateTime": 1664875602031, "trialdata": {"rt": 508, "stimulus": "<p id='stroop-text' class='stroop-red'>BRAIN</p>", "response": "r", "stimulus-type": "unrelated", "word": "BRAIN", "color": "red", "correct_response": "r", "trial_id": "stroop-trial-1-unrelated-9", "trial_type": "html-keyboard-response", "trial_index": 103, "time_elapsed": 226662, "internal_node_id": "0.0-6.0-8.0"}}, {"uniqueid": "w24200652:a56236787", "current_trial": 104, "dateTime": 1664875602974, "trialdata": {"rt": 429, "stimulus": "<p id='stroop-text' class='stroop-red'>RED</p>", "response": "r", "stimulus-type": "congruent", "word": "red", "color": "red", "correct_response": "r", "trial_id": "stroop-trial-1-congruent-4", "trial_type": "html-keyboard-response", "trial_index": 104, "time_elapsed": 227606, "internal_node_id": "0.0-6.0-9.0"}}, {"uniqueid": "w24200652:a56236787", "current_trial": 105, "dateTime": 1664875603870, "trialdata": {"rt": 390, "stimulus": "<p id='stroop-text' class='stroop-red'>RED</p>", "response": "r", "stimulus-type": "congruent", "word": "red", "color": "red", "correct_response": "r", "trial_id": "stroop-trial-1-congruent-1", "trial_type": "html-keyboard-response", "trial_index": 105, "time_elapsed": 228502, "internal_node_id": "0.0-6.0-10.0"}}, {"uniqueid": "w24200652:a56236787", "current_trial": 106, "dateTime": 1664875604886, "trialdata": {"rt": 501, "stimulus": "<p id='stroop-text' class='stroop-red'>STONE</p>", "response": "r", "stimulus-type": "unrelated", "word": "STONE", "color": "red", "correct_response": "r", "trial_id": "stroop-trial-1-unrelated-28", "trial_type": "html-keyboard-response", "trial_index": 106, "time_elapsed": 229518, "internal_node_id": "0.0-6.0-11.0"}}, {"uniqueid": "w24200652:a56236787", "current_trial": 107, "dateTime": 1664875606094, "trialdata": {"rt": 701, "stimulus": "<p id='stroop-text' class='stroop-green'>BLUE</p>", "response": "g", "stimulus-type": "incongruent", "word": "blue", "color": "green", "correct_response": "g", "trial_id": "stroop-trial-1-incongruent-27", "trial_type": "html-keyboard-response", "trial_index": 107, "time_elapsed": 230726, "internal_node_id": "0.0-6.0-12.0"}}, {"uniqueid": "w24200652:a56236787", "current_trial": 108, "dateTime": 1664875607158, "trialdata": {"rt": 555, "stimulus": "<p id='stroop-text' class='stroop-yellow'>GREEN</p>", "response": "y", "stimulus-type": "incongruent", "word": "green", "color": "yellow", "correct_response": "y", "trial_id": "stroop-trial-1-incongruent-8", "trial_type": "html-keyboard-response", "trial_index": 108, "time_elapsed": 231790, "internal_node_id": "0.0-6.0-13.0"}}, {"uniqueid": "w24200652:a56236787", "current_trial": 109, "dateTime": 1664875608039, "trialdata": {"rt": 373, "stimulus": "<p id='stroop-text' class='stroop-yellow'>YELLOW</p>", "response": "y", "stimulus-type": "congruent", "word": "yellow", "color": "yellow", "correct_response": "y", "trial_id": "stroop-trial-1-congruent-13", "trial_type": "html-keyboard-response", "trial_index": 109, "time_elapsed": 232671, "internal_node_id": "0.0-6.0-14.0"}}, {"uniqueid": "w24200652:a56236787", "current_trial": 110, "dateTime": 1664875608870, "trialdata": {"rt": 321, "stimulus": "<p id='stroop-text' class='stroop-yellow'>BOTTLE</p>", "response": "y", "stimulus-type": "unrelated", "word": "BOTTLE", "color": "yellow", "correct_response": "y", "trial_id": "stroop-trial-1-unrelated-21", "trial_type": "html-keyboard-response", "trial_index": 110, "time_elapsed": 233502, "internal_node_id": "0.0-6.0-15.0"}}, {"uniqueid": "w24200652:a56236787", "current_trial": 111, "dateTime": 1664875609942, "trialdata": {"rt": 564, "stimulus": "<p id='stroop-text' class='stroop-green'>BLUE</p>", "response": "g", "stimulus-type": "incongruent", "word": "blue", "color": "green", "correct_response": "g", "trial_id": "stroop-trial-1-incongruent-9", "trial_type": "html-keyboard-response", "trial_index": 111, "time_elapsed": 234574, "internal_node_id": "0.0-6.0-16.0"}}, {"uniqueid": "w24200652:a56236787", "current_trial": 112, "dateTime": 1664875610966, "trialdata": {"rt": 518, "stimulus": "<p id='stroop-text' class='stroop-yellow'>GREEN</p>", "response": "y", "stimulus-type": "incongruent", "word": "green", "color": "yellow", "correct_response": "y", "trial_id": "stroop-trial-1-incongruent-4", "trial_type": "html-keyboard-response", "trial_index": 112, "time_elapsed": 235598, "internal_node_id": "0.0-6.0-17.0"}}, {"uniqueid": "w24200652:a56236787", "current_trial": 113, "dateTime": 1664875612439, "trialdata": {"rt": 966, "stimulus": "<p id='stroop-text' class='stroop-blue'>BOTTLE</p>", "response": "b", "stimulus-type": "unrelated", "word": "BOTTLE", "color": "blue", "correct_response": "b", "trial_id": "stroop-trial-1-unrelated-3", "trial_type": "html-keyboard-response", "trial_index": 113, "time_elapsed": 237070, "internal_node_id": "0.0-6.0-18.0"}}, {"uniqueid": "w24200652:a56236787", "current_trial": 114, "dateTime": 1664875613606, "trialdata": {"rt": 661, "stimulus": "<p id='stroop-text' class='stroop-yellow'>YELLOW</p>", "response": "y", "stimulus-type": "congruent", "word": "yellow", "color": "yellow", "correct_response": "y", "trial_id": "stroop-trial-1-congruent-23", "trial_type": "html-keyboard-response", "trial_index": 114, "time_elapsed": 238238, "internal_node_id": "0.0-6.0-19.0"}}, {"uniqueid": "w24200652:a56236787", "current_trial": 115, "dateTime": 1664875614654, "trialdata": {"rt": 539, "stimulus": "<p id='stroop-text' class='stroop-red'>CHAIR</p>", "response": "r", "stimulus-type": "unrelated", "word": "CHAIR", "color": "red", "correct_response": "r", "trial_id": "stroop-trial-1-unrelated-14", "trial_type": "html-keyboard-response", "trial_index": 115, "time_elapsed": 239286, "internal_node_id": "0.0-6.0-20.0"}}, {"uniqueid": "w24200652:a56236787", "current_trial": 116, "dateTime": 1664875615550, "trialdata": {"rt": 391, "stimulus": "<p id='stroop-text' class='stroop-red'>RED</p>", "response": "r", "stimulus-type": "congruent", "word": "red", "color": "red", "correct_response": "r", "trial_id": "stroop-trial-1-congruent-18", "trial_type": "html-keyboard-response", "trial_index": 116, "time_elapsed": 240182, "internal_node_id": "0.0-6.0-21.0"}}, {"uniqueid": "w24200652:a56236787", "current_trial": 117, "dateTime": 1664875616641, "trialdata": {"rt": 574, "stimulus": "<p id='stroop-text' class='stroop-green'>SHIP</p>", "response": "g", "stimulus-type": "unrelated", "word": "SHIP", "color": "green", "correct_response": "g", "trial_id": "stroop-trial-1-unrelated-27", "trial_type": "html-keyboard-response", "trial_index": 117, "time_elapsed": 241270, "internal_node_id": "0.0-6.0-22.0"}}, {"uniqueid": "w24200652:a56236787", "current_trial": 118, "dateTime": 1664875617670, "trialdata": {"rt": 524, "stimulus": "<p id='stroop-text' class='stroop-yellow'>RED</p>", "response": "y", "stimulus-type": "incongruent", "word": "red", "color": "yellow", "correct_response": "y", "trial_id": "stroop-trial-1-incongruent-26", "trial_type": "html-keyboard-response", "trial_index": 118, "time_elapsed": 242302, "internal_node_id": "0.0-6.0-23.0"}}, {"uniqueid": "w24200652:a56236787", "current_trial": 119, "dateTime": 1664875618582, "trialdata": {"rt": 391, "stimulus": "<p id='stroop-text' class='stroop-yellow'>BRIDGE</p>", "response": "y", "stimulus-type": "unrelated", "word": "BRIDGE", "color": "yellow", "correct_response": "y", "trial_id": "stroop-trial-1-unrelated-19", "trial_type": "html-keyboard-response", "trial_index": 119, "time_elapsed": 243214, "internal_node_id": "0.0-6.0-24.0"}}, {"uniqueid": "w24200652:a56236787", "current_trial": 120, "dateTime": 1664875619711, "trialdata": {"rt": 623, "stimulus": "<p id='stroop-text' class='stroop-blue'>BLUE</p>", "response": "b", "stimulus-type": "congruent", "word": "blue", "color": "blue", "correct_response": "b", "trial_id": "stroop-trial-1-congruent-22", "trial_type": "html-keyboard-response", "trial_index": 120, "time_elapsed": 244343, "internal_node_id": "0.0-6.0-25.0"}}, {"uniqueid": "w24200652:a56236787", "current_trial": 121, "dateTime": 1664875620653, "trialdata": {"rt": 436, "stimulus": "<p id='stroop-text' class='stroop-blue'>BLUE</p>", "response": "b", "stimulus-type": "congruent", "word": "blue", "color": "blue", "correct_response": "b", "trial_id": "stroop-trial-1-congruent-29", "trial_type": "html-keyboard-response", "trial_index": 121, "time_elapsed": 245284, "internal_node_id": "0.0-6.0-26.0"}}, {"uniqueid": "w24200652:a56236787", "current_trial": 122, "dateTime": 1664875621518, "trialdata": {"rt": 361, "stimulus": "<p id='stroop-text' class='stroop-blue'>BOAT</p>", "response": "b", "stimulus-type": "unrelated", "word": "BOAT", "color": "blue", "correct_response": "b", "trial_id": "stroop-trial-1-unrelated-22", "trial_type": "html-keyboard-response", "trial_index": 122, "time_elapsed": 246150, "internal_node_id": "0.0-6.0-27.0"}}, {"uniqueid": "w24200652:a56236787", "current_trial": 123, "dateTime": 1664875622632, "trialdata": {"rt": 606, "stimulus": "<p id='stroop-text' class='stroop-red'>SHIP</p>", "response": "r", "stimulus-type": "unrelated", "word": "SHIP", "color": "red", "correct_response": "r", "trial_id": "stroop-trial-1-unrelated-17", "trial_type": "html-keyboard-response", "trial_index": 123, "time_elapsed": 247263, "internal_node_id": "0.0-6.0-28.0"}}, {"uniqueid": "w24200652:a56236787", "current_trial": 124, "dateTime": 1664875623886, "trialdata": {"rt": 746, "stimulus": "<p id='stroop-text' class='stroop-green'>YELLOW</p>", "response": "g", "stimulus-type": "incongruent", "word": "yellow", "color": "green", "correct_response": "g", "trial_id": "stroop-trial-1-incongruent-29", "trial_type": "html-keyboard-response", "trial_index": 124, "time_elapsed": 248518, "internal_node_id": "0.0-6.0-29.0"}}, {"uniqueid": "w24200652:a56236787", "current_trial": 125, "dateTime": 1664875625185, "trialdata": {"rt": 792, "stimulus": "<p id='stroop-text' class='stroop-blue'>BLUE</p>", "response": "b", "stimulus-type": "congruent", "word": "blue", "color": "blue", "correct_response": "b", "trial_id": "stroop-trial-1-congruent-10", "trial_type": "html-keyboard-response", "trial_index": 125, "time_elapsed": 249816, "internal_node_id": "0.0-6.0-30.0"}}, {"uniqueid": "w24200652:a56236787", "current_trial": 126, "dateTime": 1664875626309, "trialdata": {"rt": 619, "stimulus": "<p id='stroop-text' class='stroop-red'>RED</p>", "response": "r", "stimulus-type": "congruent", "word": "red", "color": "red", "correct_response": "r", "trial_id": "stroop-trial-1-congruent-25", "trial_type": "html-keyboard-response", "trial_index": 126, "time_elapsed": 250941, "internal_node_id": "0.0-6.0-31.0"}}, {"uniqueid": "w24200652:a56236787", "current_trial": 127, "dateTime": 1664875628494, "trialdata": {"rt": 1680, "stimulus": "<p id='stroop-text' class='stroop-blue'>YELLOW</p>", "response": "b", "stimulus-type": "incongruent", "word": "yellow", "color": "blue", "correct_response": "b", "trial_id": "stroop-trial-1-incongruent-28", "trial_type": "html-keyboard-response", "trial_index": 127, "time_elapsed": 253126, "internal_node_id": "0.0-6.0-32.0"}}, {"uniqueid": "w24200652:a56236787", "current_trial": 128, "dateTime": 1664875629503, "trialdata": {"rt": 500, "stimulus": "<p id='stroop-text' class='stroop-blue'>WINDOW</p>", "response": "b", "stimulus-type": "unrelated", "word": "WINDOW", "color": "blue", "correct_response": "b", "trial_id": "stroop-trial-1-unrelated-1", "trial_type": "html-keyboard-response", "trial_index": 128, "time_elapsed": 254134, "internal_node_id": "0.0-6.0-33.0"}}, {"uniqueid": "w24200652:a56236787", "current_trial": 129, "dateTime": 1664875630358, "trialdata": {"rt": 346, "stimulus": "<p id='stroop-text' class='stroop-blue'>BRAIN</p>", "response": "b", "stimulus-type": "unrelated", "word": "BRAIN", "color": "blue", "correct_response": "b", "trial_id": "stroop-trial-1-unrelated-6", "trial_type": "html-keyboard-response", "trial_index": 129, "time_elapsed": 254990, "internal_node_id": "0.0-6.0-34.0"}}, {"uniqueid": "w24200652:a56236787", "current_trial": 130, "dateTime": 1664875631422, "trialdata": {"rt": 556, "stimulus": "<p id='stroop-text' class='stroop-yellow'>YELLOW</p>", "response": "y", "stimulus-type": "congruent", "word": "yellow", "color": "yellow", "correct_response": "y", "trial_id": "stroop-trial-1-congruent-26", "trial_type": "html-keyboard-response", "trial_index": 130, "time_elapsed": 256054, "internal_node_id": "0.0-6.0-35.0"}}, {"uniqueid": "w24200652:a56236787", "current_trial": 131, "dateTime": 1664875632752, "trialdata": {"rt": 823, "stimulus": "<p id='stroop-text' class='stroop-blue'>YELLOW</p>", "response": "b", "stimulus-type": "incongruent", "word": "yellow", "color": "blue", "correct_response": "b", "trial_id": "stroop-trial-1-incongruent-11", "trial_type": "html-keyboard-response", "trial_index": 131, "time_elapsed": 257383, "internal_node_id": "0.0-6.0-36.0"}}, {"uniqueid": "w24200652:a56236787", "current_trial": 132, "dateTime": 1664875633823, "trialdata": {"rt": 564, "stimulus": "<p id='stroop-text' class='stroop-yellow'>BLUE</p>", "response": "y", "stimulus-type": "incongruent", "word": "blue", "color": "yellow", "correct_response": "y", "trial_id": "stroop-trial-1-incongruent-5", "trial_type": "html-keyboard-response", "trial_index": 132, "time_elapsed": 258454, "internal_node_id": "0.0-6.0-37.0"}}, {"uniqueid": "w24200652:a56236787", "current_trial": 133, "dateTime": 1664875634854, "trialdata": {"rt": 522, "stimulus": "<p id='stroop-text' class='stroop-yellow'>YELLOW</p>", "response": "y", "stimulus-type": "congruent", "word": "yellow", "color": "yellow", "correct_response": "y", "trial_id": "stroop-trial-1-congruent-2", "trial_type": "html-keyboard-response", "trial_index": 133, "time_elapsed": 259486, "internal_node_id": "0.0-6.0-38.0"}}, {"uniqueid": "w24200652:a56236787", "current_trial": 134, "dateTime": 1664875636014, "trialdata": {"rt": 652, "stimulus": "<p id='stroop-text' class='stroop-green'>FORK</p>", "response": "g", "stimulus-type": "unrelated", "word": "FORK", "color": "green", "correct_response": "g", "trial_id": "stroop-trial-1-unrelated-18", "trial_type": "html-keyboard-response", "trial_index": 134, "time_elapsed": 260646, "internal_node_id": "0.0-6.0-39.0"}}, {"uniqueid": "w24200652:a56236787", "current_trial": 135, "dateTime": 1664875637070, "trialdata": {"rt": 550, "stimulus": "<p id='stroop-text' class='stroop-blue'>BRAIN</p>", "response": "y", "stimulus-type": "unrelated", "word": "BRAIN", "color": "blue", "correct_response": "b", "trial_id": "stroop-trial-1-unrelated-8", "trial_type": "html-keyboard-response", "trial_index": 135, "time_elapsed": 261702, "internal_node_id": "0.0-6.0-40.0"}}, {"uniqueid": "w24200652:a56236787", "current_trial": 136, "dateTime": 1664875638678, "trialdata": {"rt": 1089, "stimulus": "<p id='stroop-text' class='stroop-yellow'>YELLOW</p>", "response": "y", "stimulus-type": "congruent", "word": "yellow", "color": "yellow", "correct_response": "y", "trial_id": "stroop-trial-1-congruent-30", "trial_type": "html-keyboard-response", "trial_index": 136, "time_elapsed": 263310, "internal_node_id": "0.0-6.0-41.0"}}, {"uniqueid": "w24200652:a56236787", "current_trial": 137, "dateTime": 1664875640663, "trialdata": {"rt": 1472, "stimulus": "<p id='stroop-text' class='stroop-blue'>GREEN</p>", "response": "b", "stimulus-type": "incongruent", "word": "green", "color": "blue", "correct_response": "b", "trial_id": "stroop-trial-1-incongruent-16", "trial_type": "html-keyboard-response", "trial_index": 137, "time_elapsed": 265294, "internal_node_id": "0.0-6.0-42.0"}}, {"uniqueid": "w24200652:a56236787", "current_trial": 138, "dateTime": 1664875641855, "trialdata": {"rt": 686, "stimulus": "<p id='stroop-text' class='stroop-blue'>SHIP</p>", "response": "b", "stimulus-type": "unrelated", "word": "SHIP", "color": "blue", "correct_response": "b", "trial_id": "stroop-trial-1-unrelated-2", "trial_type": "html-keyboard-response", "trial_index": 138, "time_elapsed": 266486, "internal_node_id": "0.0-6.0-43.0"}}, {"uniqueid": "w24200652:a56236787", "current_trial": 139, "dateTime": 1664875642941, "trialdata": {"rt": 582, "stimulus": "<p id='stroop-text' class='stroop-yellow'>YELLOW</p>", "response": "y", "stimulus-type": "congruent", "word": "yellow", "color": "yellow", "correct_response": "y", "trial_id": "stroop-trial-1-congruent-6", "trial_type": "html-keyboard-response", "trial_index": 139, "time_elapsed": 267573, "internal_node_id": "0.0-6.0-44.0"}}, {"uniqueid": "w24200652:a56236787", "current_trial": 140, "dateTime": 1664875644117, "trialdata": {"rt": 671, "stimulus": "<p id='stroop-text' class='stroop-red'>BRAIN</p>", "response": "r", "stimulus-type": "unrelated", "word": "BRAIN", "color": "red", "correct_response": "r", "trial_id": "stroop-trial-1-unrelated-10", "trial_type": "html-keyboard-response", "trial_index": 140, "time_elapsed": 268748, "internal_node_id": "0.0-6.0-45.0"}}, {"uniqueid": "w24200652:a56236787", "current_trial": 141, "dateTime": 1664875644958, "trialdata": {"rt": 338, "stimulus": "<p id='stroop-text' class='stroop-red'>BOAT</p>", "response": "r", "stimulus-type": "unrelated", "word": "BOAT", "color": "red", "correct_response": "r", "trial_id": "stroop-trial-1-unrelated-24", "trial_type": "html-keyboard-response", "trial_index": 141, "time_elapsed": 269590, "internal_node_id": "0.0-6.0-46.0"}}, {"uniqueid": "w24200652:a56236787", "current_trial": 142, "dateTime": 1664875646189, "trialdata": {"rt": 725, "stimulus": "<p id='stroop-text' class='stroop-green'>RED</p>", "response": "g", "stimulus-type": "incongruent", "word": "red", "color": "green", "correct_response": "g", "trial_id": "stroop-trial-1-incongruent-30", "trial_type": "html-keyboard-response", "trial_index": 142, "time_elapsed": 270820, "internal_node_id": "0.0-6.0-47.0"}}, {"uniqueid": "w24200652:a56236787", "current_trial": 143, "dateTime": 1664875647255, "trialdata": {"rt": 561, "stimulus": "<p id='stroop-text' class='stroop-green'>CHAIR</p>", "response": "g", "stimulus-type": "unrelated", "word": "CHAIR", "color": "green", "correct_response": "g", "trial_id": "stroop-trial-1-unrelated-15", "trial_type": "html-keyboard-response", "trial_index": 143, "time_elapsed": 271887, "internal_node_id": "0.0-6.0-48.0"}}, {"uniqueid": "w24200652:a56236787", "current_trial": 144, "dateTime": 1664875648206, "trialdata": {"rt": 444, "stimulus": "<p id='stroop-text' class='stroop-green'>RED</p>", "response": "g", "stimulus-type": "incongruent", "word": "red", "color": "green", "correct_response": "g", "trial_id": "stroop-trial-1-incongruent-25", "trial_type": "html-keyboard-response", "trial_index": 144, "time_elapsed": 272838, "internal_node_id": "0.0-6.0-49.0"}}, {"uniqueid": "w24200652:a56236787", "current_trial": 145, "dateTime": 1664875649504, "trialdata": {"rt": 787, "stimulus": "<p id='stroop-text' class='stroop-yellow'>MONKEY</p>", "response": "y", "stimulus-type": "unrelated", "word": "MONKEY", "color": "yellow", "correct_response": "y", "trial_id": "stroop-trial-1-unrelated-13", "trial_type": "html-keyboard-response", "trial_index": 145, "time_elapsed": 274135, "internal_node_id": "0.0-6.0-50.0"}}, {"uniqueid": "w24200652:a56236787", "current_trial": 146, "dateTime": 1664875651919, "trialdata": {"rt": 1907, "stimulus": "<p id='stroop-text' class='stroop-blue'>DOG</p>", "response": "b", "stimulus-type": "unrelated", "word": "DOG", "color": "blue", "correct_response": "b", "trial_id": "stroop-trial-1-unrelated-5", "trial_type": "html-keyboard-response", "trial_index": 146, "time_elapsed": 276550, "internal_node_id": "0.0-6.0-51.0"}}, {"uniqueid": "w24200652:a56236787", "current_trial": 147, "dateTime": 1664875652959, "trialdata": {"rt": 533, "stimulus": "<p id='stroop-text' class='stroop-blue'>YELLOW</p>", "response": "b", "stimulus-type": "incongruent", "word": "yellow", "color": "blue", "correct_response": "b", "trial_id": "stroop-trial-1-incongruent-19", "trial_type": "html-keyboard-response", "trial_index": 147, "time_elapsed": 277590, "internal_node_id": "0.0-6.0-52.0"}}, {"uniqueid": "w24200652:a56236787", "current_trial": 148, "dateTime": 1664875654118, "trialdata": {"rt": 652, "stimulus": "<p id='stroop-text' class='stroop-green'>YELLOW</p>", "response": "g", "stimulus-type": "incongruent", "word": "yellow", "color": "green", "correct_response": "g", "trial_id": "stroop-trial-1-incongruent-14", "trial_type": "html-keyboard-response", "trial_index": 148, "time_elapsed": 278750, "internal_node_id": "0.0-6.0-53.0"}}, {"uniqueid": "w24200652:a56236787", "current_trial": 149, "dateTime": 1664875655158, "trialdata": {"rt": 533, "stimulus": "<p id='stroop-text' class='stroop-red'>RED</p>", "response": "r", "stimulus-type": "congruent", "word": "red", "color": "red", "correct_response": "r", "trial_id": "stroop-trial-1-congruent-16", "trial_type": "html-keyboard-response", "trial_index": 149, "time_elapsed": 279790, "internal_node_id": "0.0-6.0-54.0"}}, {"uniqueid": "w24200652:a56236787", "current_trial": 150, "dateTime": 1664875656886, "trialdata": {"rt": 1221, "stimulus": "<p id='stroop-text' class='stroop-green'>WINDOW</p>", "response": "g", "stimulus-type": "unrelated", "word": "WINDOW", "color": "green", "correct_response": "g", "trial_id": "stroop-trial-1-unrelated-4", "trial_type": "html-keyboard-response", "trial_index": 150, "time_elapsed": 281518, "internal_node_id": "0.0-6.0-55.0"}}, {"uniqueid": "w24200652:a56236787", "current_trial": 151, "dateTime": 1664875657822, "trialdata": {"rt": 429, "stimulus": "<p id='stroop-text' class='stroop-green'>GREEN</p>", "response": "g", "stimulus-type": "congruent", "word": "green", "color": "green", "correct_response": "g", "trial_id": "stroop-trial-1-congruent-20", "trial_type": "html-keyboard-response", "trial_index": 151, "time_elapsed": 282454, "internal_node_id": "0.0-6.0-56.0"}}, {"uniqueid": "w24200652:a56236787", "current_trial": 152, "dateTime": 1664875658878, "trialdata": {"rt": 550, "stimulus": "<p id='stroop-text' class='stroop-yellow'>GREEN</p>", "response": "y", "stimulus-type": "incongruent", "word": "green", "color": "yellow", "correct_response": "y", "trial_id": "stroop-trial-1-incongruent-18", "trial_type": "html-keyboard-response", "trial_index": 152, "time_elapsed": 283510, "internal_node_id": "0.0-6.0-57.0"}}, {"uniqueid": "w24200652:a56236787", "current_trial": 153, "dateTime": 1664875659990, "trialdata": {"rt": 605, "stimulus": "<p id='stroop-text' class='stroop-green'>MONKEY</p>", "response": "g", "stimulus-type": "unrelated", "word": "MONKEY", "color": "green", "correct_response": "g", "trial_id": "stroop-trial-1-unrelated-7", "trial_type": "html-keyboard-response", "trial_index": 153, "time_elapsed": 284622, "internal_node_id": "0.0-6.0-58.0"}}, {"uniqueid": "w24200652:a56236787", "current_trial": 154, "dateTime": 1664875660886, "trialdata": {"rt": 372, "stimulus": "<p id='stroop-text' class='stroop-yellow'>YELLOW</p>", "response": "y", "stimulus-type": "congruent", "word": "yellow", "color": "yellow", "correct_response": "y", "trial_id": "stroop-trial-1-congruent-3", "trial_type": "html-keyboard-response", "trial_index": 154, "time_elapsed": 285518, "internal_node_id": "0.0-6.0-59.0"}}, {"uniqueid": "w24200652:a56236787", "current_trial": 155, "dateTime": 1664875661934, "trialdata": {"rt": 541, "stimulus": "<p id='stroop-text' class='stroop-green'>RED</p>", "response": "g", "stimulus-type": "incongruent", "word": "red", "color": "green", "correct_response": "g", "trial_id": "stroop-trial-1-incongruent-2", "trial_type": "html-keyboard-response", "trial_index": 155, "time_elapsed": 286566, "internal_node_id": "0.0-6.0-60.0"}}, {"uniqueid": "w24200652:a56236787", "current_trial": 156, "dateTime": 1664875663109, "trialdata": {"rt": 668, "stimulus": "<p id='stroop-text' class='stroop-red'>BLUE</p>", "response": "r", "stimulus-type": "incongruent", "word": "blue", "color": "red", "correct_response": "r", "trial_id": "stroop-trial-1-incongruent-13", "trial_type": "html-keyboard-response", "trial_index": 156, "time_elapsed": 287741, "internal_node_id": "0.0-6.0-61.0"}}, {"uniqueid": "w24200652:a56236787", "current_trial": 157, "dateTime": 1664875664326, "trialdata": {"rt": 712, "stimulus": "<p id='stroop-text' class='stroop-blue'>GREEN</p>", "response": "b", "stimulus-type": "incongruent", "word": "green", "color": "blue", "correct_response": "b", "trial_id": "stroop-trial-1-incongruent-12", "trial_type": "html-keyboard-response", "trial_index": 157, "time_elapsed": 288958, "internal_node_id": "0.0-6.0-62.0"}}, {"uniqueid": "w24200652:a56236787", "current_trial": 158, "dateTime": 1664875665504, "trialdata": {"rt": 669, "stimulus": "<p id='stroop-text' class='stroop-red'>BLUE</p>", "response": "r", "stimulus-type": "incongruent", "word": "blue", "color": "red", "correct_response": "r", "trial_id": "stroop-trial-1-incongruent-7", "trial_type": "html-keyboard-response", "trial_index": 158, "time_elapsed": 290135, "internal_node_id": "0.0-6.0-63.0"}}, {"uniqueid": "w24200652:a56236787", "current_trial": 159, "dateTime": 1664875667478, "trialdata": {"rt": 1465, "stimulus": "<p id='stroop-text' class='stroop-green'>GREEN</p>", "response": "g", "stimulus-type": "congruent", "word": "green", "color": "green", "correct_response": "g", "trial_id": "stroop-trial-1-congruent-24", "trial_type": "html-keyboard-response", "trial_index": 159, "time_elapsed": 292109, "internal_node_id": "0.0-6.0-64.0"}}, {"uniqueid": "w24200652:a56236787", "current_trial": 160, "dateTime": 1664875668598, "trialdata": {"rt": 613, "stimulus": "<p id='stroop-text' class='stroop-yellow'>YELLOW</p>", "response": "y", "stimulus-type": "congruent", "word": "yellow", "color": "yellow", "correct_response": "y", "trial_id": "stroop-trial-1-congruent-8", "trial_type": "html-keyboard-response", "trial_index": 160, "time_elapsed": 293229, "internal_node_id": "0.0-6.0-65.0"}}, {"uniqueid": "w24200652:a56236787", "current_trial": 161, "dateTime": 1664875669934, "trialdata": {"rt": 829, "stimulus": "<p id='stroop-text' class='stroop-blue'>RED</p>", "response": "b", "stimulus-type": "incongruent", "word": "red", "color": "blue", "correct_response": "b", "trial_id": "stroop-trial-1-incongruent-23", "trial_type": "html-keyboard-response", "trial_index": 161, "time_elapsed": 294565, "internal_node_id": "0.0-6.0-66.0"}}, {"uniqueid": "w24200652:a56236787", "current_trial": 162, "dateTime": 1664875670982, "trialdata": {"rt": 541, "stimulus": "<p id='stroop-text' class='stroop-green'>RED</p>", "response": "g", "stimulus-type": "incongruent", "word": "red", "color": "green", "correct_response": "g", "trial_id": "stroop-trial-1-incongruent-15", "trial_type": "html-keyboard-response", "trial_index": 162, "time_elapsed": 295614, "internal_node_id": "0.0-6.0-67.0"}}, {"uniqueid": "w24200652:a56236787", "current_trial": 163, "dateTime": 1664875672014, "trialdata": {"rt": 525, "stimulus": "<p id='stroop-text' class='stroop-red'>RED</p>", "response": "r", "stimulus-type": "congruent", "word": "red", "color": "red", "correct_response": "r", "trial_id": "stroop-trial-1-congruent-17", "trial_type": "html-keyboard-response", "trial_index": 163, "time_elapsed": 296645, "internal_node_id": "0.0-6.0-68.0"}}, {"uniqueid": "w24200652:a56236787", "current_trial": 164, "dateTime": 1664875673399, "trialdata": {"rt": 878, "stimulus": "<p id='stroop-text' class='stroop-red'>GREEN</p>", "response": "r", "stimulus-type": "incongruent", "word": "green", "color": "red", "correct_response": "r", "trial_id": "stroop-trial-1-incongruent-22", "trial_type": "html-keyboard-response", "trial_index": 164, "time_elapsed": 298030, "internal_node_id": "0.0-6.0-69.0"}}, {"uniqueid": "w24200652:a56236787", "current_trial": 165, "dateTime": 1664875674614, "trialdata": {"rt": 707, "stimulus": "<p id='stroop-text' class='stroop-green'>GREEN</p>", "response": "g", "stimulus-type": "congruent", "word": "green", "color": "green", "correct_response": "g", "trial_id": "stroop-trial-1-congruent-9", "trial_type": "html-keyboard-response", "trial_index": 165, "time_elapsed": 299245, "internal_node_id": "0.0-6.0-70.0"}}, {"uniqueid": "w24200652:a56236787", "current_trial": 166, "dateTime": 1664875675614, "trialdata": {"rt": 491, "stimulus": "<p id='stroop-text' class='stroop-yellow'>YELLOW</p>", "response": "y", "stimulus-type": "congruent", "word": "yellow", "color": "yellow", "correct_response": "y", "trial_id": "stroop-trial-1-congruent-7", "trial_type": "html-keyboard-response", "trial_index": 166, "time_elapsed": 300245, "internal_node_id": "0.0-6.0-71.0"}}, {"uniqueid": "w24200652:a56236787", "current_trial": 167, "dateTime": 1664875676702, "trialdata": {"rt": 581, "stimulus": "<p id='stroop-text' class='stroop-red'>RED</p>", "response": "r", "stimulus-type": "congruent", "word": "red", "color": "red", "correct_response": "r", "trial_id": "stroop-trial-1-congruent-11", "trial_type": "html-keyboard-response", "trial_index": 167, "time_elapsed": 301333, "internal_node_id": "0.0-6.0-72.0"}}, {"uniqueid": "w24200652:a56236787", "current_trial": 168, "dateTime": 1664875678744, "trialdata": {"rt": 1535, "stimulus": "<p id='stroop-text' class='stroop-red'>DOG</p>", "response": "r", "stimulus-type": "unrelated", "word": "DOG", "color": "red", "correct_response": "r", "trial_id": "stroop-trial-1-unrelated-30", "trial_type": "html-keyboard-response", "trial_index": 168, "time_elapsed": 303375, "internal_node_id": "0.0-6.0-73.0"}}, {"uniqueid": "w24200652:a56236787", "current_trial": 169, "dateTime": 1664875680604, "trialdata": {"rt": 1354, "stimulus": "<p id='stroop-text' class='stroop-green'>YELLOW</p>", "response": "g", "stimulus-type": "incongruent", "word": "yellow", "color": "green", "correct_response": "g", "trial_id": "stroop-trial-1-incongruent-6", "trial_type": "html-keyboard-response", "trial_index": 169, "time_elapsed": 305236, "internal_node_id": "0.0-6.0-74.0"}}, {"uniqueid": "w24200652:a56236787", "current_trial": 170, "dateTime": 1664875681670, "trialdata": {"rt": 562, "stimulus": "<p id='stroop-text' class='stroop-blue'>BOAT</p>", "response": "b", "stimulus-type": "unrelated", "word": "BOAT", "color": "blue", "correct_response": "b", "trial_id": "stroop-trial-1-unrelated-25", "trial_type": "html-keyboard-response", "trial_index": 170, "time_elapsed": 306301, "internal_node_id": "0.0-6.0-75.0"}}, {"uniqueid": "w24200652:a56236787", "current_trial": 171, "dateTime": 1664875682655, "trialdata": {"rt": 462, "stimulus": "<p id='stroop-text' class='stroop-blue'>BLUE</p>", "response": "b", "stimulus-type": "congruent", "word": "blue", "color": "blue", "correct_response": "b", "trial_id": "stroop-trial-1-congruent-15", "trial_type": "html-keyboard-response", "trial_index": 171, "time_elapsed": 307285, "internal_node_id": "0.0-6.0-76.0"}}, {"uniqueid": "w24200652:a56236787", "current_trial": 172, "dateTime": 1664875683718, "trialdata": {"rt": 556, "stimulus": "<p id='stroop-text' class='stroop-red'>RED</p>", "response": "r", "stimulus-type": "congruent", "word": "red", "color": "red", "correct_response": "r", "trial_id": "stroop-trial-1-congruent-12", "trial_type": "html-keyboard-response", "trial_index": 172, "time_elapsed": 308350, "internal_node_id": "0.0-6.0-77.0"}}, {"uniqueid": "w24200652:a56236787", "current_trial": 173, "dateTime": 1664875684910, "trialdata": {"rt": 684, "stimulus": "<p id='stroop-text' class='stroop-yellow'>SHIP</p>", "response": "y", "stimulus-type": "unrelated", "word": "SHIP", "color": "yellow", "correct_response": "y", "trial_id": "stroop-trial-1-unrelated-26", "trial_type": "html-keyboard-response", "trial_index": 173, "time_elapsed": 309541, "internal_node_id": "0.0-6.0-78.0"}}, {"uniqueid": "w24200652:a56236787", "current_trial": 174, "dateTime": 1664875686150, "trialdata": {"rt": 730, "stimulus": "<p id='stroop-text' class='stroop-green'>FORK</p>", "response": "g", "stimulus-type": "unrelated", "word": "FORK", "color": "green", "correct_response": "g", "trial_id": "stroop-trial-1-unrelated-23", "trial_type": "html-keyboard-response", "trial_index": 174, "time_elapsed": 310781, "internal_node_id": "0.0-6.0-79.0"}}, {"uniqueid": "w24200652:a56236787", "current_trial": 175, "dateTime": 1664875687412, "trialdata": {"rt": 749, "stimulus": "<p id='stroop-text' class='stroop-yellow'>YELLOW</p>", "response": "y", "stimulus-type": "congruent", "word": "yellow", "color": "yellow", "correct_response": "y", "trial_id": "stroop-trial-1-congruent-28", "trial_type": "html-keyboard-response", "trial_index": 175, "time_elapsed": 312044, "internal_node_id": "0.0-6.0-80.0"}}, {"uniqueid": "w24200652:a56236787", "current_trial": 176, "dateTime": 1664875688518, "trialdata": {"rt": 602, "stimulus": "<p id='stroop-text' class='stroop-blue'>BOAT</p>", "response": "b", "stimulus-type": "unrelated", "word": "BOAT", "color": "blue", "correct_response": "b", "trial_id": "stroop-trial-1-unrelated-29", "trial_type": "html-keyboard-response", "trial_index": 176, "time_elapsed": 313149, "internal_node_id": "0.0-6.0-81.0"}}, {"uniqueid": "w24200652:a56236787", "current_trial": 177, "dateTime": 1664875689886, "trialdata": {"rt": 861, "stimulus": "<p id='stroop-text' class='stroop-green'>RED</p>", "response": "g", "stimulus-type": "incongruent", "word": "red", "color": "green", "correct_response": "g", "trial_id": "stroop-trial-1-incongruent-10", "trial_type": "html-keyboard-response", "trial_index": 177, "time_elapsed": 314517, "internal_node_id": "0.0-6.0-82.0"}}, {"uniqueid": "w24200652:a56236787", "current_trial": 178, "dateTime": 1664875691310, "trialdata": {"rt": 916, "stimulus": "<p id='stroop-text' class='stroop-yellow'>YELLOW</p>", "response": "y", "stimulus-type": "congruent", "word": "yellow", "color": "yellow", "correct_response": "y", "trial_id": "stroop-trial-1-congruent-27", "trial_type": "html-keyboard-response", "trial_index": 178, "time_elapsed": 315941, "internal_node_id": "0.0-6.0-83.0"}}, {"uniqueid": "w24200652:a56236787", "current_trial": 179, "dateTime": 1664875692830, "trialdata": {"rt": 1001, "stimulus": "<p id='stroop-text' class='stroop-green'>YELLOW</p>", "response": "g", "stimulus-type": "incongruent", "word": "yellow", "color": "green", "correct_response": "g", "trial_id": "stroop-trial-1-incongruent-3", "trial_type": "html-keyboard-response", "trial_index": 179, "time_elapsed": 317461, "internal_node_id": "0.0-6.0-84.0"}}, {"uniqueid": "w24200652:a56236787", "current_trial": 180, "dateTime": 1664875694046, "trialdata": {"rt": 706, "stimulus": "<p id='stroop-text' class='stroop-red'>RED</p>", "response": "r", "stimulus-type": "congruent", "word": "red", "color": "red", "correct_response": "r", "trial_id": "stroop-trial-1-congruent-19", "trial_type": "html-keyboard-response", "trial_index": 180, "time_elapsed": 318678, "internal_node_id": "0.0-6.0-85.0"}}, {"uniqueid": "w24200652:a56236787", "current_trial": 181, "dateTime": 1664875695782, "trialdata": {"rt": 1228, "stimulus": "<p id='stroop-text' class='stroop-blue'>BLUE</p>", "response": "b", "stimulus-type": "congruent", "word": "blue", "color": "blue", "correct_response": "b", "trial_id": "stroop-trial-1-congruent-21", "trial_type": "html-keyboard-response", "trial_index": 181, "time_elapsed": 320413, "internal_node_id": "0.0-6.0-86.0"}}, {"uniqueid": "w24200652:a56236787", "current_trial": 182, "dateTime": 1664875697398, "trialdata": {"rt": 1109, "stimulus": "<p id='stroop-text' class='stroop-blue'>GREEN</p>", "response": "b", "stimulus-type": "incongruent", "word": "green", "color": "blue", "correct_response": "b", "trial_id": "stroop-trial-1-incongruent-20", "trial_type": "html-keyboard-response", "trial_index": 182, "time_elapsed": 322029, "internal_node_id": "0.0-6.0-87.0"}}, {"uniqueid": "w24200652:a56236787", "current_trial": 183, "dateTime": 1664875698470, "trialdata": {"rt": 563, "stimulus": "<p id='stroop-text' class='stroop-yellow'>YELLOW</p>", "response": "y", "stimulus-type": "congruent", "word": "yellow", "color": "yellow", "correct_response": "y", "trial_id": "stroop-trial-1-congruent-5", "trial_type": "html-keyboard-response", "trial_index": 183, "time_elapsed": 323101, "internal_node_id": "0.0-6.0-88.0"}}, {"uniqueid": "w24200652:a56236787", "current_trial": 184, "dateTime": 1664875699598, "trialdata": {"rt": 609, "stimulus": "<p id='stroop-text' class='stroop-red'>YELLOW</p>", "response": "r", "stimulus-type": "incongruent", "word": "yellow", "color": "red", "correct_response": "r", "trial_id": "stroop-trial-1-incongruent-21", "trial_type": "html-keyboard-response", "trial_index": 184, "time_elapsed": 324229, "internal_node_id": "0.0-6.0-89.0"}}, {"uniqueid": "w24200652:a56236787", "current_trial": 185, "dateTime": 1664875715238, "trialdata": {"rt": 15129, "stimulus": "  <h1> End of block! </h1>\n\n  You have reached the end of the block 2/5. If you need a short break, feel free to take one now before moving on.\n\n  <br><br>\n  In the next block, you will complete another 90 rounds of this game.\n\n  <br><br>\n  <div style='text-align: center;'>Press <code>space</code> to begin.</div>\n  <br><br>\n<div style='text-align: center;'>(If the experiment doesn't continue, try clicking on the text and then pressing <code>space</code>.)</div>", "response": " ", "trial_id": "stroop_1_ready_3", "trial_type": "html-keyboard-response", "trial_index": 185, "time_elapsed": 339870, "internal_node_id": "0.0-7.0"}}, {"uniqueid": "w24200652:a56236787", "current_trial": 186, "dateTime": 1664875716014, "trialdata": {"rt": 767, "stimulus": "<p id='stroop-text' class='stroop-blue'>BLUE</p>", "response": "b", "stimulus-type": "congruent", "word": "blue", "color": "blue", "correct_response": "b", "trial_id": "stroop-trial-1-congruent-26", "trial_type": "html-keyboard-response", "trial_index": 186, "time_elapsed": 340645, "internal_node_id": "0.0-8.0-0.0"}}, {"uniqueid": "w24200652:a56236787", "current_trial": 187, "dateTime": 1664875717046, "trialdata": {"rt": 524, "stimulus": "<p id='stroop-text' class='stroop-yellow'>YELLOW</p>", "response": "y", "stimulus-type": "congruent", "word": "yellow", "color": "yellow", "correct_response": "y", "trial_id": "stroop-trial-1-congruent-20", "trial_type": "html-keyboard-response", "trial_index": 187, "time_elapsed": 341677, "internal_node_id": "0.0-8.0-1.0"}}, {"uniqueid": "w24200652:a56236787", "current_trial": 188, "dateTime": 1664875718126, "trialdata": {"rt": 572, "stimulus": "<p id='stroop-text' class='stroop-red'>RED</p>", "response": "r", "stimulus-type": "congruent", "word": "red", "color": "red", "correct_response": "r", "trial_id": "stroop-trial-1-congruent-13", "trial_type": "html-keyboard-response", "trial_index": 188, "time_elapsed": 342757, "internal_node_id": "0.0-8.0-2.0"}}, {"uniqueid": "w24200652:a56236787", "current_trial": 189, "dateTime": 1664875719046, "trialdata": {"rt": 409, "stimulus": "<p id='stroop-text' class='stroop-red'>RED</p>", "response": "r", "stimulus-type": "congruent", "word": "red", "color": "red", "correct_response": "r", "trial_id": "stroop-trial-1-congruent-9", "trial_type": "html-keyboard-response", "trial_index": 189, "time_elapsed": 343677, "internal_node_id": "0.0-8.0-3.0"}}, {"uniqueid": "w24200652:a56236787", "current_trial": 190, "dateTime": 1664875719854, "trialdata": {"rt": 297, "stimulus": "<p id='stroop-text' class='stroop-red'>RED</p>", "response": "r", "stimulus-type": "congruent", "word": "red", "color": "red", "correct_response": "r", "trial_id": "stroop-trial-1-congruent-14", "trial_type": "html-keyboard-response", "trial_index": 190, "time_elapsed": 344485, "internal_node_id": "0.0-8.0-4.0"}}, {"uniqueid": "w24200652:a56236787", "current_trial": 191, "dateTime": 1664875720934, "trialdata": {"rt": 571, "stimulus": "<p id='stroop-text' class='stroop-yellow'>BLUE</p>", "response": "y", "stimulus-type": "incongruent", "word": "blue", "color": "yellow", "correct_response": "y", "trial_id": "stroop-trial-1-incongruent-1", "trial_type": "html-keyboard-response", "trial_index": 191, "time_elapsed": 345565, "internal_node_id": "0.0-8.0-5.0"}}, {"uniqueid": "w24200652:a56236787", "current_trial": 192, "dateTime": 1664875722031, "trialdata": {"rt": 589, "stimulus": "<p id='stroop-text' class='stroop-green'>GREEN</p>", "response": "g", "stimulus-type": "congruent", "word": "green", "color": "green", "correct_response": "g", "trial_id": "stroop-trial-1-congruent-5", "trial_type": "html-keyboard-response", "trial_index": 192, "time_elapsed": 346662, "internal_node_id": "0.0-8.0-6.0"}}, {"uniqueid": "w24200652:a56236787", "current_trial": 193, "dateTime": 1664875723086, "trialdata": {"rt": 548, "stimulus": "<p id='stroop-text' class='stroop-green'>GREEN</p>", "response": "g", "stimulus-type": "congruent", "word": "green", "color": "green", "correct_response": "g", "trial_id": "stroop-trial-1-congruent-27", "trial_type": "html-keyboard-response", "trial_index": 193, "time_elapsed": 347717, "internal_node_id": "0.0-8.0-7.0"}}, {"uniqueid": "w24200652:a56236787", "current_trial": 194, "dateTime": 1664875724174, "trialdata": {"rt": 580, "stimulus": "<p id='stroop-text' class='stroop-yellow'>GREEN</p>", "response": "y", "stimulus-type": "incongruent", "word": "green", "color": "yellow", "correct_response": "y", "trial_id": "stroop-trial-1-incongruent-16", "trial_type": "html-keyboard-response", "trial_index": 194, "time_elapsed": 348805, "internal_node_id": "0.0-8.0-8.0"}}, {"uniqueid": "w24200652:a56236787", "current_trial": 195, "dateTime": 1664875725319, "trialdata": {"rt": 635, "stimulus": "<p id='stroop-text' class='stroop-red'>STONE</p>", "response": "r", "stimulus-type": "unrelated", "word": "STONE", "color": "red", "correct_response": "r", "trial_id": "stroop-trial-1-unrelated-18", "trial_type": "html-keyboard-response", "trial_index": 195, "time_elapsed": 349950, "internal_node_id": "0.0-8.0-9.0"}}, {"uniqueid": "w24200652:a56236787", "current_trial": 196, "dateTime": 1664875726526, "trialdata": {"rt": 699, "stimulus": "<p id='stroop-text' class='stroop-yellow'>SHIP</p>", "response": "y", "stimulus-type": "unrelated", "word": "SHIP", "color": "yellow", "correct_response": "y", "trial_id": "stroop-trial-1-unrelated-7", "trial_type": "html-keyboard-response", "trial_index": 196, "time_elapsed": 351158, "internal_node_id": "0.0-8.0-10.0"}}, {"uniqueid": "w24200652:a56236787", "current_trial": 197, "dateTime": 1664875728430, "trialdata": {"rt": 1395, "stimulus": "<p id='stroop-text' class='stroop-blue'>GREEN</p>", "response": "b", "stimulus-type": "incongruent", "word": "green", "color": "blue", "correct_response": "b", "trial_id": "stroop-trial-1-incongruent-25", "trial_type": "html-keyboard-response", "trial_index": 197, "time_elapsed": 353061, "internal_node_id": "0.0-8.0-11.0"}}, {"uniqueid": "w24200652:a56236787", "current_trial": 198, "dateTime": 1664875729718, "trialdata": {"rt": 780, "stimulus": "<p id='stroop-text' class='stroop-yellow'>GREEN</p>", "response": "y", "stimulus-type": "incongruent", "word": "green", "color": "yellow", "correct_response": "y", "trial_id": "stroop-trial-1-incongruent-30", "trial_type": "html-keyboard-response", "trial_index": 198, "time_elapsed": 354349, "internal_node_id": "0.0-8.0-12.0"}}, {"uniqueid": "w24200652:a56236787", "current_trial": 199, "dateTime": 1664875730708, "trialdata": {"rt": 483, "stimulus": "<p id='stroop-text' class='stroop-blue'>BLUE</p>", "response": "b", "stimulus-type": "congruent", "word": "blue", "color": "blue", "correct_response": "b", "trial_id": "stroop-trial-1-congruent-23", "trial_type": "html-keyboard-response", "trial_index": 199, "time_elapsed": 355340, "internal_node_id": "0.0-8.0-13.0"}}, {"uniqueid": "w24200652:a56236787", "current_trial": 200, "dateTime": 1664875731710, "trialdata": {"rt": 497, "stimulus": "<p id='stroop-text' class='stroop-yellow'>DOG</p>", "response": "y", "stimulus-type": "unrelated", "word": "DOG", "color": "yellow", "correct_response": "y", "trial_id": "stroop-trial-1-unrelated-30", "trial_type": "html-keyboard-response", "trial_index": 200, "time_elapsed": 356341, "internal_node_id": "0.0-8.0-14.0"}}, {"uniqueid": "w24200652:a56236787", "current_trial": 201, "dateTime": 1664875732750, "trialdata": {"rt": 532, "stimulus": "<p id='stroop-text' class='stroop-yellow'>YELLOW</p>", "response": "y", "stimulus-type": "congruent", "word": "yellow", "color": "yellow", "correct_response": "y", "trial_id": "stroop-trial-1-congruent-16", "trial_type": "html-keyboard-response", "trial_index": 201, "time_elapsed": 357381, "internal_node_id": "0.0-8.0-15.0"}}, {"uniqueid": "w24200652:a56236787", "current_trial": 202, "dateTime": 1664875733735, "trialdata": {"rt": 478, "stimulus": "<p id='stroop-text' class='stroop-green'>GREEN</p>", "response": "g", "stimulus-type": "congruent", "word": "green", "color": "green", "correct_response": "g", "trial_id": "stroop-trial-1-congruent-4", "trial_type": "html-keyboard-response", "trial_index": 202, "time_elapsed": 358366, "internal_node_id": "0.0-8.0-16.0"}}, {"uniqueid": "w24200652:a56236787", "current_trial": 203, "dateTime": 1664875735062, "trialdata": {"rt": 818, "stimulus": "<p id='stroop-text' class='stroop-blue'>BLUE</p>", "response": "b", "stimulus-type": "congruent", "word": "blue", "color": "blue", "correct_response": "b", "trial_id": "stroop-trial-1-congruent-1", "trial_type": "html-keyboard-response", "trial_index": 203, "time_elapsed": 359693, "internal_node_id": "0.0-8.0-17.0"}}, {"uniqueid": "w24200652:a56236787", "current_trial": 204, "dateTime": 1664875736198, "trialdata": {"rt": 626, "stimulus": "<p id='stroop-text' class='stroop-red'>YELLOW</p>", "response": "r", "stimulus-type": "incongruent", "word": "yellow", "color": "red", "correct_response": "r", "trial_id": "stroop-trial-1-incongruent-2", "trial_type": "html-keyboard-response", "trial_index": 204, "time_elapsed": 360830, "internal_node_id": "0.0-8.0-18.0"}}, {"uniqueid": "w24200652:a56236787", "current_trial": 205, "dateTime": 1664875737598, "trialdata": {"rt": 893, "stimulus": "<p id='stroop-text' class='stroop-blue'>BOTTLE</p>", "response": "g", "stimulus-type": "unrelated", "word": "BOTTLE", "color": "blue", "correct_response": "b", "trial_id": "stroop-trial-1-unrelated-19", "trial_type": "html-keyboard-response", "trial_index": 205, "time_elapsed": 362229, "internal_node_id": "0.0-8.0-19.0"}}, {"uniqueid": "w24200652:a56236787", "current_trial": 206, "dateTime": 1664875738814, "trialdata": {"rt": 709, "stimulus": "<p id='stroop-text' class='stroop-red'>RED</p>", "response": "r", "stimulus-type": "congruent", "word": "red", "color": "red", "correct_response": "r", "trial_id": "stroop-trial-1-congruent-7", "trial_type": "html-keyboard-response", "trial_index": 206, "time_elapsed": 363445, "internal_node_id": "0.0-8.0-20.0"}}, {"uniqueid": "w24200652:a56236787", "current_trial": 207, "dateTime": 1664875740149, "trialdata": {"rt": 826, "stimulus": "<p id='stroop-text' class='stroop-blue'>BLUE</p>", "response": "b", "stimulus-type": "congruent", "word": "blue", "color": "blue", "correct_response": "b", "trial_id": "stroop-trial-1-congruent-15", "trial_type": "html-keyboard-response", "trial_index": 207, "time_elapsed": 364781, "internal_node_id": "0.0-8.0-21.0"}}, {"uniqueid": "w24200652:a56236787", "current_trial": 208, "dateTime": 1664875741183, "trialdata": {"rt": 529, "stimulus": "<p id='stroop-text' class='stroop-yellow'>YELLOW</p>", "response": "y", "stimulus-type": "congruent", "word": "yellow", "color": "yellow", "correct_response": "y", "trial_id": "stroop-trial-1-congruent-30", "trial_type": "html-keyboard-response", "trial_index": 208, "time_elapsed": 365814, "internal_node_id": "0.0-8.0-22.0"}}, {"uniqueid": "w24200652:a56236787", "current_trial": 209, "dateTime": 1664875742335, "trialdata": {"rt": 643, "stimulus": "<p id='stroop-text' class='stroop-blue'>WINDOW</p>", "response": "b", "stimulus-type": "unrelated", "word": "WINDOW", "color": "blue", "correct_response": "b", "trial_id": "stroop-trial-1-unrelated-21", "trial_type": "html-keyboard-response", "trial_index": 209, "time_elapsed": 366966, "internal_node_id": "0.0-8.0-23.0"}}, {"uniqueid": "w24200652:a56236787", "current_trial": 210, "dateTime": 1664875743624, "trialdata": {"rt": 781, "stimulus": "<p id='stroop-text' class='stroop-red'>RED</p>", "response": "r", "stimulus-type": "congruent", "word": "red", "color": "red", "correct_response": "r", "trial_id": "stroop-trial-1-congruent-29", "trial_type": "html-keyboard-response", "trial_index": 210, "time_elapsed": 368255, "internal_node_id": "0.0-8.0-24.0"}}, {"uniqueid": "w24200652:a56236787", "current_trial": 211, "dateTime": 1664875744503, "trialdata": {"rt": 370, "stimulus": "<p id='stroop-text' class='stroop-red'>RED</p>", "response": "r", "stimulus-type": "congruent", "word": "red", "color": "red", "correct_response": "r", "trial_id": "stroop-trial-1-congruent-24", "trial_type": "html-keyboard-response", "trial_index": 211, "time_elapsed": 369134, "internal_node_id": "0.0-8.0-25.0"}}, {"uniqueid": "w24200652:a56236787", "current_trial": 212, "dateTime": 1664875745574, "trialdata": {"rt": 560, "stimulus": "<p id='stroop-text' class='stroop-green'>FORK</p>", "response": "g", "stimulus-type": "unrelated", "word": "FORK", "color": "green", "correct_response": "g", "trial_id": "stroop-trial-1-unrelated-20", "trial_type": "html-keyboard-response", "trial_index": 212, "time_elapsed": 370205, "internal_node_id": "0.0-8.0-26.0"}}, {"uniqueid": "w24200652:a56236787", "current_trial": 213, "dateTime": 1664875746470, "trialdata": {"rt": 388, "stimulus": "<p id='stroop-text' class='stroop-green'>RED</p>", "response": "g", "stimulus-type": "incongruent", "word": "red", "color": "green", "correct_response": "g", "trial_id": "stroop-trial-1-incongruent-4", "trial_type": "html-keyboard-response", "trial_index": 213, "time_elapsed": 371102, "internal_node_id": "0.0-8.0-27.0"}}, {"uniqueid": "w24200652:a56236787", "current_trial": 214, "dateTime": 1664875747590, "trialdata": {"rt": 610, "stimulus": "<p id='stroop-text' class='stroop-yellow'>YELLOW</p>", "response": "y", "stimulus-type": "congruent", "word": "yellow", "color": "yellow", "correct_response": "y", "trial_id": "stroop-trial-1-congruent-18", "trial_type": "html-keyboard-response", "trial_index": 214, "time_elapsed": 372222, "internal_node_id": "0.0-8.0-28.0"}}, {"uniqueid": "w24200652:a56236787", "current_trial": 215, "dateTime": 1664875748742, "trialdata": {"rt": 644, "stimulus": "<p id='stroop-text' class='stroop-yellow'>CHAIR</p>", "response": "y", "stimulus-type": "unrelated", "word": "CHAIR", "color": "yellow", "correct_response": "y", "trial_id": "stroop-trial-1-unrelated-4", "trial_type": "html-keyboard-response", "trial_index": 215, "time_elapsed": 373374, "internal_node_id": "0.0-8.0-29.0"}}, {"uniqueid": "w24200652:a56236787", "current_trial": 216, "dateTime": 1664875750503, "trialdata": {"rt": 1252, "stimulus": "<p id='stroop-text' class='stroop-red'>DOG</p>", "response": "r", "stimulus-type": "unrelated", "word": "DOG", "color": "red", "correct_response": "r", "trial_id": "stroop-trial-1-unrelated-8", "trial_type": "html-keyboard-response", "trial_index": 216, "time_elapsed": 375134, "internal_node_id": "0.0-8.0-30.0"}}, {"uniqueid": "w24200652:a56236787", "current_trial": 217, "dateTime": 1664875752367, "trialdata": {"rt": 1354, "stimulus": "<p id='stroop-text' class='stroop-green'>GREEN</p>", "response": "g", "stimulus-type": "congruent", "word": "green", "color": "green", "correct_response": "g", "trial_id": "stroop-trial-1-congruent-10", "trial_type": "html-keyboard-response", "trial_index": 217, "time_elapsed": 376999, "internal_node_id": "0.0-8.0-31.0"}}, {"uniqueid": "w24200652:a56236787", "current_trial": 218, "dateTime": 1664875753414, "trialdata": {"rt": 536, "stimulus": "<p id='stroop-text' class='stroop-yellow'>YELLOW</p>", "response": "y", "stimulus-type": "congruent", "word": "yellow", "color": "yellow", "correct_response": "y", "trial_id": "stroop-trial-1-congruent-28", "trial_type": "html-keyboard-response", "trial_index": 218, "time_elapsed": 378045, "internal_node_id": "0.0-8.0-32.0"}}, {"uniqueid": "w24200652:a56236787", "current_trial": 219, "dateTime": 1664875755047, "trialdata": {"rt": 1125, "stimulus": "<p id='stroop-text' class='stroop-red'>BLUE</p>", "response": "r", "stimulus-type": "incongruent", "word": "blue", "color": "red", "correct_response": "r", "trial_id": "stroop-trial-1-incongruent-23", "trial_type": "html-keyboard-response", "trial_index": 219, "time_elapsed": 379678, "internal_node_id": "0.0-8.0-33.0"}}, {"uniqueid": "w24200652:a56236787", "current_trial": 220, "dateTime": 1664875756350, "trialdata": {"rt": 794, "stimulus": "<p id='stroop-text' class='stroop-green'>GREEN</p>", "response": "g", "stimulus-type": "congruent", "word": "green", "color": "green", "correct_response": "g", "trial_id": "stroop-trial-1-congruent-22", "trial_type": "html-keyboard-response", "trial_index": 220, "time_elapsed": 380982, "internal_node_id": "0.0-8.0-34.0"}}, {"uniqueid": "w24200652:a56236787", "current_trial": 221, "dateTime": 1664875757630, "trialdata": {"rt": 772, "stimulus": "<p id='stroop-text' class='stroop-red'>YELLOW</p>", "response": "r", "stimulus-type": "incongruent", "word": "yellow", "color": "red", "correct_response": "r", "trial_id": "stroop-trial-1-incongruent-22", "trial_type": "html-keyboard-response", "trial_index": 221, "time_elapsed": 382262, "internal_node_id": "0.0-8.0-35.0"}}, {"uniqueid": "w24200652:a56236787", "current_trial": 222, "dateTime": 1664875758814, "trialdata": {"rt": 675, "stimulus": "<p id='stroop-text' class='stroop-yellow'>YELLOW</p>", "response": "y", "stimulus-type": "congruent", "word": "yellow", "color": "yellow", "correct_response": "y", "trial_id": "stroop-trial-1-congruent-17", "trial_type": "html-keyboard-response",