{"condition": 0, "counterbalance": 0, "assignmentId": "a16591605", "workerId": "w61365854", "hitId": "h59720778", "currenttrial": 971, "bonus": 0, "data": [{"uniqueid": "w61365854:a16591605", "current_trial": 0, "dateTime": 1664369938848, "trialdata": {"success": true, "trial_type": "fullscreen", "trial_index": 0, "time_elapsed": 3186, "internal_node_id": "0.0-0.0"}}, {"uniqueid": "w61365854:a16591605", "current_trial": 1, "dateTime": 1664369960332, "trialdata": {"view_history": [{"page_index": 0, "viewing_time": 21459}], "rt": 21462, "trial_id": "exp_instructions_distractor", "trial_type": "instructions", "trial_index": 1, "time_elapsed": 24671, "internal_node_id": "0.0-1.0"}}, {"uniqueid": "w61365854:a16591605", "current_trial": 2, "dateTime": 1664370013032, "trialdata": {"view_history": [{"page_index": 0, "viewing_time": 52691}], "rt": 52692, "trial_id": "color_game_instructions", "trial_type": "instructions", "trial_index": 2, "time_elapsed": 77371, "internal_node_id": "0.0-2.0"}}, {"uniqueid": "w61365854:a16591605", "current_trial": 3, "dateTime": 1664370019803, "trialdata": {"rt": 6765, "stimulus": "<h1> Get ready to start the game! </h1>\n\nThank you for reading the instructions. Get ready start with the first of 5 block(s) of this game.\n<br><br>\nIn this first block, you will complete 90 rounds of this game before moving on.\n<br><br>\nRemember, the better you perform, the bigger your bonus will be!\n<br><br>\n<div style='text-align: center;'>Press <code>space</code> to begin.</div>", "response": " ", "trial_id": "stroop_1_ready_1", "trial_type": "html-keyboard-response", "trial_index": 3, "time_elapsed": 84143, "internal_node_id": "0.0-3.0"}}, {"uniqueid": "w61365854:a16591605", "current_trial": 4, "dateTime": 1664370054326, "trialdata": {"rt": 34498, "stimulus": "<p id='stroop-text' class='stroop-yellow'>RED</p>", "response": "y", "stimulus-type": "incongruent", "word": "red", "color": "yellow", "correct_response": "y", "trial_id": "stroop-trial-1-incongruent-23", "trial_type": "html-keyboard-response", "trial_index": 4, "time_elapsed": 118663, "internal_node_id": "0.0-4.0-0.0"}}, {"uniqueid": "w61365854:a16591605", "current_trial": 5, "dateTime": 1664370056227, "trialdata": {"rt": 1393, "stimulus": "<p id='stroop-text' class='stroop-yellow'>FORK</p>", "response": "y", "stimulus-type": "unrelated", "word": "FORK", "color": "yellow", "correct_response": "y", "trial_id": "stroop-trial-1-unrelated-10", "trial_type": "html-keyboard-response", "trial_index": 5, "time_elapsed": 120566, "internal_node_id": "0.0-4.0-1.0"}}, {"uniqueid": "w61365854:a16591605", "current_trial": 6, "dateTime": 1664370057548, "trialdata": {"rt": 814, "stimulus": "<p id='stroop-text' class='stroop-yellow'>YELLOW</p>", "response": "y", "stimulus-type": "congruent", "word": "yellow", "color": "yellow", "correct_response": "y", "trial_id": "stroop-trial-1-congruent-27", "trial_type": "html-keyboard-response", "trial_index": 6, "time_elapsed": 121887, "internal_node_id": "0.0-4.0-2.0"}}, {"uniqueid": "w61365854:a16591605", "current_trial": 7, "dateTime": 1664370059447, "trialdata": {"rt": 1395, "stimulus": "<p id='stroop-text' class='stroop-red'>YELLOW</p>", "response": "r", "stimulus-type": "incongruent", "word": "yellow", "color": "red", "correct_response": "r", "trial_id": "stroop-trial-1-incongruent-17", "trial_type": "html-keyboard-response", "trial_index": 7, "time_elapsed": 123787, "internal_node_id": "0.0-4.0-3.0"}}, {"uniqueid": "w61365854:a16591605", "current_trial": 8, "dateTime": 1664370060713, "trialdata": {"rt": 760, "stimulus": "<p id='stroop-text' class='stroop-red'>DOG</p>", "response": "r", "stimulus-type": "unrelated", "word": "DOG", "color": "red", "correct_response": "r", "trial_id": "stroop-trial-1-unrelated-28", "trial_type": "html-keyboard-response", "trial_index": 8, "time_elapsed": 125052, "internal_node_id": "0.0-4.0-4.0"}}, {"uniqueid": "w61365854:a16591605", "current_trial": 9, "dateTime": 1664370062186, "trialdata": {"rt": 968, "stimulus": "<p id='stroop-text' class='stroop-yellow'>YELLOW</p>", "response": "y", "stimulus-type": "congruent", "word": "yellow", "color": "yellow", "correct_response": "y", "trial_id": "stroop-trial-1-congruent-21", "trial_type": "html-keyboard-response", "trial_index": 9, "time_elapsed": 126525, "internal_node_id": "0.0-4.0-5.0"}}, {"uniqueid": "w61365854:a16591605", "current_trial": 10, "dateTime": 1664370064231, "trialdata": {"rt": 1540, "stimulus": "<p id='stroop-text' class='stroop-red'>MONKEY</p>", "response": "r", "stimulus-type": "unrelated", "word": "MONKEY", "color": "red", "correct_response": "r", "trial_id": "stroop-trial-1-unrelated-23", "trial_type": "html-keyboard-response", "trial_index": 10, "time_elapsed": 128570, "internal_node_id": "0.0-4.0-6.0"}}, {"uniqueid": "w61365854:a16591605", "current_trial": 11, "dateTime": 1664370065549, "trialdata": {"rt": 813, "stimulus": "<p id='stroop-text' class='stroop-red'>GREEN</p>", "response": "r", "stimulus-type": "incongruent", "word": "green", "color": "red", "correct_response": "r", "trial_id": "stroop-trial-1-incongruent-19", "trial_type": "html-keyboard-response", "trial_index": 11, "time_elapsed": 129889, "internal_node_id": "0.0-4.0-7.0"}}, {"uniqueid": "w61365854:a16591605", "current_trial": 12, "dateTime": 1664370071328, "trialdata": {"rt": 5274, "stimulus": "<p id='stroop-text' class='stroop-blue'>MONKEY</p>", "response": "r", "stimulus-type": "unrelated", "word": "MONKEY", "color": "blue", "correct_response": "b", "trial_id": "stroop-trial-1-unrelated-7", "trial_type": "html-keyboard-response", "trial_index": 12, "time_elapsed": 135667, "internal_node_id": "0.0-4.0-8.0"}}, {"uniqueid": "w61365854:a16591605", "current_trial": 13, "dateTime": 1664370074165, "trialdata": {"rt": 2332, "stimulus": "<p id='stroop-text' class='stroop-red'>BRIDGE</p>", "response": "r", "stimulus-type": "unrelated", "word": "BRIDGE", "color": "red", "correct_response": "r", "trial_id": "stroop-trial-1-unrelated-20", "trial_type": "html-keyboard-response", "trial_index": 13, "time_elapsed": 138504, "internal_node_id": "0.0-4.0-9.0"}}, {"uniqueid": "w61365854:a16591605", "current_trial": 14, "dateTime": 1664370076190, "trialdata": {"rt": 1519, "stimulus": "<p id='stroop-text' class='stroop-green'>GREEN</p>", "response": "g", "stimulus-type": "congruent", "word": "green", "color": "green", "correct_response": "g", "trial_id": "stroop-trial-1-congruent-13", "trial_type": "html-keyboard-response", "trial_index": 14, "time_elapsed": 140529, "internal_node_id": "0.0-4.0-10.0"}}, {"uniqueid": "w61365854:a16591605", "current_trial": 15, "dateTime": 1664370078175, "trialdata": {"rt": 1478, "stimulus": "<p id='stroop-text' class='stroop-blue'>GREEN</p>", "response": "b", "stimulus-type": "incongruent", "word": "green", "color": "blue", "correct_response": "b", "trial_id": "stroop-trial-1-incongruent-22", "trial_type": "html-keyboard-response", "trial_index": 15, "time_elapsed": 142515, "internal_node_id": "0.0-4.0-11.0"}}, {"uniqueid": "w61365854:a16591605", "current_trial": 16, "dateTime": 1664370081664, "trialdata": {"rt": 2985, "stimulus": "<p id='stroop-text' class='stroop-green'>FORK</p>", "response": "g", "stimulus-type": "unrelated", "word": "FORK", "color": "green", "correct_response": "g", "trial_id": "stroop-trial-1-unrelated-11", "trial_type": "html-keyboard-response", "trial_index": 16, "time_elapsed": 146004, "internal_node_id": "0.0-4.0-12.0"}}, {"uniqueid": "w61365854:a16591605", "current_trial": 17, "dateTime": 1664370083529, "trialdata": {"rt": 1358, "stimulus": "<p id='stroop-text' class='stroop-blue'>GREEN</p>", "response": "b", "stimulus-type": "incongruent", "word": "green", "color": "blue", "correct_response": "b", "trial_id": "stroop-trial-1-incongruent-7", "trial_type": "html-keyboard-response", "trial_index": 17, "time_elapsed": 147868, "internal_node_id": "0.0-4.0-13.0"}}, {"uniqueid": "w61365854:a16591605", "current_trial": 18, "dateTime": 1664370085299, "trialdata": {"rt": 1266, "stimulus": "<p id='stroop-text' class='stroop-red'>YELLOW</p>", "response": "r", "stimulus-type": "incongruent", "word": "yellow", "color": "red", "correct_response": "r", "trial_id": "stroop-trial-1-incongruent-15", "trial_type": "html-keyboard-response", "trial_index": 18, "time_elapsed": 149638, "internal_node_id": "0.0-4.0-14.0"}}, {"uniqueid": "w61365854:a16591605", "current_trial": 19, "dateTime": 1664370089298, "trialdata": {"rt": 3493, "stimulus": "<p id='stroop-text' class='stroop-green'>BOTTLE</p>", "response": "g", "stimulus-type": "unrelated", "word": "BOTTLE", "color": "green", "correct_response": "g", "trial_id": "stroop-trial-1-unrelated-15", "trial_type": "html-keyboard-response", "trial_index": 19, "time_elapsed": 153637, "internal_node_id": "0.0-4.0-15.0"}}, {"uniqueid": "w61365854:a16591605", "current_trial": 20, "dateTime": 1664370091762, "trialdata": {"rt": 1960, "stimulus": "<p id='stroop-text' class='stroop-yellow'>YELLOW</p>", "response": "y", "stimulus-type": "congruent", "word": "yellow", "color": "yellow", "correct_response": "y", "trial_id": "stroop-trial-1-congruent-22", "trial_type": "html-keyboard-response", "trial_index": 20, "time_elapsed": 156102, "internal_node_id": "0.0-4.0-16.0"}}, {"uniqueid": "w61365854:a16591605", "current_trial": 21, "dateTime": 1664370093378, "trialdata": {"rt": 1108, "stimulus": "<p id='stroop-text' class='stroop-blue'>BLUE</p>", "response": "b", "stimulus-type": "congruent", "word": "blue", "color": "blue", "correct_response": "b", "trial_id": "stroop-trial-1-congruent-6", "trial_type": "html-keyboard-response", "trial_index": 21, "time_elapsed": 157718, "internal_node_id": "0.0-4.0-17.0"}}, {"uniqueid": "w61365854:a16591605", "current_trial": 22, "dateTime": 1664370099355, "trialdata": {"rt": 5471, "stimulus": "<p id='stroop-text' class='stroop-yellow'>BLUE</p>", "response": "y", "stimulus-type": "incongruent", "word": "blue", "color": "yellow", "correct_response": "y", "trial_id": "stroop-trial-1-incongruent-6", "trial_type": "html-keyboard-response", "trial_index": 22, "time_elapsed": 163695, "internal_node_id": "0.0-4.0-18.0"}}, {"uniqueid": "w61365854:a16591605", "current_trial": 23, "dateTime": 1664370101135, "trialdata": {"rt": 1276, "stimulus": "<p id='stroop-text' class='stroop-blue'>GREEN</p>", "response": "b", "stimulus-type": "incongruent", "word": "green", "color": "blue", "correct_response": "b", "trial_id": "stroop-trial-1-incongruent-5", "trial_type": "html-keyboard-response", "trial_index": 23, "time_elapsed": 165475, "internal_node_id": "0.0-4.0-19.0"}}, {"uniqueid": "w61365854:a16591605", "current_trial": 24, "dateTime": 1664370102507, "trialdata": {"rt": 868, "stimulus": "<p id='stroop-text' class='stroop-blue'>BLUE</p>", "response": "b", "stimulus-type": "congruent", "word": "blue", "color": "blue", "correct_response": "b", "trial_id": "stroop-trial-1-congruent-9", "trial_type": "html-keyboard-response", "trial_index": 24, "time_elapsed": 166847, "internal_node_id": "0.0-4.0-20.0"}}, {"uniqueid": "w61365854:a16591605", "current_trial": 25, "dateTime": 1664370104737, "trialdata": {"rt": 1725, "stimulus": "<p id='stroop-text' class='stroop-red'>RED</p>", "response": "r", "stimulus-type": "congruent", "word": "red", "color": "red", "correct_response": "r", "trial_id": "stroop-trial-1-congruent-29", "trial_type": "html-keyboard-response", "trial_index": 25, "time_elapsed": 169077, "internal_node_id": "0.0-4.0-21.0"}}, {"uniqueid": "w61365854:a16591605", "current_trial": 26, "dateTime": 1664370106087, "trialdata": {"rt": 845, "stimulus": "<p id='stroop-text' class='stroop-yellow'>YELLOW</p>", "response": "y", "stimulus-type": "congruent", "word": "yellow", "color": "yellow", "correct_response": "y", "trial_id": "stroop-trial-1-congruent-19", "trial_type": "html-keyboard-response", "trial_index": 26, "time_elapsed": 170427, "internal_node_id": "0.0-4.0-22.0"}}, {"uniqueid": "w61365854:a16591605", "current_trial": 27, "dateTime": 1664370107406, "trialdata": {"rt": 815, "stimulus": "<p id='stroop-text' class='stroop-red'>RED</p>", "response": "r", "stimulus-type": "congruent", "word": "red", "color": "red", "correct_response": "r", "trial_id": "stroop-trial-1-congruent-12", "trial_type": "html-keyboard-response", "trial_index": 27, "time_elapsed": 171746, "internal_node_id": "0.0-4.0-23.0"}}, {"uniqueid": "w61365854:a16591605", "current_trial": 28, "dateTime": 1664370108833, "trialdata": {"rt": 921, "stimulus": "<p id='stroop-text' class='stroop-blue'>WINDOW</p>", "response": "b", "stimulus-type": "unrelated", "word": "WINDOW", "color": "blue", "correct_response": "b", "trial_id": "stroop-trial-1-unrelated-13", "trial_type": "html-keyboard-response", "trial_index": 28, "time_elapsed": 173172, "internal_node_id": "0.0-4.0-24.0"}}, {"uniqueid": "w61365854:a16591605", "current_trial": 29, "dateTime": 1664370111741, "trialdata": {"rt": 2405, "stimulus": "<p id='stroop-text' class='stroop-green'>YELLOW</p>", "response": "g", "stimulus-type": "incongruent", "word": "yellow", "color": "green", "correct_response": "g", "trial_id": "stroop-trial-1-incongruent-9", "trial_type": "html-keyboard-response", "trial_index": 29, "time_elapsed": 176081, "internal_node_id": "0.0-4.0-25.0"}}, {"uniqueid": "w61365854:a16591605", "current_trial": 30, "dateTime": 1664370113635, "trialdata": {"rt": 1389, "stimulus": "<p id='stroop-text' class='stroop-blue'>BRIDGE</p>", "response": "b", "stimulus-type": "unrelated", "word": "BRIDGE", "color": "blue", "correct_response": "b", "trial_id": "stroop-trial-1-unrelated-21", "trial_type": "html-keyboard-response", "trial_index": 30, "time_elapsed": 177974, "internal_node_id": "0.0-4.0-26.0"}}, {"uniqueid": "w61365854:a16591605", "current_trial": 31, "dateTime": 1664370116785, "trialdata": {"rt": 2646, "stimulus": "<p id='stroop-text' class='stroop-yellow'>YELLOW</p>", "response": "y", "stimulus-type": "congruent", "word": "yellow", "color": "yellow", "correct_response": "y", "trial_id": "stroop-trial-1-congruent-8", "trial_type": "html-keyboard-response", "trial_index": 31, "time_elapsed": 181125, "internal_node_id": "0.0-4.0-27.0"}}, {"uniqueid": "w61365854:a16591605", "current_trial": 32, "dateTime": 1664370118558, "trialdata": {"rt": 1266, "stimulus": "<p id='stroop-text' class='stroop-green'>CHAIR</p>", "response": "g", "stimulus-type": "unrelated", "word": "CHAIR", "color": "green", "correct_response": "g", "trial_id": "stroop-trial-1-unrelated-12", "trial_type": "html-keyboard-response", "trial_index": 32, "time_elapsed": 182897, "internal_node_id": "0.0-4.0-28.0"}}, {"uniqueid": "w61365854:a16591605", "current_trial": 33, "dateTime": 1664370120129, "trialdata": {"rt": 1067, "stimulus": "<p id='stroop-text' class='stroop-red'>RED</p>", "response": "r", "stimulus-type": "congruent", "word": "red", "color": "red", "correct_response": "r", "trial_id": "stroop-trial-1-congruent-26", "trial_type": "html-keyboard-response", "trial_index": 33, "time_elapsed": 184469, "internal_node_id": "0.0-4.0-29.0"}}, {"uniqueid": "w61365854:a16591605", "current_trial": 34, "dateTime": 1664370122152, "trialdata": {"rt": 1519, "stimulus": "<p id='stroop-text' class='stroop-green'>BRIDGE</p>", "response": "g", "stimulus-type": "unrelated", "word": "BRIDGE", "color": "green", "correct_response": "g", "trial_id": "stroop-trial-1-unrelated-18", "trial_type": "html-keyboard-response", "trial_index": 34, "time_elapsed": 186492, "internal_node_id": "0.0-4.0-30.0"}}, {"uniqueid": "w61365854:a16591605", "current_trial": 35, "dateTime": 1664370123841, "trialdata": {"rt": 1184, "stimulus": "<p id='stroop-text' class='stroop-yellow'>CHAIR</p>", "response": "y", "stimulus-type": "unrelated", "word": "CHAIR", "color": "yellow", "correct_response": "y", "trial_id": "stroop-trial-1-unrelated-30", "trial_type": "html-keyboard-response", "trial_index": 35, "time_elapsed": 188180, "internal_node_id": "0.0-4.0-31.0"}}, {"uniqueid": "w61365854:a16591605", "current_trial": 36, "dateTime": 1664370126914, "trialdata": {"rt": 2569, "stimulus": "<p id='stroop-text' class='stroop-green'>RED</p>", "response": "g", "stimulus-type": "incongruent", "word": "red", "color": "green", "correct_response": "g", "trial_id": "stroop-trial-1-incongruent-10", "trial_type": "html-keyboard-response", "trial_index": 36, "time_elapsed": 191254, "internal_node_id": "0.0-4.0-32.0"}}, {"uniqueid": "w61365854:a16591605", "current_trial": 37, "dateTime": 1664370128015, "trialdata": {"rt": 583, "stimulus": "<p id='stroop-text' class='stroop-green'>GREEN</p>", "response": "g", "stimulus-type": "congruent", "word": "green", "color": "green", "correct_response": "g", "trial_id": "stroop-trial-1-congruent-7", "trial_type": "html-keyboard-response", "trial_index": 37, "time_elapsed": 192354, "internal_node_id": "0.0-4.0-33.0"}}, {"uniqueid": "w61365854:a16591605", "current_trial": 38, "dateTime": 1664370129186, "trialdata": {"rt": 664, "stimulus": "<p id='stroop-text' class='stroop-blue'>MONKEY</p>", "response": "b", "stimulus-type": "unrelated", "word": "MONKEY", "color": "blue", "correct_response": "b", "trial_id": "stroop-trial-1-unrelated-19", "trial_type": "html-keyboard-response", "trial_index": 38, "time_elapsed": 193525, "internal_node_id": "0.0-4.0-34.0"}}, {"uniqueid": "w61365854:a16591605", "current_trial": 39, "dateTime": 1664370130320, "trialdata": {"rt": 627, "stimulus": "<p id='stroop-text' class='stroop-red'>RED</p>", "response": "r", "stimulus-type": "congruent", "word": "red", "color": "red", "correct_response": "r", "trial_id": "stroop-trial-1-congruent-30", "trial_type": "html-keyboard-response", "trial_index": 39, "time_elapsed": 194659, "internal_node_id": "0.0-4.0-35.0"}}, {"uniqueid": "w61365854:a16591605", "current_trial": 40, "dateTime": 1664370131644, "trialdata": {"rt": 811, "stimulus": "<p id='stroop-text' class='stroop-blue'>RED</p>", "response": "b", "stimulus-type": "incongruent", "word": "red", "color": "blue", "correct_response": "b", "trial_id": "stroop-trial-1-incongruent-30", "trial_type": "html-keyboard-response", "trial_index": 40, "time_elapsed": 195984, "internal_node_id": "0.0-4.0-36.0"}}, {"uniqueid": "w61365854:a16591605", "current_trial": 41, "dateTime": 1664370132876, "trialdata": {"rt": 729, "stimulus": "<p id='stroop-text' class='stroop-red'>STONE</p>", "response": "r", "stimulus-type": "unrelated", "word": "STONE", "color": "red", "correct_response": "r", "trial_id": "stroop-trial-1-unrelated-22", "trial_type": "html-keyboard-response", "trial_index": 41, "time_elapsed": 197215, "internal_node_id": "0.0-4.0-37.0"}}, {"uniqueid": "w61365854:a16591605", "current_trial": 42, "dateTime": 1664370134261, "trialdata": {"rt": 880, "stimulus": "<p id='stroop-text' class='stroop-red'>BOTTLE</p>", "response": "r", "stimulus-type": "unrelated", "word": "BOTTLE", "color": "red", "correct_response": "r", "trial_id": "stroop-trial-1-unrelated-24", "trial_type": "html-keyboard-response", "trial_index": 42, "time_elapsed": 198601, "internal_node_id": "0.0-4.0-38.0"}}, {"uniqueid": "w61365854:a16591605", "current_trial": 43, "dateTime": 1664370135536, "trialdata": {"rt": 771, "stimulus": "<p id='stroop-text' class='stroop-red'>DOG</p>", "response": "r", "stimulus-type": "unrelated", "word": "DOG", "color": "red", "correct_response": "r", "trial_id": "stroop-trial-1-unrelated-14", "trial_type": "html-keyboard-response", "trial_index": 43, "time_elapsed": 199876, "internal_node_id": "0.0-4.0-39.0"}}, {"uniqueid": "w61365854:a16591605", "current_trial": 44, "dateTime": 1664370136955, "trialdata": {"rt": 914, "stimulus": "<p id='stroop-text' class='stroop-blue'>YELLOW</p>", "response": "b", "stimulus-type": "incongruent", "word": "yellow", "color": "blue", "correct_response": "b", "trial_id": "stroop-trial-1-incongruent-4", "trial_type": "html-keyboard-response", "trial_index": 44, "time_elapsed": 201295, "internal_node_id": "0.0-4.0-40.0"}}, {"uniqueid": "w61365854:a16591605", "current_trial": 45, "dateTime": 1664370139039, "trialdata": {"rt": 1577, "stimulus": "<p id='stroop-text' class='stroop-green'>DOG</p>", "response": "g", "stimulus-type": "unrelated", "word": "DOG", "color": "green", "correct_response": "g", "trial_id": "stroop-trial-1-unrelated-26", "trial_type": "html-keyboard-response", "trial_index": 45, "time_elapsed": 203378, "internal_node_id": "0.0-4.0-41.0"}}, {"uniqueid": "w61365854:a16591605", "current_trial": 46, "dateTime": 1664370140096, "trialdata": {"rt": 550, "stimulus": "<p id='stroop-text' class='stroop-green'>GREEN</p>", "response": "g", "stimulus-type": "congruent", "word": "green", "color": "green", "correct_response": "g", "trial_id": "stroop-trial-1-congruent-24", "trial_type": "html-keyboard-response", "trial_index": 46, "time_elapsed": 204435, "internal_node_id": "0.0-4.0-42.0"}}, {"uniqueid": "w61365854:a16591605", "current_trial": 47, "dateTime": 1664370141392, "trialdata": {"rt": 791, "stimulus": "<p id='stroop-text' class='stroop-red'>BOAT</p>", "response": "r", "stimulus-type": "unrelated", "word": "BOAT", "color": "red", "correct_response": "r", "trial_id": "stroop-trial-1-unrelated-25", "trial_type": "html-keyboard-response", "trial_index": 47, "time_elapsed": 205732, "internal_node_id": "0.0-4.0-43.0"}}, {"uniqueid": "w61365854:a16591605", "current_trial": 48, "dateTime": 1664370142495, "trialdata": {"rt": 597, "stimulus": "<p id='stroop-text' class='stroop-red'>BLUE</p>", "response": "r", "stimulus-type": "incongruent", "word": "blue", "color": "red", "correct_response": "r", "trial_id": "stroop-trial-1-incongruent-20", "trial_type": "html-keyboard-response", "trial_index": 48, "time_elapsed": 206834, "internal_node_id": "0.0-4.0-44.0"}}, {"uniqueid": "w61365854:a16591605", "current_trial": 49, "dateTime": 1664370143515, "trialdata": {"rt": 516, "stimulus": "<p id='stroop-text' class='stroop-red'>MONKEY</p>", "response": "r", "stimulus-type": "unrelated", "word": "MONKEY", "color": "red", "correct_response": "r", "trial_id": "stroop-trial-1-unrelated-17", "trial_type": "html-keyboard-response", "trial_index": 49, "time_elapsed": 207855, "internal_node_id": "0.0-4.0-45.0"}}, {"uniqueid": "w61365854:a16591605", "current_trial": 50, "dateTime": 1664370144934, "trialdata": {"rt": 914, "stimulus": "<p id='stroop-text' class='stroop-yellow'>STONE</p>", "response": "y", "stimulus-type": "unrelated", "word": "STONE", "color": "yellow", "correct_response": "y", "trial_id": "stroop-trial-1-unrelated-16", "trial_type": "html-keyboard-response", "trial_index": 50, "time_elapsed": 209273, "internal_node_id": "0.0-4.0-46.0"}}, {"uniqueid": "w61365854:a16591605", "current_trial": 51, "dateTime": 1664370146413, "trialdata": {"rt": 974, "stimulus": "<p id='stroop-text' class='stroop-green'>GREEN</p>", "response": "g", "stimulus-type": "congruent", "word": "green", "color": "green", "correct_response": "g", "trial_id": "stroop-trial-1-congruent-11", "trial_type": "html-keyboard-response", "trial_index": 51, "time_elapsed": 210752, "internal_node_id": "0.0-4.0-47.0"}}, {"uniqueid": "w61365854:a16591605", "current_trial": 52, "dateTime": 1664370147420, "trialdata": {"rt": 502, "stimulus": "<p id='stroop-text' class='stroop-green'>GREEN</p>", "response": "g", "stimulus-type": "congruent", "word": "green", "color": "green", "correct_response": "g", "trial_id": "stroop-trial-1-congruent-20", "trial_type": "html-keyboard-response", "trial_index": 52, "time_elapsed": 211760, "internal_node_id": "0.0-4.0-48.0"}}, {"uniqueid": "w61365854:a16591605", "current_trial": 53, "dateTime": 1664370148776, "trialdata": {"rt": 850, "stimulus": "<p id='stroop-text' class='stroop-blue'>BOTTLE</p>", "response": "b", "stimulus-type": "unrelated", "word": "BOTTLE", "color": "blue", "correct_response": "b", "trial_id": "stroop-trial-1-unrelated-8", "trial_type": "html-keyboard-response", "trial_index": 53, "time_elapsed": 213115, "internal_node_id": "0.0-4.0-49.0"}}, {"uniqueid": "w61365854:a16591605", "current_trial": 54, "dateTime": 1664370150083, "trialdata": {"rt": 802, "stimulus": "<p id='stroop-text' class='stroop-blue'>RED</p>", "response": "b", "stimulus-type": "incongruent", "word": "red", "color": "blue", "correct_response": "b", "trial_id": "stroop-trial-1-incongruent-2", "trial_type": "html-keyboard-response", "trial_index": 54, "time_elapsed": 214422, "internal_node_id": "0.0-4.0-50.0"}}, {"uniqueid": "w61365854:a16591605", "current_trial": 55, "dateTime": 1664370151190, "trialdata": {"rt": 599, "stimulus": "<p id='stroop-text' class='stroop-blue'>GREEN</p>", "response": "b", "stimulus-type": "incongruent", "word": "green", "color": "blue", "correct_response": "b", "trial_id": "stroop-trial-1-incongruent-25", "trial_type": "html-keyboard-response", "trial_index": 55, "time_elapsed": 215529, "internal_node_id": "0.0-4.0-51.0"}}, {"uniqueid": "w61365854:a16591605", "current_trial": 56, "dateTime": 1664370152241, "trialdata": {"rt": 545, "stimulus": "<p id='stroop-text' class='stroop-red'>GREEN</p>", "response": "r", "stimulus-type": "incongruent", "word": "green", "color": "red", "correct_response": "r", "trial_id": "stroop-trial-1-incongruent-8", "trial_type": "html-keyboard-response", "trial_index": 56, "time_elapsed": 216581, "internal_node_id": "0.0-4.0-52.0"}}, {"uniqueid": "w61365854:a16591605", "current_trial": 57, "dateTime": 1664370153404, "trialdata": {"rt": 657, "stimulus": "<p id='stroop-text' class='stroop-blue'>BLUE</p>", "response": "r", "stimulus-type": "congruent", "word": "blue", "color": "blue", "correct_response": "b", "trial_id": "stroop-trial-1-congruent-14", "trial_type": "html-keyboard-response", "trial_index": 57, "time_elapsed": 217743, "internal_node_id": "0.0-4.0-53.0"}}, {"uniqueid": "w61365854:a16591605", "current_trial": 58, "dateTime": 1664370155033, "trialdata": {"rt": 1125, "stimulus": "<p id='stroop-text' class='stroop-green'>GREEN</p>", "response": "g", "stimulus-type": "congruent", "word": "green", "color": "green", "correct_response": "g", "trial_id": "stroop-trial-1-congruent-15", "trial_type": "html-keyboard-response", "trial_index": 58, "time_elapsed": 219373, "internal_node_id": "0.0-4.0-54.0"}}, {"uniqueid": "w61365854:a16591605", "current_trial": 59, "dateTime": 1664370156808, "trialdata": {"rt": 1269, "stimulus": "<p id='stroop-text' class='stroop-yellow'>YELLOW</p>", "response": "y", "stimulus-type": "congruent", "word": "yellow", "color": "yellow", "correct_response": "y", "trial_id": "stroop-trial-1-congruent-4", "trial_type": "html-keyboard-response", "trial_index": 59, "time_elapsed": 221148, "internal_node_id": "0.0-4.0-55.0"}}, {"uniqueid": "w61365854:a16591605", "current_trial": 60, "dateTime": 1664370158078, "trialdata": {"rt": 764, "stimulus": "<p id='stroop-text' class='stroop-red'>RED</p>", "response": "r", "stimulus-type": "congruent", "word": "red", "color": "red", "correct_response": "r", "trial_id": "stroop-trial-1-congruent-10", "trial_type": "html-keyboard-response", "trial_index": 60, "time_elapsed": 222417, "internal_node_id": "0.0-4.0-56.0"}}, {"uniqueid": "w61365854:a16591605", "current_trial": 61, "dateTime": 1664370159854, "trialdata": {"rt": 1272, "stimulus": "<p id='stroop-text' class='stroop-yellow'>YELLOW</p>", "response": "y", "stimulus-type": "congruent", "word": "yellow", "color": "yellow", "correct_response": "y", "trial_id": "stroop-trial-1-congruent-25", "trial_type": "html-keyboard-response", "trial_index": 61, "time_elapsed": 224194, "internal_node_id": "0.0-4.0-57.0"}}, {"uniqueid": "w61365854:a16591605", "current_trial": 62, "dateTime": 1664370161405, "trialdata": {"rt": 1043, "stimulus": "<p id='stroop-text' class='stroop-yellow'>RED</p>", "response": "y", "stimulus-type": "incongruent", "word": "red", "color": "yellow", "correct_response": "y", "trial_id": "stroop-trial-1-incongruent-24", "trial_type": "html-keyboard-response", "trial_index": 62, "time_elapsed": 225744, "internal_node_id": "0.0-4.0-58.0"}}, {"uniqueid": "w61365854:a16591605", "current_trial": 63, "dateTime": 1664370163202, "trialdata": {"rt": 1293, "stimulus": "<p id='stroop-text' class='stroop-blue'>BLUE</p>", "response": "b", "stimulus-type": "congruent", "word": "blue", "color": "blue", "correct_response": "b", "trial_id": "stroop-trial-1-congruent-17", "trial_type": "html-keyboard-response", "trial_index": 63, "time_elapsed": 227541, "internal_node_id": "0.0-4.0-59.0"}}, {"uniqueid": "w61365854:a16591605", "current_trial": 64, "dateTime": 1664370165159, "trialdata": {"rt": 1452, "stimulus": "<p id='stroop-text' class='stroop-yellow'>YELLOW</p>", "response": "y", "stimulus-type": "congruent", "word": "yellow", "color": "yellow", "correct_response": "y", "trial_id": "stroop-trial-1-congruent-28", "trial_type": "html-keyboard-response", "trial_index": 64, "time_elapsed": 229498, "internal_node_id": "0.0-4.0-60.0"}}, {"uniqueid": "w61365854:a16591605", "current_trial": 65, "dateTime": 1664370166766, "trialdata": {"rt": 1103, "stimulus": "<p id='stroop-text' class='stroop-red'>BLUE</p>", "response": "r", "stimulus-type": "incongruent", "word": "blue", "color": "red", "correct_response": "r", "trial_id": "stroop-trial-1-incongruent-18", "trial_type": "html-keyboard-response", "trial_index": 65, "time_elapsed": 231105, "internal_node_id": "0.0-4.0-61.0"}}, {"uniqueid": "w61365854:a16591605", "current_trial": 66, "dateTime": 1664370167939, "trialdata": {"rt": 667, "stimulus": "<p id='stroop-text' class='stroop-yellow'>YELLOW</p>", "response": "y", "stimulus-type": "congruent", "word": "yellow", "color": "yellow", "correct_response": "y", "trial_id": "stroop-trial-1-congruent-16", "trial_type": "html-keyboard-response", "trial_index": 66, "time_elapsed": 232279, "internal_node_id": "0.0-4.0-62.0"}}, {"uniqueid": "w61365854:a16591605", "current_trial": 67, "dateTime": 1664370169135, "trialdata": {"rt": 690, "stimulus": "<p id='stroop-text' class='stroop-yellow'>BLUE</p>", "response": "y", "stimulus-type": "incongruent", "word": "blue", "color": "yellow", "correct_response": "y", "trial_id": "stroop-trial-1-incongruent-29", "trial_type": "html-keyboard-response", "trial_index": 67, "time_elapsed": 233474, "internal_node_id": "0.0-4.0-63.0"}}, {"uniqueid": "w61365854:a16591605", "current_trial": 68, "dateTime": 1664370170265, "trialdata": {"rt": 626, "stimulus": "<p id='stroop-text' class='stroop-red'>BLUE</p>", "response": "r", "stimulus-type": "incongruent", "word": "blue", "color": "red", "correct_response": "r", "trial_id": "stroop-trial-1-incongruent-12", "trial_type": "html-keyboard-response", "trial_index": 68, "time_elapsed": 234604, "internal_node_id": "0.0-4.0-64.0"}}, {"uniqueid": "w61365854:a16591605", "current_trial": 69, "dateTime": 1664370171606, "trialdata": {"rt": 834, "stimulus": "<p id='stroop-text' class='stroop-green'>YELLOW</p>", "response": "g", "stimulus-type": "incongruent", "word": "yellow", "color": "green", "correct_response": "g", "trial_id": "stroop-trial-1-incongruent-26", "trial_type": "html-keyboard-response", "trial_index": 69, "time_elapsed": 235945, "internal_node_id": "0.0-4.0-65.0"}}, {"uniqueid": "w61365854:a16591605", "current_trial": 70, "dateTime": 1664370173814, "trialdata": {"rt": 1703, "stimulus": "<p id='stroop-text' class='stroop-green'>FORK</p>", "response": "g", "stimulus-type": "unrelated", "word": "FORK", "color": "green", "correct_response": "g", "trial_id": "stroop-trial-1-unrelated-2", "trial_type": "html-keyboard-response", "trial_index": 70, "time_elapsed": 238154, "internal_node_id": "0.0-4.0-66.0"}}, {"uniqueid": "w61365854:a16591605", "current_trial": 71, "dateTime": 1664370175041, "trialdata": {"rt": 722, "stimulus": "<p id='stroop-text' class='stroop-blue'>YELLOW</p>", "response": "b", "stimulus-type": "incongruent", "word": "yellow", "color": "blue", "correct_response": "b", "trial_id": "stroop-trial-1-incongruent-3", "trial_type": "html-keyboard-response", "trial_index": 71, "time_elapsed": 239380, "internal_node_id": "0.0-4.0-67.0"}}, {"uniqueid": "w61365854:a16591605", "current_trial": 72, "dateTime": 1664370177434, "trialdata": {"rt": 1888, "stimulus": "<p id='stroop-text' class='stroop-green'>BOAT</p>", "response": "g", "stimulus-type": "unrelated", "word": "BOAT", "color": "green", "correct_response": "g", "trial_id": "stroop-trial-1-unrelated-4", "trial_type": "html-keyboard-response", "trial_index": 72, "time_elapsed": 241774, "internal_node_id": "0.0-4.0-68.0"}}, {"uniqueid": "w61365854:a16591605", "current_trial": 73, "dateTime": 1664370178926, "trialdata": {"rt": 985, "stimulus": "<p id='stroop-text' class='stroop-green'>GREEN</p>", "response": "g", "stimulus-type": "congruent", "word": "green", "color": "green", "correct_response": "g", "trial_id": "stroop-trial-1-congruent-3", "trial_type": "html-keyboard-response", "trial_index": 73, "time_elapsed": 243265, "internal_node_id": "0.0-4.0-69.0"}}, {"uniqueid": "w61365854:a16591605", "current_trial": 74, "dateTime": 1664370179980, "trialdata": {"rt": 549, "stimulus": "<p id='stroop-text' class='stroop-green'>GREEN</p>", "response": "g", "stimulus-type": "congruent", "word": "green", "color": "green", "correct_response": "g", "trial_id": "stroop-trial-1-congruent-1", "trial_type": "html-keyboard-response", "trial_index": 74, "time_elapsed": 244319, "internal_node_id": "0.0-4.0-70.0"}}, {"uniqueid": "w61365854:a16591605", "current_trial": 75, "dateTime": 1664370181159, "trialdata": {"rt": 671, "stimulus": "<p id='stroop-text' class='stroop-red'>YELLOW</p>", "response": "r", "stimulus-type": "incongruent", "word": "yellow", "color": "red", "correct_response": "r", "trial_id": "stroop-trial-1-incongruent-27", "trial_type": "html-keyboard-response", "trial_index": 75, "time_elapsed": 245498, "internal_node_id": "0.0-4.0-71.0"}}, {"uniqueid": "w61365854:a16591605", "current_trial": 76, "dateTime": 1664370182909, "trialdata": {"rt": 1245, "stimulus": "<p id='stroop-text' class='stroop-yellow'>BOTTLE</p>", "response": "y", "stimulus-type": "unrelated", "word": "BOTTLE", "color": "yellow", "correct_response": "y", "trial_id": "stroop-trial-1-unrelated-3", "trial_type": "html-keyboard-response", "trial_index": 76, "time_elapsed": 247248, "internal_node_id": "0.0-4.0-72.0"}}, {"uniqueid": "w61365854:a16591605", "current_trial": 77, "dateTime": 1664370184433, "trialdata": {"rt": 1019, "stimulus": "<p id='stroop-text' class='stroop-green'>BLUE</p>", "response": "g", "stimulus-type": "incongruent", "word": "blue", "color": "green", "correct_response": "g", "trial_id": "stroop-trial-1-incongruent-13", "trial_type": "html-keyboard-response", "trial_index": 77, "time_elapsed": 248773, "internal_node_id": "0.0-4.0-73.0"}}, {"uniqueid": "w61365854:a16591605", "current_trial": 78, "dateTime": 1664370185627, "trialdata": {"rt": 681, "stimulus": "<p id='stroop-text' class='stroop-red'>RED</p>", "response": "r", "stimulus-type": "congruent", "word": "red", "color": "red", "correct_response": "r", "trial_id": "stroop-trial-1-congruent-2", "trial_type": "html-keyboard-response", "trial_index": 78, "time_elapsed": 249967, "internal_node_id": "0.0-4.0-74.0"}}, {"uniqueid": "w61365854:a16591605", "current_trial": 79, "dateTime": 1664370186957, "trialdata": {"rt": 825, "stimulus": "<p id='stroop-text' class='stroop-yellow'>GREEN</p>", "response": "y", "stimulus-type": "incongruent", "word": "green", "color": "yellow", "correct_response": "y", "trial_id": "stroop-trial-1-incongruent-16", "trial_type": "html-keyboard-response", "trial_index": 79, "time_elapsed": 251297, "internal_node_id": "0.0-4.0-75.0"}}, {"uniqueid": "w61365854:a16591605", "current_trial": 80, "dateTime": 1664370188467, "trialdata": {"rt": 1006, "stimulus": "<p id='stroop-text' class='stroop-yellow'>RED</p>", "response": "y", "stimulus-type": "incongruent", "word": "red", "color": "yellow", "correct_response": "y", "trial_id": "stroop-trial-1-incongruent-14", "trial_type": "html-keyboard-response", "trial_index": 80, "time_elapsed": 252807, "internal_node_id": "0.0-4.0-76.0"}}, {"uniqueid": "w61365854:a16591605", "current_trial": 81, "dateTime": 1664370189916, "trialdata": {"rt": 943, "stimulus": "<p id='stroop-text' class='stroop-green'>YELLOW</p>", "response": "g", "stimulus-type": "incongruent", "word": "yellow", "color": "green", "correct_response": "g", "trial_id": "stroop-trial-1-incongruent-28", "trial_type": "html-keyboard-response", "trial_index": 81, "time_elapsed": 254255, "internal_node_id": "0.0-4.0-77.0"}}, {"uniqueid": "w61365854:a16591605", "current_trial": 82, "dateTime": 1664370193672, "trialdata": {"rt": 3252, "stimulus": "<p id='stroop-text' class='stroop-green'>BLUE</p>", "response": "g", "stimulus-type": "incongruent", "word": "blue", "color": "green", "correct_response": "g", "trial_id": "stroop-trial-1-incongruent-11", "trial_type": "html-keyboard-response", "trial_index": 82, "time_elapsed": 258011, "internal_node_id": "0.0-4.0-78.0"}}, {"uniqueid": "w61365854:a16591605", "current_trial": 83, "dateTime": 1664370194966, "trialdata": {"rt": 776, "stimulus": "<p id='stroop-text' class='stroop-blue'>FORK</p>", "response": "b", "stimulus-type": "unrelated", "word": "FORK", "color": "blue", "correct_response": "b", "trial_id": "stroop-trial-1-unrelated-9", "trial_type": "html-keyboard-response", "trial_index": 83, "time_elapsed": 259305, "internal_node_id": "0.0-4.0-79.0"}}, {"uniqueid": "w61365854:a16591605", "current_trial": 84, "dateTime": 1664370196380, "trialdata": {"rt": 907, "stimulus": "<p id='stroop-text' class='stroop-yellow'>YELLOW</p>", "response": "y", "stimulus-type": "congruent", "word": "yellow", "color": "yellow", "correct_response": "y", "trial_id": "stroop-trial-1-congruent-23", "trial_type": "html-keyboard-response", "trial_index": 84, "time_elapsed": 260719, "internal_node_id": "0.0-4.0-80.0"}}, {"uniqueid": "w61365854:a16591605", "current_trial": 85, "dateTime": 1664370197981, "trialdata": {"rt": 1094, "stimulus": "<p id='stroop-text' class='stroop-yellow'>YELLOW</p>", "response": "y", "stimulus-type": "congruent", "word": "yellow", "color": "yellow", "correct_response": "y", "trial_id": "stroop-trial-1-congruent-18", "trial_type": "html-keyboard-response", "trial_index": 85, "time_elapsed": 262321, "internal_node_id": "0.0-4.0-81.0"}}, {"uniqueid": "w61365854:a16591605", "current_trial": 86, "dateTime": 1664370199219, "trialdata": {"rt": 732, "stimulus": "<p id='stroop-text' class='stroop-green'>DOG</p>", "response": "g", "stimulus-type": "unrelated", "word": "DOG", "color": "green", "correct_response": "g", "trial_id": "stroop-trial-1-unrelated-27", "trial_type": "html-keyboard-response", "trial_index": 86, "time_elapsed": 263558, "internal_node_id": "0.0-4.0-82.0"}}, {"uniqueid": "w61365854:a16591605", "current_trial": 87, "dateTime": 1664370203611, "trialdata": {"rt": 3885, "stimulus": "<p id='stroop-text' class='stroop-blue'>BRAIN</p>", "response": "b", "stimulus-type": "unrelated", "word": "BRAIN", "color": "blue", "correct_response": "b", "trial_id": "stroop-trial-1-unrelated-6", "trial_type": "html-keyboard-response", "trial_index": 87, "time_elapsed": 267950, "internal_node_id": "0.0-4.0-83.0"}}, {"uniqueid": "w61365854:a16591605", "current_trial": 88, "dateTime": 1664370205195, "trialdata": {"rt": 1078, "stimulus": "<p id='stroop-text' class='stroop-blue'>SHIP</p>", "response": "b", "stimulus-type": "unrelated", "word": "SHIP", "color": "blue", "correct_response": "b", "trial_id": "stroop-trial-1-unrelated-1", "trial_type": "html-keyboard-response", "trial_index": 88, "time_elapsed": 269535, "internal_node_id": "0.0-4.0-84.0"}}, {"uniqueid": "w61365854:a16591605", "current_trial": 89, "dateTime": 1664370207653, "trialdata": {"rt": 1953, "stimulus": "<p id='stroop-text' class='stroop-yellow'>GREEN</p>", "response": "y", "stimulus-type": "incongruent", "word": "green", "color": "yellow", "correct_response": "y", "trial_id": "stroop-trial-1-incongruent-21", "trial_type": "html-keyboard-response", "trial_index": 89, "time_elapsed": 271993, "internal_node_id": "0.0-4.0-85.0"}}, {"uniqueid": "w61365854:a16591605", "current_trial": 90, "dateTime": 1664370211445, "trialdata": {"rt": 3287, "stimulus": "<p id='stroop-text' class='stroop-blue'>BOAT</p>", "response": "b", "stimulus-type": "unrelated", "word": "BOAT", "color": "blue", "correct_response": "b", "trial_id": "stroop-trial-1-unrelated-5", "trial_type": "html-keyboard-response", "trial_index": 90, "time_elapsed": 275785, "internal_node_id": "0.0-4.0-86.0"}}, {"uniqueid": "w61365854:a16591605", "current_trial": 91, "dateTime": 1664370212721, "trialdata": {"rt": 769, "stimulus": "<p id='stroop-text' class='stroop-yellow'>YELLOW</p>", "response": "y", "stimulus-type": "congruent", "word": "yellow", "color": "yellow", "correct_response": "y", "trial_id": "stroop-trial-1-congruent-5", "trial_type": "html-keyboard-response", "trial_index": 91, "time_elapsed": 277060, "internal_node_id": "0.0-4.0-87.0"}}, {"uniqueid": "w61365854:a16591605", "current_trial": 92, "dateTime": 1664370214330, "trialdata": {"rt": 1103, "stimulus": "<p id='stroop-text' class='stroop-yellow'>DOG</p>", "response": "y", "stimulus-type": "unrelated", "word": "DOG", "color": "yellow", "correct_response": "y", "trial_id": "stroop-trial-1-unrelated-29", "trial_type": "html-keyboard-response", "trial_index": 92, "time_elapsed": 278670, "internal_node_id": "0.0-4.0-88.0"}}, {"uniqueid": "w61365854:a16591605", "current_trial": 93, "dateTime": 1664370215921, "trialdata": {"rt": 1086, "stimulus": "<p id='stroop-text' class='stroop-green'>YELLOW</p>", "response": "g", "stimulus-type": "incongruent", "word": "yellow", "color": "green", "correct_response": "g", "trial_id": "stroop-trial-1-incongruent-1", "trial_type": "html-keyboard-response", "trial_index": 93, "time_elapsed": 280261, "internal_node_id": "0.0-4.0-89.0"}}, {"uniqueid": "w61365854:a16591605", "current_trial": 94, "dateTime": 1664370304684, "trialdata": {"rt": 88256, "stimulus": "  <h1> End of block! </h1>\n\n  You have reached the end of the block 1/5. If you need a short break, feel free to take one now before moving on.\n\n  <br><br>\n  In the next block, you will complete another 90 rounds of this game.\n\n  <br><br>\n  <div style='text-align: center;'>Press <code>space</code> to begin.</div>\n  <br><br>\n<div style='text-align: center;'>(If the experiment doesn't continue, try clicking on the text and then pressing <code>space</code>.)</div>", "response": " ", "trial_id": "stroop_1_ready_2", "trial_type": "html-keyboard-response", "trial_index": 94, "time_elapsed": 369024, "internal_node_id": "0.0-5.0"}}, {"uniqueid": "w61365854:a16591605", "current_trial": 95, "dateTime": 1664370314292, "trialdata": {"rt": 9600, "stimulus": "<p id='stroop-text' class='stroop-blue'>DOG</p>", "response": "b", "stimulus-type": "unrelated", "word": "DOG", "color": "blue", "correct_response": "b", "trial_id": "stroop-trial-1-unrelated-8", "trial_type": "html-keyboard-response", "trial_index": 95, "time_elapsed": 378632, "internal_node_id": "0.0-6.0-0.0"}}, {"uniqueid": "w61365854:a16591605", "current_trial": 96, "dateTime": 1664370315553, "trialdata": {"rt": 749, "stimulus": "<p id='stroop-text' class='stroop-blue'>BLUE</p>", "response": "b", "stimulus-type": "congruent", "word": "blue", "color": "blue", "correct_response": "b", "trial_id": "stroop-trial-1-congruent-4", "trial_type": "html-keyboard-response", "trial_index": 96, "time_elapsed": 379893, "internal_node_id": "0.0-6.0-1.0"}}, {"uniqueid": "w61365854:a16591605", "current_trial": 97, "dateTime": 1664370316496, "trialdata": {"rt": 435, "stimulus": "<p id='stroop-text' class='stroop-red'>RED</p>", "response": "g", "stimulus-type": "congruent", "word": "red", "color": "red", "correct_response": "r", "trial_id": "stroop-trial-1-congruent-22", "trial_type": "html-keyboard-response", "trial_index": 97, "time_elapsed": 380836, "internal_node_id": "0.0-6.0-2.0"}}, {"uniqueid": "w61365854:a16591605", "current_trial": 98, "dateTime": 1664370318404, "trialdata": {"rt": 1400, "stimulus": "<p id='stroop-text' class='stroop-green'>YELLOW</p>", "response": "g", "stimulus-type": "incongruent", "word": "yellow", "color": "green", "correct_response": "g", "trial_id": "stroop-trial-1-incongruent-9", "trial_type": "html-keyboard-response", "trial_index": 98, "time_elapsed": 382743, "internal_node_id": "0.0-6.0-3.0"}}, {"uniqueid": "w61365854:a16591605", "current_trial": 99, "dateTime": 1664370319904, "trialdata": {"rt": 994, "stimulus": "<p id='stroop-text' class='stroop-blue'>YELLOW</p>", "response": "b", "stimulus-type": "incongruent", "word": "yellow", "color": "blue", "correct_response": "b", "trial_id": "stroop-trial-1-incongruent-26", "trial_type": "html-keyboard-response", "trial_index": 99, "time_elapsed": 384244, "internal_node_id": "0.0-6.0-4.0"}}, {"uniqueid": "w61365854:a16591605", "current_trial": 100, "dateTime": 1664370322021, "trialdata": {"rt": 1609, "stimulus": "<p id='stroop-text' class='stroop-red'>RED</p>", "response": "r", "stimulus-type": "congruent", "word": "red", "color": "red", "correct_response": "r", "trial_id": "stroop-trial-1-congruent-17", "trial_type": "html-keyboard-response", "trial_index": 100, "time_elapsed": 386360, "internal_node_id": "0.0-6.0-5.0"}}, {"uniqueid": "w61365854:a16591605", "current_trial": 101, "dateTime": 1664370324305, "trialdata": {"rt": 1779, "stimulus": "<p id='stroop-text' class='stroop-yellow'>GREEN</p>", "response": "y", "stimulus-type": "incongruent", "word": "green", "color": "yellow", "correct_response": "y", "trial_id": "stroop-trial-1-incongruent-24", "trial_type": "html-keyboard-response", "trial_index": 101, "time_elapsed": 388644, "internal_node_id": "0.0-6.0-6.0"}}, {"uniqueid": "w61365854:a16591605", "current_trial": 102, "dateTime": 1664370326495, "trialdata": {"rt": 1681, "stimulus": "<p id='stroop-text' class='stroop-red'>GREEN</p>", "response": "g", "stimulus-type": "incongruent", "word": "green", "color": "red", "correct_response": "r", "trial_id": "stroop-trial-1-incongruent-8", "trial_type": "html-keyboard-response", "trial_index": 102, "time_elapsed": 390834, "internal_node_id": "0.0-6.0-7.0"}}, {"uniqueid": "w61365854:a16591605", "current_trial": 103, "dateTime": 1664370327674, "trialdata": {"rt": 675, "stimulus": "<p id='stroop-text' class='stroop-red'>RED</p>", "response": "r", "stimulus-type": "congruent", "word": "red", "color": "red", "correct_response": "r", "trial_id": "stroop-trial-1-congruent-19", "trial_type": "html-keyboard-response", "trial_index": 103, "time_elapsed": 392014, "internal_node_id": "0.0-6.0-8.0"}}, {"uniqueid": "w61365854:a16591605", "current_trial": 104, "dateTime": 1664370329054, "trialdata": {"rt": 875, "stimulus": "<p id='stroop-text' class='stroop-green'>GREEN</p>", "response": "g", "stimulus-type": "congruent", "word": "green", "color": "green", "correct_response": "g", "trial_id": "stroop-trial-1-congruent-26", "trial_type": "html-keyboard-response", "trial_index": 104, "time_elapsed": 393393, "internal_node_id": "0.0-6.0-9.0"}}, {"uniqueid": "w61365854:a16591605", "current_trial": 105, "dateTime": 1664370330274, "trialdata": {"rt": 712, "stimulus": "<p id='stroop-text' class='stroop-blue'>SHIP</p>", "response": "b", "stimulus-type": "unrelated", "word": "SHIP", "color": "blue", "correct_response": "b", "trial_id": "stroop-trial-1-unrelated-26", "trial_type": "html-keyboard-response", "trial_index": 105, "time_elapsed": 394613, "internal_node_id": "0.0-6.0-10.0"}}, {"uniqueid": "w61365854:a16591605", "current_trial": 106, "dateTime": 1664370331689, "trialdata": {"rt": 909, "stimulus": "<p id='stroop-text' class='stroop-green'>GREEN</p>", "response": "g", "stimulus-type": "congruent", "word": "green", "color": "green", "correct_response": "g", "trial_id": "stroop-trial-1-congruent-24", "trial_type": "html-keyboard-response", "trial_index": 106, "time_elapsed": 396029, "internal_node_id": "0.0-6.0-11.0"}}, {"uniqueid": "w61365854:a16591605", "current_trial": 107, "dateTime": 1664370333043, "trialdata": {"rt": 844, "stimulus": "<p id='stroop-text' class='stroop-blue'>RED</p>", "response": "b", "stimulus-type": "incongruent", "word": "red", "color": "blue", "correct_response": "b", "trial_id": "stroop-trial-1-incongruent-13", "trial_type": "html-keyboard-response", "trial_index": 107, "time_elapsed": 397383, "internal_node_id": "0.0-6.0-12.0"}}, {"uniqueid": "w61365854:a16591605", "current_trial": 108, "dateTime": 1664370336276, "trialdata": {"rt": 2726, "stimulus": "<p id='stroop-text' class='stroop-blue'>STONE</p>", "response": "b", "stimulus-type": "unrelated", "word": "STONE", "color": "blue", "correct_response": "b", "trial_id": "stroop-trial-1-unrelated-20", "trial_type": "html-keyboard-response", "trial_index": 108, "time_elapsed": 400615, "internal_node_id": "0.0-6.0-13.0"}}, {"uniqueid": "w61365854:a16591605", "current_trial": 109, "dateTime": 1664370337834, "trialdata": {"rt": 1051, "stimulus": "<p id='stroop-text' class='stroop-green'>GREEN</p>", "response": "g", "stimulus-type": "congruent", "word": "green", "color": "green", "correct_response": "g", "trial_id": "stroop-trial-1-congruent-29", "trial_type": "html-keyboard-response", "trial_index": 109, "time_elapsed": 402173, "internal_node_id": "0.0-6.0-14.0"}}, {"uniqueid": "w61365854:a16591605", "current_trial": 110, "dateTime": 1664370339631, "trialdata": {"rt": 1292, "stimulus": "<p id='stroop-text' class='stroop-yellow'>WINDOW</p>", "response": "y", "stimulus-type": "unrelated", "word": "WINDOW", "color": "yellow", "correct_response": "y", "trial_id": "stroop-trial-1-unrelated-9", "trial_type": "html-keyboard-response", "trial_index": 110, "time_elapsed": 403971, "internal_node_id": "0.0-6.0-15.0"}}, {"uniqueid": "w61365854:a16591605", "current_trial": 111, "dateTime": 1664370342481, "trialdata": {"rt": 2345, "stimulus": "<p id='stroop-text' class='stroop-red'>RED</p>", "response": "r", "stimulus-type": "congruent", "word": "red", "color": "red", "correct_response": "r", "trial_id": "stroop-trial-1-congruent-9", "trial_type": "html-keyboard-response", "trial_index": 111, "time_elapsed": 406821, "internal_node_id": "0.0-6.0-16.0"}}, {"uniqueid": "w61365854:a16591605", "current_trial": 112, "dateTime": 1664370346046, "trialdata": {"rt": 3060, "stimulus": "<p id='stroop-text' class='stroop-yellow'>GREEN</p>", "response": "y", "stimulus-type": "incongruent", "word": "green", "color": "yellow", "correct_response": "y", "trial_id": "stroop-trial-1-incongruent-18", "trial_type": "html-keyboard-response", "trial_index": 112, "time_elapsed": 410385, "internal_node_id": "0.0-6.0-17.0"}}, {"uniqueid": "w61365854:a16591605", "current_trial": 113, "dateTime": 1664370348034, "trialdata": {"rt": 1482, "stimulus": "<p id='stroop-text' class='stroop-yellow'>YELLOW</p>", "response": "y", "stimulus-type": "congruent", "word": "yellow", "color": "yellow", "correct_response": "y", "trial_id": "stroop-trial-1-congruent-15", "trial_type": "html-keyboard-response", "trial_index": 113, "time_elapsed": 412374, "internal_node_id": "0.0-6.0-18.0"}}, {"uniqueid": "w61365854:a16591605", "current_trial": 114, "dateTime": 1664370350025, "trialdata": {"rt": 1484, "stimulus": "<p id='stroop-text' class='stroop-yellow'>YELLOW</p>", "response": "y", "stimulus-type": "congruent", "word": "yellow", "color": "yellow", "correct_response": "y", "trial_id": "stroop-trial-1-congruent-16", "trial_type": "html-keyboard-response", "trial_index": 114, "time_elapsed": 414364, "internal_node_id": "0.0-6.0-19.0"}}, {"uniqueid": "w61365854:a16591605", "current_trial": 115, "dateTime": 1664370354429, "trialdata": {"rt": 3896, "stimulus": "<p id='stroop-text' class='stroop-yellow'>GREEN</p>", "response": "g", "stimulus-type": "incongruent", "word": "green", "color": "yellow", "correct_response": "y", "trial_id": "stroop-trial-1-incongruent-16", "trial_type": "html-keyboard-response", "trial_index": 115, "time_elapsed": 418768, "internal_node_id": "0.0-6.0-20.0"}}, {"uniqueid": "w61365854:a16591605", "current_trial": 116, "dateTime": 1664370356576, "trialdata": {"rt": 1642, "stimulus": "<p id='stroop-text' class='stroop-red'>RED</p>", "response": "r", "stimulus-type": "congruent", "word": "red", "color": "red", "correct_response": "r", "trial_id": "stroop-trial-1-congruent-18", "trial_type": "html-keyboard-response", "trial_index": 116, "time_elapsed": 420915, "internal_node_id": "0.0-6.0-21.0"}}, {"uniqueid": "w61365854:a16591605", "current_trial": 117, "dateTime": 1664370357846, "trialdata": {"rt": 763, "stimulus": "<p id='stroop-text' class='stroop-green'>YELLOW</p>", "response": "g", "stimulus-type": "incongruent", "word": "yellow", "color": "green", "correct_response": "g", "trial_id": "stroop-trial-1-incongruent-2", "trial_type": "html-keyboard-response", "trial_index": 117, "time_elapsed": 422185, "internal_node_id": "0.0-6.0-22.0"}}, {"uniqueid": "w61365854:a16591605", "current_trial": 118, "dateTime": 1664370363108, "trialdata": {"rt": 4755, "stimulus": "<p id='stroop-text' class='stroop-green'>BLUE</p>", "response": "b", "stimulus-type": "incongruent", "word": "blue", "color": "green", "correct_response": "g", "trial_id": "stroop-trial-1-incongruent-23", "trial_type": "html-keyboard-response", "trial_index": 118, "time_elapsed": 427448, "internal_node_id": "0.0-6.0-23.0"}}, {"uniqueid": "w61365854:a16591605", "current_trial": 119, "dateTime": 1664370364528, "trialdata": {"rt": 914, "stimulus": "<p id='stroop-text' class='stroop-green'>GREEN</p>", "response": "g", "stimulus-type": "congruent", "word": "green", "color": "green", "correct_response": "g", "trial_id": "stroop-trial-1-congruent-20", "trial_type": "html-keyboard-response", "trial_index": 119, "time_elapsed": 428867, "internal_node_id": "0.0-6.0-24.0"}}, {"uniqueid": "w61365854:a16591605", "current_trial": 120, "dateTime": 1664370366775, "trialdata": {"rt": 1741, "stimulus": "<p id='stroop-text' class='stroop-red'>GREEN</p>", "response": "r", "stimulus-type": "incongruent", "word": "green", "color": "red", "correct_response": "r", "trial_id": "stroop-trial-1-incongruent-29", "trial_type": "html-keyboard-response", "trial_index": 120, "time_elapsed": 431114, "internal_node_id": "0.0-6.0-25.0"}}, {"uniqueid": "w61365854:a16591605", "current_trial": 121, "dateTime": 1664370368082, "trialdata": {"rt": 800, "stimulus": "<p id='stroop-text' class='stroop-yellow'>YELLOW</p>", "response": "y", "stimulus-type": "congruent", "word": "yellow", "color": "yellow", "correct_response": "y", "trial_id": "stroop-trial-1-congruent-30", "trial_type": "html-keyboard-response", "trial_index": 121, "time_elapsed": 432422, "internal_node_id": "0.0-6.0-26.0"}}, {"uniqueid": "w61365854:a16591605", "current_trial": 122, "dateTime": 1664370369475, "trialdata": {"rt": 888, "stimulus": "<p id='stroop-text' class='stroop-green'>GREEN</p>", "response": "g", "stimulus-type": "congruent", "word": "green", "color": "green", "correct_response": "g", "trial_id": "stroop-trial-1-congruent-21", "trial_type": "html-keyboard-response", "trial_index": 122, "time_elapsed": 433814, "internal_node_id": "0.0-6.0-27.0"}}, {"uniqueid": "w61365854:a16591605", "current_trial": 123, "dateTime": 1664370370827, "trialdata": {"rt": 846, "stimulus": "<p id='stroop-text' class='stroop-blue'>BOTTLE</p>", "response": "b", "stimulus-type": "unrelated", "word": "BOTTLE", "color": "blue", "correct_response": "b", "trial_id": "stroop-trial-1-unrelated-11", "trial_type": "html-keyboard-response", "trial_index": 123, "time_elapsed": 435166, "internal_node_id": "0.0-6.0-28.0"}}, {"uniqueid": "w61365854:a16591605", "current_trial": 124, "dateTime": 1664370371976, "trialdata": {"rt": 642, "stimulus": "<p id='stroop-text' class='stroop-red'>RED</p>", "response": "r", "stimulus-type": "congruent", "word": "red", "color": "red", "correct_response": "r", "trial_id": "stroop-trial-1-congruent-14", "trial_type": "html-keyboard-response", "trial_index": 124, "time_elapsed": 436316, "internal_node_id": "0.0-6.0-29.0"}}, {"uniqueid": "w61365854:a16591605", "current_trial": 125, "dateTime": 1664370382798, "trialdata": {"rt": 10317, "stimulus": "<p id='stroop-text' class='stroop-blue'>BOAT</p>", "response": "b", "stimulus-type": "unrelated", "word": "BOAT", "color": "blue", "correct_response": "b", "trial_id": "stroop-trial-1-unrelated-6", "trial_type": "html-keyboard-response", "trial_index": 125, "time_elapsed": 447138, "internal_node_id": "0.0-6.0-30.0"}}, {"uniqueid": "w61365854:a16591605", "current_trial": 126, "dateTime": 1664370384416, "trialdata": {"rt": 1109, "stimulus": "<p id='stroop-text' class='stroop-yellow'>WINDOW</p>", "response": "y", "stimulus-type": "unrelated", "word": "WINDOW", "color": "yellow", "correct_response": "y", "trial_id": "stroop-trial-1-unrelated-17", "trial_type": "html-keyboard-response", "trial_index": 126, "time_elapsed": 448755, "internal_node_id": "0.0-6.0-31.0"}}, {"uniqueid": "w61365854:a16591605", "current_trial": 127, "dateTime": 1664370387995, "trialdata": {"rt": 3073, "stimulus": "<p id='stroop-text' class='stroop-green'>BOTTLE</p>", "response": "g", "stimulus-type": "unrelated", "word": "BOTTLE", "color": "green", "correct_response": "g", "trial_id": "stroop-trial-1-unrelated-13", "trial_type": "html-keyboard-response", "trial_index": 127, "time_elapsed": 452334, "internal_node_id": "0.0-6.0-32.0"}}, {"uniqueid": "w61365854:a16591605", "current_trial": 128, "dateTime": 1664370389787, "trialdata": {"rt": 1283, "stimulus": "<p id='stroop-text' class='stroop-red'>YELLOW</p>", "response": "r", "stimulus-type": "incongruent", "word": "yellow", "color": "red", "correct_response": "r", "trial_id": "stroop-trial-1-incongruent-7", "trial_type": "html-keyboard-response", "trial_index": 128, "time_elapsed": 454126, "internal_node_id": "0.0-6.0-33.0"}}, {"uniqueid": "w61365854:a16591605", "current_trial": 129, "dateTime": 1664370393003, "trialdata": {"rt": 2709, "stimulus": "<p id='stroop-text' class='stroop-red'>RED</p>", "response": "r", "stimulus-type": "congruent", "word": "red", "color": "red", "correct_response": "r", "trial_id": "stroop-trial-1-congruent-8", "trial_type": "html-keyboard-response", "trial_index": 129, "time_elapsed": 457343, "internal_node_id": "0.0-6.0-34.0"}}, {"uniqueid": "w61365854:a16591605", "current_trial": 130, "dateTime": 1664370394829, "trialdata": {"rt": 1308, "stimulus": "<p id='stroop-text' class='stroop-green'>RED</p>", "response": "g", "stimulus-type": "incongruent", "word": "red", "color": "green", "correct_response": "g", "trial_id": "stroop-trial-1-incongruent-15", "trial_type": "html-keyboard-response", "trial_index": 130, "time_elapsed": 459169, "internal_node_id": "0.0-6.0-35.0"}}, {"uniqueid": "w61365854:a16591605", "current_trial": 131, "dateTime": 1664370398194, "trialdata": {"rt": 2858, "stimulus": "<p id='stroop-text' class='stroop-yellow'>CHAIR</p>", "response": "y", "stimulus-type": "unrelated", "word": "CHAIR", "color": "yellow", "correct_response": "y", "trial_id": "stroop-trial-1-unrelated-21", "trial_type": "html-keyboard-response", "trial_index": 131, "time_elapsed": 462534, "internal_node_id": "0.0-6.0-36.0"}}, {"uniqueid": "w61365854:a16591605", "current_trial": 132, "dateTime": 1664370399425, "trialdata": {"rt": 724, "stimulus": "<p id='stroop-text' class='stroop-yellow'>RED</p>", "response": "y", "stimulus-type": "incongruent", "word": "red", "color": "yellow", "correct_response": "y", "trial_id": "stroop-trial-1-incongruent-14", "trial_type": "html-keyboard-response", "trial_index": 132, "time_elapsed": 463765, "internal_node_id": "0.0-6.0-37.0"}}, {"uniqueid": "w61365854:a16591605", "current_trial": 133, "dateTime": 1664370402295, "trialdata": {"rt": 2364, "stimulus": "<p id='stroop-text' class='stroop-red'>GREEN</p>", "response": "r", "stimulus-type": "incongruent", "word": "green", "color": "red", "correct_response": "r", "trial_id": "stroop-trial-1-incongruent-30", "trial_type": "html-keyboard-response", "trial_index": 133, "time_elapsed": 466635, "internal_node_id": "0.0-6.0-38.0"}}, {"uniqueid": "w61365854:a16591605", "current_trial": 134, "dateTime": 1664370403836, "trialdata": {"rt": 1033, "stimulus": "<p id='stroop-text' class='stroop-green'>STONE</p>", "response": "g", "stimulus-type": "unrelated", "word": "STONE", "color": "green", "correct_response": "g", "trial_id": "stroop-trial-1-unrelated-14", "trial_type": "html-keyboard-response", "trial_index": 134, "time_elapsed": 468176, "internal_node_id": "0.0-6.0-39.0"}}, {"uniqueid": "w61365854:a16591605", "current_trial": 135, "dateTime": 1664370415055, "trialdata": {"rt": 10713, "stimulus": "<p id='stroop-text' class='stroop-green'>BRAIN</p>", "response": "g", "stimulus-type": "unrelated", "word": "BRAIN", "color": "green", "correct_response": "g", "trial_id": "stroop-trial-1-unrelated-22", "trial_type": "html-keyboard-response", "trial_index": 135, "time_elapsed": 479395, "internal_node_id": "0.0-6.0-40.0"}}, {"uniqueid": "w61365854:a16591605", "current_trial": 136, "dateTime": 1664370417036, "trialdata": {"rt": 1474, "stimulus": "<p id='stroop-text' class='stroop-green'>RED</p>", "response": "r", "stimulus-type": "incongruent", "word": "red", "color": "green", "correct_response": "g", "trial_id": "stroop-trial-1-incongruent-1", "trial_type": "html-keyboard-response", "trial_index": 136, "time_elapsed": 481376, "internal_node_id": "0.0-6.0-41.0"}}, {"uniqueid": "w61365854:a16591605", "current_trial": 137, "dateTime": 1664370418816, "trialdata": {"rt": 1276, "stimulus": "<p id='stroop-text' class='stroop-blue'>BLUE</p>", "response": "b", "stimulus-type": "congruent", "word": "blue", "color": "blue", "correct_response": "b", "trial_id": "stroop-trial-1-congruent-6", "trial_type": "html-keyboard-response", "trial_index": 137, "time_elapsed": 483156, "internal_node_id": "0.0-6.0-42.0"}}, {"uniqueid": "w61365854:a16591605", "current_trial": 138, "dateTime": 1664370422930, "trialdata": {"rt": 3604, "stimulus": "<p id='stroop-text' class='stroop-blue'>BRIDGE</p>", "response": "b", "stimulus-type": "unrelated", "word": "BRIDGE", "color": "blue", "correct_response": "b", "trial_id": "stroop-trial-1-unrelated-24", "trial_type": "html-keyboard-response", "trial_index": 138, "time_elapsed": 487270, "internal_node_id": "0.0-6.0-43.0"}}, {"uniqueid": "w61365854:a16591605", "current_trial": 139, "dateTime": 1664370424437, "trialdata": {"rt": 1000, "stimulus": "<p id='stroop-text' class='stroop-green'>FORK</p>", "response": "g", "stimulus-type": "unrelated", "word": "FORK", "color": "green", "correct_response": "g", "trial_id": "stroop-trial-1-unrelated-18", "trial_type": "html-keyboard-response", "trial_index": 139, "time_elapsed": 488777, "internal_node_id": "0.0-6.0-44.0"}}, {"uniqueid": "w61365854:a16591605", "current_trial": 140, "dateTime": 1664370425550, "trialdata": {"rt": 606, "stimulus": "<p id='stroop-text' class='stroop-red'>RED</p>", "response": "r", "stimulus-type": "congruent", "word": "red", "color": "red", "correct_response": "r", "trial_id": "stroop-trial-1-congruent-11", "trial_type": "html-keyboard-response", "trial_index": 140, "time_elapsed": 489889, "internal_node_id": "0.0-6.0-45.0"}}, {"uniqueid": "w61365854:a16591605", "current_trial": 141, "dateTime": 1664370426904, "trialdata": {"rt": 848, "stimulus": "<p id='stroop-text' class='stroop-red'>BOAT</p>", "response": "r", "stimulus-type": "unrelated", "word": "BOAT", "color": "red", "correct_response": "r", "trial_id": "stroop-trial-1-unrelated-23", "trial_type": "html-keyboard-response", "trial_index": 141, "time_elapsed": 491243, "internal_node_id": "0.0-6.0-46.0"}}, {"uniqueid": "w61365854:a16591605", "current_trial": 142, "dateTime": 1664370430259, "trialdata": {"rt": 2846, "stimulus": "<p id='stroop-text' class='stroop-blue'>BRAIN</p>", "response": "b", "stimulus-type": "unrelated", "word": "BRAIN", "color": "blue", "correct_response": "b", "trial_id": "stroop-trial-1-unrelated-2", "trial_type": "html-keyboard-response", "trial_index": 142, "time_elapsed": 494599, "internal_node_id": "0.0-6.0-47.0"}}, {"uniqueid": "w61365854:a16591605", "current_trial": 143, "dateTime": 1664370431734, "trialdata": {"rt": 969, "stimulus": "<p id='stroop-text' class='stroop-yellow'>YELLOW</p>", "response": "y", "stimulus-type": "congruent", "word": "yellow", "color": "yellow", "correct_response": "y", "trial_id": "stroop-trial-1-congruent-27", "trial_type": "html-keyboard-response", "trial_index": 143, "time_elapsed": 496074, "internal_node_id": "0.0-6.0-48.0"}}, {"uniqueid": "w61365854:a16591605", "current_trial": 144, "dateTime": 1664370432856, "trialdata": {"rt": 610, "stimulus": "<p id='stroop-text' class='stroop-yellow'>GREEN</p>", "response": "y", "stimulus-type": "incongruent", "word": "green", "color": "yellow", "correct_response": "y", "trial_id": "stroop-trial-1-incongruent-19", "trial_type": "html-keyboard-response", "trial_index": 144, "time_elapsed": 497195, "internal_node_id": "0.0-6.0-49.0"}}, {"uniqueid": "w61365854:a16591605", "current_trial": 145, "dateTime": 1664370434293, "trialdata": {"rt": 929, "stimulus": "<p id='stroop-text' class='stroop-red'>DOG</p>", "response": "r", "stimulus-type": "unrelated", "word": "DOG", "color": "red", "correct_response": "r", "trial_id": "stroop-trial-1-unrelated-4", "trial_type": "html-keyboard-response", "trial_index": 145, "time_elapsed": 498632, "internal_node_id": "0.0-6.0-50.0"}}, {"uniqueid": "w61365854:a16591605", "current_trial": 146, "dateTime": 1664370435691, "trialdata": {"rt": 892, "stimulus": "<p id='stroop-text' class='stroop-red'>SHIP</p>", "response": "r", "stimulus-type": "unrelated", "word": "SHIP", "color": "red", "correct_response": "r", "trial_id": "stroop-trial-1-unrelated-3", "trial_type": "html-keyboard-response", "trial_index": 146, "time_elapsed": 500031, "internal_node_id": "0.0-6.0-51.0"}}, {"uniqueid": "w61365854:a16591605", "current_trial": 147, "dateTime": 1664370436816, "trialdata": {"rt": 619, "stimulus": "<p id='stroop-text' class='stroop-yellow'>YELLOW</p>", "response": "y", "stimulus-type": "congruent", "word": "yellow", "color": "yellow", "correct_response": "y", "trial_id": "stroop-trial-1-congruent-10", "trial_type": "html-keyboard-response", "trial_index": 147, "time_elapsed": 501155, "internal_node_id": "0.0-6.0-52.0"}}, {"uniqueid": "w61365854:a16591605", "current_trial": 148, "dateTime": 1664370438036, "trialdata": {"rt": 712, "stimulus": "<p id='stroop-text' class='stroop-blue'>RED</p>", "response": "b", "stimulus-type": "incongruent", "word": "red", "color": "blue", "correct_response": "b", "trial_id": "stroop-trial-1-incongruent-4", "trial_type": "html-keyboard-response", "trial_index": 148, "time_elapsed": 502375, "internal_node_id": "0.0-6.0-53.0"}}, {"uniqueid": "w61365854:a16591605", "current_trial": 149, "dateTime": 1664370439242, "trialdata": {"rt": 701, "stimulus": "<p id='stroop-text' class='stroop-yellow'>YELLOW</p>", "response": "y", "stimulus-type": "congruent", "word": "yellow", "color": "yellow", "correct_response": "y", "trial_id": "stroop-trial-1-congruent-5", "trial_type": "html-keyboard-response", "trial_index": 149, "time_elapsed": 503582, "internal_node_id": "0.0-6.0-54.0"}}, {"uniqueid": "w61365854:a16591605", "current_trial": 150, "dateTime": 1664370440915, "trialdata": {"rt": 1164, "stimulus": "<p id='stroop-text' class='stroop-blue'>GREEN</p>", "response": "b", "stimulus-type": "incongruent", "word": "green", "color": "blue", "correct_response": "b", "trial_id": "stroop-trial-1-incongruent-17", "trial_type": "html-keyboard-response", "trial_index": 150, "time_elapsed": 505255, "internal_node_id": "0.0-6.0-55.0"}}, {"uniqueid": "w61365854:a16591605", "current_trial": 151, "dateTime": 1664370442431, "trialdata": {"rt": 1008, "stimulus": "<p id='stroop-text' class='stroop-blue'>CHAIR</p>", "response": "b", "stimulus-type": "unrelated", "word": "CHAIR", "color": "blue", "correct_response": "b", "trial_id": "stroop-trial-1-unrelated-28", "trial_type": "html-keyboard-response", "trial_index": 151, "time_elapsed": 506770, "internal_node_id": "0.0-6.0-56.0"}}, {"uniqueid": "w61365854:a16591605", "current_trial": 152, "dateTime": 1664370444464, "trialdata": {"rt": 1527, "stimulus": "<p id='stroop-text' class='stroop-green'>WINDOW</p>", "response": "g", "stimulus-type": "unrelated", "word": "WINDOW", "color": "green", "correct_response": "g", "trial_id": "stroop-trial-1-unrelated-29", "trial_type": "html-keyboard-response", "trial_index": 152, "time_elapsed": 508803, "internal_node_id": "0.0-6.0-57.0"}}, {"uniqueid": "w61365854:a16591605", "current_trial": 153, "dateTime": 1664370446092, "trialdata": {"rt": 1118, "stimulus": "<p id='stroop-text' class='stroop-yellow'>RED</p>", "response": "y", "stimulus-type": "incongruent", "word": "red", "color": "yellow", "correct_response": "y", "trial_id": "stroop-trial-1-incongruent-27", "trial_type": "html-keyboard-response", "trial_index": 153, "time_elapsed": 510432, "internal_node_id": "0.0-6.0-58.0"}}, {"uniqueid": "w61365854:a16591605", "current_trial": 154, "dateTime": 1664370447568, "trialdata": {"rt": 970, "stimulus": "<p id='stroop-text' class='stroop-blue'>RED</p>", "response": "b", "stimulus-type": "incongruent", "word": "red", "color": "blue", "correct_response": "b", "trial_id": "stroop-trial-1-incongruent-12", "trial_type": "html-keyboard-response", "trial_index": 154, "time_elapsed": 511908, "internal_node_id": "0.0-6.0-59.0"}}, {"uniqueid": "w61365854:a16591605", "current_trial": 155, "dateTime": 1664370449059, "trialdata": {"rt": 984, "stimulus": "<p id='stroop-text' class='stroop-yellow'>SHIP</p>", "response": "y", "stimulus-type": "unrelated", "word": "SHIP", "color": "yellow", "correct_response": "y", "trial_id": "stroop-trial-1-unrelated-10", "trial_type": "html-keyboard-response", "trial_index": 155, "time_elapsed": 513398, "internal_node_id": "0.0-6.0-60.0"}}, {"uniqueid": "w61365854:a16591605", "current_trial": 156, "dateTime": 1664370450730, "trialdata": {"rt": 1166, "stimulus": "<p id='stroop-text' class='stroop-red'>RED</p>", "response": "r", "stimulus-type": "congruent", "word": "red", "color": "red", "correct_response": "r", "trial_id": "stroop-trial-1-congruent-2", "trial_type": "html-keyboard-response", "trial_index": 156, "time_elapsed": 515070, "internal_node_id": "0.0-6.0-61.0"}}, {"uniqueid": "w61365854:a16591605", "current_trial": 157, "dateTime": 1664370451881, "trialdata": {"rt": 645, "stimulus": "<p id='stroop-text' class='stroop-red'>MONKEY</p>", "response": "r", "stimulus-type": "unrelated", "word": "MONKEY", "color": "red", "correct_response": "r", "trial_id": "stroop-trial-1-unrelated-15", "trial_type": "html-keyboard-response", "trial_index": 157, "time_elapsed": 516220, "internal_node_id": "0.0-6.0-62.0"}}, {"uniqueid": "w61365854:a16591605", "current_trial": 158, "dateTime": 1664370453119, "trialdata": {"rt": 728, "stimulus": "<p id='stroop-text' class='stroop-blue'>BRAIN</p>", "response": "b", "stimulus-type": "unrelated", "word": "BRAIN", "color": "blue", "correct_response": "b", "trial_id": "stroop-trial-1-unrelated-16", "trial_type": "html-keyboard-response", "trial_index": 158, "time_elapsed": 517458, "internal_node_id": "0.0-6.0-63.0"}}, {"uniqueid": "w61365854:a16591605", "current_trial": 159, "dateTime": 1664370454477, "trialdata": {"rt": 853, "stimulus": "<p id='stroop-text' class='stroop-green'>STONE</p>", "response": "g", "stimulus-type": "unrelated", "word": "STONE", "color": "green", "correct_response": "g", "trial_id": "stroop-trial-1-unrelated-25", "trial_type": "html-keyboard-response", "trial_index": 159, "time_elapsed": 518817, "internal_node_id": "0.0-6.0-64.0"}}, {"uniqueid": "w61365854:a16591605", "current_trial": 160, "dateTime": 1664370455426, "trialdata": {"rt": 445, "stimulus": "<p id='stroop-text' class='stroop-green'>GREEN</p>", "response": "g", "stimulus-type": "congruent", "word": "green", "color": "green", "correct_response": "g", "trial_id": "stroop-trial-1-congruent-23", "trial_type": "html-keyboard-response", "trial_index": 160, "time_elapsed": 519766, "internal_node_id": "0.0-6.0-65.0"}}, {"uniqueid": "w61365854:a16591605", "current_trial": 161, "dateTime": 1664370456565, "trialdata": {"rt": 631, "stimulus": "<p id='stroop-text' class='stroop-red'>STONE</p>", "response": "r", "stimulus-type": "unrelated", "word": "STONE", "color": "red", "correct_response": "r", "trial_id": "stroop-trial-1-unrelated-1", "trial_type": "html-keyboard-response", "trial_index": 161, "time_elapsed": 520905, "internal_node_id": "0.0-6.0-66.0"}}, {"uniqueid": "w61365854:a16591605", "current_trial": 162, "dateTime": 1664370457702, "trialdata": {"rt": 630, "stimulus": "<p id='stroop-text' class='stroop-blue'>RED</p>", "response": "b", "stimulus-type": "incongruent", "word": "red", "color": "blue", "correct_response": "b", "trial_id": "stroop-trial-1-incongruent-3", "trial_type": "html-keyboard-response", "trial_index": 162, "time_elapsed": 522041, "internal_node_id": "0.0-6.0-67.0"}}, {"uniqueid": "w61365854:a16591605", "current_trial": 163, "dateTime": 1664370459104, "trialdata": {"rt": 894, "stimulus": "<p id='stroop-text' class='stroop-yellow'>DOG</p>", "response": "y", "stimulus-type": "unrelated", "word": "DOG", "color": "yellow", "correct_response": "y", "trial_id": "stroop-trial-1-unrelated-7", "trial_type": "html-keyboard-response", "trial_index": 163, "time_elapsed": 523444, "internal_node_id": "0.0-6.0-68.0"}}, {"uniqueid": "w61365854:a16591605", "current_trial": 164, "dateTime": 1664370460601, "trialdata": {"rt": 988, "stimulus": "<p id='stroop-text' class='stroop-red'>RED</p>", "response": "r", "stimulus-type": "congruent", "word": "red", "color": "red", "correct_response": "r", "trial_id": "stroop-trial-1-congruent-12", "trial_type": "html-keyboard-response", "trial_index": 164, "time_elapsed": 524940, "internal_node_id": "0.0-6.0-69.0"}}, {"uniqueid": "w61365854:a16591605", "current_trial": 165, "dateTime": 1664370461860, "trialdata": {"rt": 751, "stimulus": "<p id='stroop-text' class='stroop-green'>DOG</p>", "response": "g", "stimulus-type": "unrelated", "word": "DOG", "color": "green", "correct_response": "g", "trial_id": "stroop-trial-1-unrelated-30", "trial_type": "html-keyboard-response", "trial_index": 165, "time_elapsed": 526199, "internal_node_id": "0.0-6.0-70.0"}}, {"uniqueid": "w61365854:a16591605", "current_trial": 166, "dateTime": 1664370462886, "trialdata": {"rt": 516, "stimulus": "<p id='stroop-text' class='stroop-green'>GREEN</p>", "response": "g", "stimulus-type": "congruent", "word": "green", "color": "green", "correct_response": "g", "trial_id": "stroop-trial-1-congruent-28", "trial_type": "html-keyboard-response", "trial_index": 166, "time_elapsed": 527225, "internal_node_id": "0.0-6.0-71.0"}}, {"uniqueid": "w61365854:a16591605", "current_trial": 167, "dateTime": 1664370463984, "trialdata": {"rt": 593, "stimulus": "<p id='stroop-text' class='stroop-yellow'>RED</p>", "response": "y", "stimulus-type": "incongruent", "word": "red", "color": "yellow", "correct_response": "y", "trial_id": "stroop-trial-1-incongruent-5", "trial_type": "html-keyboard-response", "trial_index": 167, "time_elapsed": 528324, "internal_node_id": "0.0-6.0-72.0"}}, {"uniqueid": "w61365854:a16591605", "current_trial": 168, "dateTime": 1664370465521, "trialdata": {"rt": 1032, "stimulus": "<p id='stroop-text' class='stroop-blue'>RED</p>", "response": "b", "stimulus-type": "incongruent", "word": "red", "color": "blue", "correct_response": "b", "trial_id": "stroop-trial-1-incongruent-21", "trial_type": "html-keyboard-response", "trial_index": 168, "time_elapsed": 529860, "internal_node_id": "0.0-6.0-73.0"}}, {"uniqueid": "w61365854:a16591605", "current_trial": 169, "dateTime": 1664370467177, "trialdata": {"rt": 1150, "stimulus": "<p id='stroop-text' class='stroop-green'>YELLOW</p>", "response": "g", "stimulus-type": "incongruent", "word": "yellow", "color": "green", "correct_response": "g", "trial_id": "stroop-trial-1-incongruent-11", "trial_type": "html-keyboard-response", "trial_index": 169, "time_elapsed": 531517, "internal_node_id": "0.0-6.0-74.0"}}, {"uniqueid": "w61365854:a16591605", "current_trial": 170, "dateTime": 1664370470606, "trialdata": {"rt": 2922, "stimulus": "<p id='stroop-text' class='stroop-yellow'>YELLOW</p>", "response": "y", "stimulus-type": "congruent", "word": "yellow", "color": "yellow", "correct_response": "y", "trial_id": "stroop-trial-1-congruent-25", "trial_type": "html-keyboard-response", "trial_index": 170, "time_elapsed": 534946, "internal_node_id": "0.0-6.0-75.0"}}, {"uniqueid": "w61365854:a16591605", "current_trial": 171, "dateTime": 1664370473697, "trialdata": {"rt": 2585, "stimulus": "<p id='stroop-text' class='stroop-green'>RED</p>", "response": "g", "stimulus-type": "incongruent", "word": "red", "color": "green", "correct_response": "g", "trial_id": "stroop-trial-1-incongruent-20", "trial_type": "html-keyboard-response", "trial_index": 171, "time_elapsed": 538037, "internal_node_id": "0.0-6.0-76.0"}}, {"uniqueid": "w61365854:a16591605", "current_trial": 172, "dateTime": 1664370475128, "trialdata": {"rt": 923, "stimulus": "<p id='stroop-text' class='stroop-red'>RED</p>", "response": "r", "stimulus-type": "congruent", "word": "red", "color": "red", "correct_response": "r", "trial_id": "stroop-trial-1-congruent-3", "trial_type": "html-keyboard-response", "trial_index": 172, "time_elapsed": 539468, "internal_node_id": "0.0-6.0-77.0"}}, {"uniqueid": "w61365854:a16591605", "current_trial": 173, "dateTime": 1664370478306, "trialdata": {"rt": 2671, "stimulus": "<p id='stroop-text' class='stroop-blue'>BRIDGE</p>", "response": "b", "stimulus-type": "unrelated", "word": "BRIDGE", "color": "blue", "correct_response": "b", "trial_id": "stroop-trial-1-unrelated-5", "trial_type": "html-keyboard-response", "trial_index": 173, "time_elapsed": 542646, "internal_node_id": "0.0-6.0-78.0"}}, {"uniqueid": "w61365854:a16591605", "current_trial": 174, "dateTime": 1664370480020, "trialdata": {"rt": 1206, "stimulus": "<p id='stroop-text' class='stroop-red'>RED</p>", "response": "r", "stimulus-type": "congruent", "word": "red", "color": "red", "correct_response": "r", "trial_id": "stroop-trial-1-congruent-7", "trial_type": "html-keyboard-response", "trial_index": 174, "time_elapsed": 544359, "internal_node_id": "0.0-6.0-79.0"}}, {"uniqueid": "w61365854:a16591605", "current_trial": 175, "dateTime": 1664370481208, "trialdata": {"rt": 678, "stimulus": "<p id='stroop-text' class='stroop-red'>BRIDGE</p>", "response": "r", "stimulus-type": "unrelated", "word": "BRIDGE", "color": "red", "correct_response": "r", "trial_id": "stroop-trial-1-unrelated-27", "trial_type": "html-keyboard-response", "trial_index": 175, "time_elapsed": 545547, "internal_node_id": "0.0-6.0-80.0"}}, {"uniqueid": "w61365854:a16591605", "current_trial": 176, "dateTime": 1664370482677, "trialdata": {"rt": 958, "stimulus": "<p id='stroop-text' class='stroop-green'>BLUE</p>", "response": "g", "stimulus-type": "incongruent", "word": "blue", "color": "green", "correct_response": "g", "trial_id": "stroop-trial-1-incongruent-25", "trial_type": "html-keyboard-response", "trial_index": 176, "time_elapsed": 547016, "internal_node_id": "0.0-6.0-81.0"}}, {"uniqueid": "w61365854:a16591605", "current_trial": 177, "dateTime": 1664370484116, "trialdata": {"rt": 933, "stimulus": "<p id='stroop-text' class='stroop-blue'>RED</p>", "response": "b", "stimulus-type": "incongruent", "word": "red", "color": "blue", "correct_response": "b", "trial_id": "stroop-trial-1-incongruent-22", "trial_type": "html-keyboard-response", "trial_index": 177, "time_elapsed": 548455, "internal_node_id": "0.0-6.0-82.0"}}, {"uniqueid": "w61365854:a16591605", "current_trial": 178, "dateTime": 1664370485306, "trialdata": {"rt": 684, "stimulus": "<p id='stroop-text' class='stroop-yellow'>BOAT</p>", "response": "y", "stimulus-type": "unrelated", "word": "BOAT", "color": "yellow", "correct_response": "y", "trial_id": "stroop-trial-1-unrelated-12", "trial_type": "html-keyboard-response", "trial_index": 178, "time_elapsed": 549646, "internal_node_id": "0.0-6.0-83.0"}}, {"uniqueid": "w61365854:a16591605", "current_trial": 179, "dateTime": 1664370487066, "trialdata": {"rt": 1253, "stimulus": "<p id='stroop-text' class='stroop-green'>BLUE</p>", "response": "g", "stimulus-type": "incongruent", "word": "blue", "color": "green", "correct_response": "g", "trial_id": "stroop-trial-1-incongruent-28", "trial_type": "html-keyboard-response", "trial_index": 179, "time_elapsed": 551406, "internal_node_id": "0.0-6.0-84.0"}}, {"uniqueid": "w61365854:a16591605", "current_trial": 180, "dateTime": 1664370489827, "trialdata": {"rt": 2255, "stimulus": "<p id='stroop-text' class='stroop-blue'>RED</p>", "response": "b", "stimulus-type": "incongruent", "word": "red", "color": "blue", "correct_response": "b", "trial_id": "stroop-trial-1-incongruent-6", "trial_type": "html-keyboard-response", "trial_index": 180, "time_elapsed": 554167, "internal_node_id": "0.0-6.0-85.0"}}, {"uniqueid": "w61365854:a16591605", "current_trial": 181, "dateTime": 1664370491732, "trialdata": {"rt": 1401, "stimulus": "<p id='stroop-text' class='stroop-red'>RED</p>", "response": "r", "stimulus-type": "congruent", "word": "red", "color": "red", "correct_response": "r", "trial_id": "stroop-trial-1-congruent-13", "trial_type": "html-keyboard-response", "trial_index": 181, "time_elapsed": 556072, "internal_node_id": "0.0-6.0-86.0"}}, {"uniqueid": "w61365854:a16591605", "current_trial": 182, "dateTime": 1664370492804, "trialdata": {"rt": 564, "stimulus": "<p id='stroop-text' class='stroop-green'>GREEN</p>", "response": "g", "stimulus-type": "congruent", "word": "green", "color": "green", "correct_response": "g", "trial_id": "stroop-trial-1-congruent-1", "trial_type": "html-keyboard-response", "trial_index": 182, "time_elapsed": 557143, "internal_node_id": "0.0-6.0-87.0"}}, {"uniqueid": "w61365854:a16591605", "current_trial": 183, "dateTime": 1664370494929, "trialdata": {"rt": 1615, "stimulus": "<p id='stroop-text' class='stroop-red'>GREEN</p>", "response": "r", "stimulus-type": "incongruent", "word": "green", "color": "red", "correct_response": "r", "trial_id": "stroop-trial-1-incongruent-10", "trial_type": "html-keyboard-response", "trial_index": 183, "time_elapsed": 559268, "internal_node_id": "0.0-6.0-88.0"}}, {"uniqueid": "w61365854:a16591605", "current_trial": 184, "dateTime": 1664370496069, "trialdata": {"rt": 633, "stimulus": "<p id='stroop-text' class='stroop-blue'>BOAT</p>", "response": "b", "stimulus-type": "unrelated", "word": "BOAT", "color": "blue", "correct_response": "b", "trial_id": "stroop-trial-1-unrelated-19", "trial_type": "html-keyboard-response", "trial_index": 184, "time_elapsed": 560408, "internal_node_id": "0.0-6.0-89.0"}}, {"uniqueid": "w61365854:a16591605", "current_trial": 185, "dateTime": 1664370498707, "trialdata": {"rt": 2130, "stimulus": "  <h1> End of block! </h1>\n\n  You have reached the end of the block 2/5. If you need a short break, feel free to take one now before moving on.\n\n  <br><br>\n  In the next block, you will complete another 90 rounds of this game.\n\n  <br><br>\n  <div style='text-align: center;'>Press <code>space</code> to begin.</div>\n  <br><br>\n<div style='text-align: center;'>(If the experiment doesn't continue, try clicking on the text and then pressing <code>space</code>.)</div>", "response": " ", "trial_id": "stroop_1_ready_3", "trial_type": "html-keyboard-response", "trial_index": 185, "time_elapsed": 563047, "internal_node_id": "0.0-7.0"}}, {"uniqueid": "w61365854:a16591605", "current_trial": 186, "dateTime": 1664370500503, "trialdata": {"rt": 1789, "stimulus": "<p id='stroop-text' class='stroop-red'>RED</p>", "response": "r", "stimulus-type": "congruent", "word": "red", "color": "red", "correct_response": "r", "trial_id": "stroop-trial-1-congruent-4", "trial_type": "html-keyboard-response", "trial_index": 186, "time_elapsed": 564843, "internal_node_id": "0.0-8.0-0.0"}}, {"uniqueid": "w61365854:a16591605", "current_trial": 187, "dateTime": 1664370501611, "trialdata": {"rt": 602, "stimulus": "<p id='stroop-text' class='stroop-blue'>BRAIN</p>", "response": "b", "stimulus-type": "unrelated", "word": "BRAIN", "color": "blue", "correct_response": "b", "trial_id": "stroop-trial-1-unrelated-8", "trial_type": "html-keyboard-response", "trial_index": 187, "time_elapsed": 565950, "internal_node_id": "0.0-8.0-1.0"}}, {"uniqueid": "w61365854:a16591605", "current_trial": 188, "dateTime": 1664370502532, "trialdata": {"rt": 415, "stimulus": "<p id='stroop-text' class='stroop-green'>GREEN</p>", "response": "g", "stimulus-type": "congruent", "word": "green", "color": "green", "correct_response": "g", "trial_id": "stroop-trial-1-congruent-16", "trial_type": "html-keyboard-response", "trial_index": 188, "time_elapsed": 566871, "internal_node_id": "0.0-8.0-2.0"}}, {"uniqueid": "w61365854:a16591605", "current_trial": 189, "dateTime": 1664370503542, "trialdata": {"rt": 504, "stimulus": "<p id='stroop-text' class='stroop-green'>RED</p>", "response": "g", "stimulus-type": "incongruent", "word": "red", "color": "green", "correct_response": "g", "trial_id": "stroop-trial-1-incongruent-9", "trial_type": "html-keyboard-response", "trial_index": 189, "time_elapsed": 567881, "internal_node_id": "0.0-8.0-3.0"}}, {"uniqueid": "w61365854:a16591605", "current_trial": 190, "dateTime": 1664370505790, "trialdata": {"rt": 1742, "stimulus": "<p id='stroop-text' class='stroop-blue'>YELLOW</p>", "response": "b", "stimulus-type": "incongruent", "word": "yellow", "color": "blue", "correct_response": "b", "trial_id": "stroop-trial-1-incongruent-16", "trial_type": "html-keyboard-response", "trial_index": 190, "time_elapsed": 570130, "internal_node_id": "0.0-8.0-4.0"}}, {"uniqueid": "w61365854:a16591605", "current_trial": 191, "dateTime": 1664370507024, "trialdata": {"rt": 726, "stimulus": "<p id='stroop-text' class='stroop-yellow'>RED</p>", "response": "y", "stimulus-type": "incongruent", "word": "red", "color": "yellow", "correct_response": "y", "trial_id": "stroop-trial-1-incongruent-22", "trial_type": "html-keyboard-response", "trial_index": 191, "time_elapsed": 571363, "internal_node_id": "0.0-8.0-5.0"}}, {"uniqueid": "w61365854:a16591605", "current_trial": 192, "dateTime": 1664370508262, "trialdata": {"rt": 729, "stimulus": "<p id='stroop-text' class='stroop-green'>GREEN</p>", "response": "g", "stimulus-type": "congruent", "word": "green", "color": "green", "correct_response": "g", "trial_id": "stroop-trial-1-congruent-26", "trial_type": "html-keyboard-response", "trial_index": 192, "time_elapsed": 572601, "internal_node_id": "0.0-8.0-6.0"}}, {"uniqueid": "w61365854:a16591605", "current_trial": 193, "dateTime": 1664370509907, "trialdata": {"rt": 1140, "stimulus": "<p id='stroop-text' class='stroop-green'>DOG</p>", "response": "g", "stimulus-type": "unrelated", "word": "DOG", "color": "green", "correct_response": "g", "trial_id": "stroop-trial-1-unrelated-11", "trial_type": "html-keyboard-response", "trial_index": 193, "time_elapsed": 574247, "internal_node_id": "0.0-8.0-7.0"}}, {"uniqueid": "w61365854:a16591605", "current_trial": 194, "dateTime": 1664370511201, "trialdata": {"rt": 789, "stimulus": "<p id='stroop-text' class='stroop-yellow'>YELLOW</p>", "response": "y", "stimulus-type": "congruent", "word": "yellow", "color": "yellow", "correct_response": "y", "trial_id": "stroop-trial-1-congruent-24", "trial_type": "html-keyboard-response", "trial_index": 194, "time_elapsed": 575541, "internal_node_id": "0.0-8.0-8.0"}}, {"uniqueid": "w61365854:a16591605", "current_trial": 195, "dateTime": 1664370513910, "trialdata": {"rt": 2202, "stimulus": "<p id='stroop-text' class='stroop-green'>GREEN</p>", "response": "g", "stimulus-type": "congruent", "word": "green", "color": "green", "correct_response": "g", "trial_id": "stroop-trial-1-congruent-20", "trial_type": "html-keyboard-response", "trial_index": 195, "time_elapsed": 578250, "internal_node_id": "0.0-8.0-9.0"}}, {"uniqueid": "w61365854:a16591605", "current_trial": 196, "dateTime": 1664370515280, "trialdata": {"rt": 860, "stimulus": "<p id='stroop-text' class='stroop-red'>RED</p>", "response": "r", "stimulus-type": "congruent", "word": "red", "color": "red", "correct_response": "r", "trial_id": "stroop-trial-1-congruent-7", "trial_type": "html-keyboard-response", "trial_index": 196, "time_elapsed": 579620, "internal_node_id": "0.0-8.0-10.0"}}, {"uniqueid": "w61365854:a16591605", "current_trial": 197, "dateTime": 1664370516401, "trialdata": {"rt": 612, "stimulus": "<p id='stroop-text' class='stroop-yellow'>YELLOW</p>", "response": "y", "stimulus-type": "congruent", "word": "yellow", "color": "yellow", "correct_response": "y", "trial_id": "stroop-trial-1-congruent-3", "trial_type": "html-keyboard-response", "trial_index": 197, "time_elapsed": 580740, "internal_node_id": "0.0-8.0-11.0"}}, {"uniqueid": "w61365854:a16591605", "current_trial": 198, "dateTime": 1664370517536, "trialdata": {"rt": 627, "stimulus": "<p id='stroop-text' class='stroop-blue'>GREEN</p>", "response": "b", "stimulus-type": "incongruent", "word": "green", "color": "blue", "correct_response": "b", "trial_id": "stroop-trial-1-incongruent-13", "trial_type": "html-keyboard-response", "trial_index": 198, "time_elapsed": 581875, "internal_node_id": "0.0-8.0-12.0"}}, {"uniqueid": "w61365854:a16591605", "current_trial": 199, "dateTime": 1664370518719, "trialdata": {"rt": 675, "stimulus": "<p id='stroop-text' class='stroop-yellow'>YELLOW</p>", "response": "y", "stimulus-type": "congruent", "word": "yellow", "color": "yellow", "correct_response": "y", "trial_id": "stroop-trial-1-congruent-12", "trial_type": "html-keyboard-response", "trial_index": 199, "time_elapsed": 583058, "internal_node_id": "0.0-8.0-13.0"}}, {"uniqueid": "w61365854:a16591605", "current_trial": 200, "dateTime": 1664370520575, "trialdata": {"rt": 1349, "stimulus": "<p id='stroop-text' class='stroop-red'>GREEN</p>", "response": "r", "stimulus-type": "incongruent", "word": "green", "color": "red", "correct_response": "r", "trial_id": "stroop-trial-1-incongruent-10", "trial_type": "html-keyboard-response", "trial_index": 200, "time_elapsed": 584915, "internal_node_id": "0.0-8.0-14.0"}}, {"uniqueid": "w61365854:a16591605", "current_trial": 201, "dateTime": 1664370522080, "trialdata": {"rt": 994, "stimulus": "<p id='stroop-text' class='stroop-yellow'>MONKEY</p>", "response": "y", "stimulus-type": "unrelated", "word": "MONKEY", "color": "yellow", "correct_response": "y", "trial_id": "stroop-trial-1-unrelated-5", "trial_type": "html-keyboard-response", "trial_index": 201, "time_elapsed": 586417, "internal_node_id": "0.0-8.0-15.0"}}, {"uniqueid": "w61365854:a16591605", "current_trial": 202, "dateTime": 1664370523353, "trialdata": {"rt": 765, "stimulus": "<p id='stroop-text' class='stroop-green'>BOAT</p>", "response": "g", "stimulus-type": "unrelated", "word": "BOAT", "color": "green", "correct_response": "g", "trial_id": "stroop-trial-1-unrelated-12", "trial_type": "html-keyboard-response", "trial_index": 202, "time_elapsed": 587692, "internal_node_id": "0.0-8.0-16.0"}}, {"uniqueid": "w61365854:a16591605", "current_trial": 203, "dateTime": 1664370525212, "trialdata": {"rt": 1352, "stimulus": "<p id='stroop-text' class='stroop-green'>YELLOW</p>", "response": "g", "stimulus-type": "incongruent", "word": "yellow", "color": "green", "correct_response": "g", "trial_id": "stroop-trial-1-incongruent-24", "trial_type": "html-keyboard-response", "trial_index": 203, "time_elapsed": 589552, "internal_node_id": "0.0-8.0-17.0"}}, {"uniqueid": "w61365854:a16591605", "current_trial": 204, "dateTime": 1664370526869, "trialdata": {"rt": 1151, "stimulus": "<p id='stroop-text' class='stroop-red'>BLUE</p>", "response": "r", "stimulus-type": "incongruent", "word": "blue", "color": "red", "correct_response": "r", "trial_id": "stroop-trial-1-incongruent-18", "trial_type": "html-keyboard-response", "trial_index": 204, "time_elapsed": 591209, "internal_node_id": "0.0-8.0-18.0"}}, {"uniqueid": "w61365854:a16591605", "current_trial": 205, "dateTime": 1664370528361, "trialdata": {"rt": 984, "stimulus": "<p id='stroop-text' class='stroop-blue'>GREEN</p>", "response": "b", "stimulus-type": "incongruent", "word": "green", "color": "blue", "correct_response": "b", "trial_id": "stroop-trial-1-incongruent-29", "trial_type": "html-keyboard-response", "trial_index": 205, "time_elapsed": 592701, "internal_node_id": "0.0-8.0-19.0"}}, {"uniqueid": "w61365854:a16591605", "current_trial": 206, "dateTime": 1664370529679, "trialdata": {"rt": 811, "stimulus": "<p id='stroop-text' class='stroop-green'>BOAT</p>", "response": "g", "stimulus-type": "unrelated", "word": "BOAT", "color": "green", "correct_response": "g", "trial_id": "stroop-trial-1-unrelated-10", "trial_type": "html-keyboard-response", "trial_index": 206, "time_elapsed": 594018, "internal_node_id": "0.0-8.0-20.0"}}, {"uniqueid": "w61365854:a16591605", "current_trial": 207, "dateTime": 1664370530933, "trialdata": {"rt": 747, "stimulus": "<p id='stroop-text' class='stroop-yellow'>BLUE</p>", "response": "y", "stimulus-type": "incongruent", "word": "blue", "color": "yellow", "correct_response": "y", "trial_id": "stroop-trial-1-incongruent-30", "trial_type": "html-keyboard-response", "trial_index": 207, "time_elapsed": 595273, "internal_node_id": "0.0-8.0-21.0"}}, {"uniqueid": "w61365854:a16591605", "current_trial": 208, "dateTime": 1664370532289, "trialdata": {"rt": 846, "stimulus": "<p id='stroop-text' class='stroop-green'>YELLOW</p>", "response": "g", "stimulus-type": "incongruent", "word": "yellow", "color": "green", "correct_response": "g", "trial_id": "stroop-trial-1-incongruent-17", "trial_type": "html-keyboard-response", "trial_index": 208, "time_elapsed": 596629, "internal_node_id": "0.0-8.0-22.0"}}, {"uniqueid": "w61365854:a16591605", "current_trial": 209, "dateTime": 1664370533643, "trialdata": {"rt": 846, "stimulus": "<p id='stroop-text' class='stroop-blue'>STONE</p>", "response": "b", "stimulus-type": "unrelated", "word": "STONE", "color": "blue", "correct_response": "b", "trial_id": "stroop-trial-1-unrelated-30", "trial_type": "html-keyboard-response", "trial_index": 209, "time_elapsed": 597982, "internal_node_id": "0.0-8.0-23.0"}}, {"uniqueid": "w61365854:a16591605", "current_trial": 210, "dateTime": 1664370534765, "trialdata": {"rt": 617, "stimulus": "<p id='stroop-text' class='stroop-yellow'>BOAT</p>", "response": "y", "stimulus-type": "unrelated", "word": "BOAT", "color": "yellow", "correct_response": "y", "trial_id": "stroop-trial-1-unrelated-13", "trial_type": "html-keyboard-response", "trial_index": 210, "time_elapsed": 599105, "internal_node_id": "0.0-8.0-24.0"}}, {"uniqueid": "w61365854:a16591605", "current_trial": 211, "dateTime": 1664370535804, "trialdata": {"rt": 531, "stimulus": "<p id='stroop-text' class='stroop-red'>RED</p>", "response": "r", "stimulus-type": "congruent", "word": "red", "color": "red", "correct_response": "r", "trial_id": "stroop-trial-1-congruent-8", "trial_type": "html-keyboard-response", "trial_index": 211, "time_elapsed": 600143, "internal_node_id": "0.0-8.0-25.0"}}, {"uniqueid": "w61365854:a16591605", "current_trial": 212, "dateTime": 1664370537531, "trialdata": {"rt": 1206, "stimulus": "<p id='stroop-text' class='stroop-green'>CHAIR</p>", "response": "g", "stimulus-type": "unrelated", "word": "CHAIR", "color": "green", "correct_response": "g", "trial_id": "stroop-trial-1-unrelated-3", "trial_type": "html-keyboard-response", "trial_index": 212, "time_elapsed": 601871, "internal_node_id": "0.0-8.0-26.0"}}, {"uniqueid": "w61365854:a16591605", "current_trial": 213, "dateTime": 1664370538773, "trialdata": {"rt": 734, "stimulus": "<p id='stroop-text' class='stroop-red'>RED</p>", "response": "y", "stimulus-type": "congruent", "word": "red", "color": "red", "correct_response": "r", "trial_id": "stroop-trial-1-congruent-10", "trial_type": "html-keyboard-response", "trial_index": 213, "time_elapsed": 603112, "internal_node_id": "0.0-8.0-27.0"}}, {"uniqueid": "w61365854:a16591605", "current_trial": 214, "dateTime": 1664370540044, "trialdata": {"rt": 764, "stimulus": "<p id='stroop-text' class='stroop-yellow'>YELLOW</p>", "response": "y", "stimulus-type": "congruent", "word": "yellow", "color": "yellow", "correct_response": "y", "trial_id": "stroop-trial-1-congruent-13", "trial_type": "html-keyboard-response", "trial_index": 214, "time_elapsed": 604383, "internal_node_id": "0.0-8.0-28.0"}}, {"uniqueid": "w61365854:a16591605", "current_trial": 215, "dateTime": 1664370541646, "trialdata": {"rt": 1092, "stimulus": "<p id='stroop-text' class='stroop-red'>WINDOW</p>", "response": "r", "stimulus-type": "unrelated", "word": "WINDOW", "color": "red", "correct_response": "r", "trial_id": "stroop-trial-1-unrelated-22", "trial_type": "html-keyboard-response", "trial_index": 215, "time_elapsed": 605986, "internal_node_id": "0.0-8.0-29.0"}}, {"uniqueid": "w61365854:a16591605", "current_trial": 216, "dateTime": 1664370542794, "trialdata": {"rt": 640, "stimulus": "<p id='stroop-text' class='stroop-blue'>YELLOW</p>", "response": "b", "stimulus-type": "incongruent", "word": "yellow", "color": "blue", "correct_response": "b", "trial_id": "stroop-trial-1-incongruent-25", "trial_type": "html-keyboard-response", "trial_index": 216, "time_elapsed": 607133, "internal_node_id": "0.0-8.0-30.0"}}, {"uniqueid": "w61365854:a16591605", "current_trial": 217, "dateTime": 1664370544025, "trialdata": {"rt": 723, "stimulus": "<p id='stroop-text' class='stroop-blue'>BLUE</p>", "response": "b", "stimulus-type": "congruent", "word": "blue", "color": "blue", "correct_response": "b", "trial_id": "stroop-trial-1-congruent-14", "trial_type": "html-keyboard-response", "trial_index": 217, "time_elapsed": 608364, "internal_node_id": "0.0-8.0-31.0"}}, {"uniqueid": "w61365854:a16591605", "current_trial": 218, "dateTime": 1664370545252, "trialdata": {"rt": 721, "stimulus": "<p id='stroop-text' class='stroop-red'>FORK</p>", "response": "r", "stimulus-type": "unrelated", "word": "FORK", "color": "red", "correct_response": "r", "trial_id": "stroop-trial-1-unrelated-21", "trial_type": "html-keyboard-response", "trial_index": 218, "time_elapsed": 609592, "internal_node_id": "0.0-8.0-32.0"}}, {"uniqueid": "w61365854:a16591605", "current_trial": 219, "dateTime": 1664370546366, "trialdata": {"rt": 606, "stimulus": "<p id='stroop-text' class='stroop-yellow'>YELLOW</p>", "response": "y", "stimulus-type": "congruent", "word": "yellow", "color": "yellow", "correct_response": "y", "trial_id": "stroop-trial-1-congruent-17", "trial_type": "html-keyboard-response", "trial_index": 219, "time_elapsed": 610705, "internal_node_id": "0.0-8.0-33.0"}}, {"uniqueid": "w61365854:a16591605", "current_trial": 220, "dateTime": 1664370547751, "trialdata": {"rt": 876, "stimulus": "<p id='stroop-text' class='stroop-green'>RED</p>", "response": "g", "stimulus-type": "incongruent", "word": "red", "color": "green", "correct_response": "g", "trial_id": "stroop-trial-1-incongruent-3", "trial_type": "html-keyboard-response", "trial_index": 220, "time_elapsed": 612090, "internal_node_id": "0.0-8.0-34.0"}}, {"uniqueid": "w61365854:a16591605", "current_trial": 221, "dateTime": 1664370548917, "trialdata": {"rt": 656, "stimulus": "<p id='stroop-text' class='stroop-red'>SHIP</p>", "response": "r", "stimulus-type": "unrelated", "word": "SHIP", "color": "red", "correct_response": "r", "trial_id": "stroop-trial-1-unrelated-20", "trial_type": "html-keyboard-response", "trial_index": 221, "time_elapsed": 613256, "internal_node_id": "0.0-8.0-35.0"}}, {"uniqueid": "w61365854:a16591605", "current_trial": 222, "dateTime": 1664370550235, "trialdata": {"rt": 809, "stimulus": "<p id='stroop-text' class='stroop-blue'>MONKEY</p>", "response": "b", "stimulus-type": "unrelated", "word": "MONKEY", "color": "blue", "correct_response": "b", "trial_id": "stroop