{"condition": 0, "counterbalance": 0, "assignmentId": "a98987745", "workerId": "w65617881", "hitId": "h33830520", "currenttrial": 971, "bonus": 0, "data": [{"uniqueid": "w65617881:a98987745", "current_trial": 0, "dateTime": 1664873094093, "trialdata": {"success": true, "trial_type": "fullscreen", "trial_index": 0, "time_elapsed": 4159, "internal_node_id": "0.0-0.0"}}, {"uniqueid": "w65617881:a98987745", "current_trial": 1, "dateTime": 1664873127103, "trialdata": {"view_history": [{"page_index": 0, "viewing_time": 33007}], "rt": 33008, "trial_id": "exp_instructions_distractor", "trial_type": "instructions", "trial_index": 1, "time_elapsed": 37169, "internal_node_id": "0.0-1.0"}}, {"uniqueid": "w65617881:a98987745", "current_trial": 2, "dateTime": 1664873175189, "trialdata": {"view_history": [{"page_index": 0, "viewing_time": 48084}], "rt": 48084, "trial_id": "color_game_instructions", "trial_type": "instructions", "trial_index": 2, "time_elapsed": 85255, "internal_node_id": "0.0-2.0"}}, {"uniqueid": "w65617881:a98987745", "current_trial": 3, "dateTime": 1664873186356, "trialdata": {"rt": 11165, "stimulus": "<h1> Get ready to start the game! </h1>\n\nThank you for reading the instructions. Get ready start with the first of 5 block(s) of this game.\n<br><br>\nIn this first block, you will complete 90 rounds of this game before moving on.\n<br><br>\nRemember, the better you perform, the bigger your bonus will be!\n<br><br>\n<div style='text-align: center;'>Press <code>space</code> to begin.</div>", "response": " ", "trial_id": "stroop_1_ready_1", "trial_type": "html-keyboard-response", "trial_index": 3, "time_elapsed": 96422, "internal_node_id": "0.0-3.0"}}, {"uniqueid": "w65617881:a98987745", "current_trial": 4, "dateTime": 1664873188227, "trialdata": {"rt": 1867, "stimulus": "<p id='stroop-text' class='stroop-blue'>GREEN</p>", "response": "b", "stimulus-type": "incongruent", "word": "green", "color": "blue", "correct_response": "b", "trial_id": "stroop-trial-1-incongruent-8", "trial_type": "html-keyboard-response", "trial_index": 4, "time_elapsed": 98293, "internal_node_id": "0.0-4.0-0.0"}}, {"uniqueid": "w65617881:a98987745", "current_trial": 5, "dateTime": 1664873190131, "trialdata": {"rt": 1401, "stimulus": "<p id='stroop-text' class='stroop-red'>GREEN</p>", "response": "r", "stimulus-type": "incongruent", "word": "green", "color": "red", "correct_response": "r", "trial_id": "stroop-trial-1-incongruent-2", "trial_type": "html-keyboard-response", "trial_index": 5, "time_elapsed": 100197, "internal_node_id": "0.0-4.0-1.0"}}, {"uniqueid": "w65617881:a98987745", "current_trial": 6, "dateTime": 1664873192415, "trialdata": {"rt": 1782, "stimulus": "<p id='stroop-text' class='stroop-blue'>YELLOW</p>", "response": "b", "stimulus-type": "incongruent", "word": "yellow", "color": "blue", "correct_response": "b", "trial_id": "stroop-trial-1-incongruent-24", "trial_type": "html-keyboard-response", "trial_index": 6, "time_elapsed": 102481, "internal_node_id": "0.0-4.0-2.0"}}, {"uniqueid": "w65617881:a98987745", "current_trial": 7, "dateTime": 1664873194741, "trialdata": {"rt": 1825, "stimulus": "<p id='stroop-text' class='stroop-yellow'>RED</p>", "response": "y", "stimulus-type": "incongruent", "word": "red", "color": "yellow", "correct_response": "y", "trial_id": "stroop-trial-1-incongruent-1", "trial_type": "html-keyboard-response", "trial_index": 7, "time_elapsed": 104807, "internal_node_id": "0.0-4.0-3.0"}}, {"uniqueid": "w65617881:a98987745", "current_trial": 8, "dateTime": 1664873196715, "trialdata": {"rt": 1472, "stimulus": "<p id='stroop-text' class='stroop-yellow'>BOTTLE</p>", "response": "y", "stimulus-type": "unrelated", "word": "BOTTLE", "color": "yellow", "correct_response": "y", "trial_id": "stroop-trial-1-unrelated-27", "trial_type": "html-keyboard-response", "trial_index": 8, "time_elapsed": 106780, "internal_node_id": "0.0-4.0-4.0"}}, {"uniqueid": "w65617881:a98987745", "current_trial": 9, "dateTime": 1664873198785, "trialdata": {"rt": 1569, "stimulus": "<p id='stroop-text' class='stroop-green'>GREEN</p>", "response": "g", "stimulus-type": "congruent", "word": "green", "color": "green", "correct_response": "g", "trial_id": "stroop-trial-1-congruent-4", "trial_type": "html-keyboard-response", "trial_index": 9, "time_elapsed": 108851, "internal_node_id": "0.0-4.0-5.0"}}, {"uniqueid": "w65617881:a98987745", "current_trial": 10, "dateTime": 1664873200791, "trialdata": {"rt": 1504, "stimulus": "<p id='stroop-text' class='stroop-green'>RED</p>", "response": "g", "stimulus-type": "incongruent", "word": "red", "color": "green", "correct_response": "g", "trial_id": "stroop-trial-1-incongruent-23", "trial_type": "html-keyboard-response", "trial_index": 10, "time_elapsed": 110857, "internal_node_id": "0.0-4.0-6.0"}}, {"uniqueid": "w65617881:a98987745", "current_trial": 11, "dateTime": 1664873202648, "trialdata": {"rt": 1354, "stimulus": "<p id='stroop-text' class='stroop-yellow'>YELLOW</p>", "response": "y", "stimulus-type": "congruent", "word": "yellow", "color": "yellow", "correct_response": "y", "trial_id": "stroop-trial-1-congruent-20", "trial_type": "html-keyboard-response", "trial_index": 11, "time_elapsed": 112714, "internal_node_id": "0.0-4.0-7.0"}}, {"uniqueid": "w65617881:a98987745", "current_trial": 12, "dateTime": 1664873204605, "trialdata": {"rt": 1456, "stimulus": "<p id='stroop-text' class='stroop-red'>RED</p>", "response": "r", "stimulus-type": "congruent", "word": "red", "color": "red", "correct_response": "r", "trial_id": "stroop-trial-1-congruent-12", "trial_type": "html-keyboard-response", "trial_index": 12, "time_elapsed": 114671, "internal_node_id": "0.0-4.0-8.0"}}, {"uniqueid": "w65617881:a98987745", "current_trial": 13, "dateTime": 1664873206274, "trialdata": {"rt": 1160, "stimulus": "<p id='stroop-text' class='stroop-blue'>BLUE</p>", "response": "b", "stimulus-type": "congruent", "word": "blue", "color": "blue", "correct_response": "b", "trial_id": "stroop-trial-1-congruent-2", "trial_type": "html-keyboard-response", "trial_index": 13, "time_elapsed": 116340, "internal_node_id": "0.0-4.0-9.0"}}, {"uniqueid": "w65617881:a98987745", "current_trial": 14, "dateTime": 1664873208087, "trialdata": {"rt": 1300, "stimulus": "<p id='stroop-text' class='stroop-red'>RED</p>", "response": "r", "stimulus-type": "congruent", "word": "red", "color": "red", "correct_response": "r", "trial_id": "stroop-trial-1-congruent-10", "trial_type": "html-keyboard-response", "trial_index": 14, "time_elapsed": 118153, "internal_node_id": "0.0-4.0-10.0"}}, {"uniqueid": "w65617881:a98987745", "current_trial": 15, "dateTime": 1664873210083, "trialdata": {"rt": 1495, "stimulus": "<p id='stroop-text' class='stroop-red'>BLUE</p>", "response": "r", "stimulus-type": "incongruent", "word": "blue", "color": "red", "correct_response": "r", "trial_id": "stroop-trial-1-incongruent-25", "trial_type": "html-keyboard-response", "trial_index": 15, "time_elapsed": 120149, "internal_node_id": "0.0-4.0-11.0"}}, {"uniqueid": "w65617881:a98987745", "current_trial": 16, "dateTime": 1664873212270, "trialdata": {"rt": 1685, "stimulus": "<p id='stroop-text' class='stroop-blue'>BLUE</p>", "response": "b", "stimulus-type": "congruent", "word": "blue", "color": "blue", "correct_response": "b", "trial_id": "stroop-trial-1-congruent-29", "trial_type": "html-keyboard-response", "trial_index": 16, "time_elapsed": 122336, "internal_node_id": "0.0-4.0-12.0"}}, {"uniqueid": "w65617881:a98987745", "current_trial": 17, "dateTime": 1664873213839, "trialdata": {"rt": 1066, "stimulus": "<p id='stroop-text' class='stroop-blue'>BLUE</p>", "response": "b", "stimulus-type": "congruent", "word": "blue", "color": "blue", "correct_response": "b", "trial_id": "stroop-trial-1-congruent-22", "trial_type": "html-keyboard-response", "trial_index": 17, "time_elapsed": 123905, "internal_node_id": "0.0-4.0-13.0"}}, {"uniqueid": "w65617881:a98987745", "current_trial": 18, "dateTime": 1664873215597, "trialdata": {"rt": 1255, "stimulus": "<p id='stroop-text' class='stroop-green'>RED</p>", "response": "g", "stimulus-type": "incongruent", "word": "red", "color": "green", "correct_response": "g", "trial_id": "stroop-trial-1-incongruent-30", "trial_type": "html-keyboard-response", "trial_index": 18, "time_elapsed": 125663, "internal_node_id": "0.0-4.0-14.0"}}, {"uniqueid": "w65617881:a98987745", "current_trial": 19, "dateTime": 1664873217208, "trialdata": {"rt": 1108, "stimulus": "<p id='stroop-text' class='stroop-red'>RED</p>", "response": "r", "stimulus-type": "congruent", "word": "red", "color": "red", "correct_response": "r", "trial_id": "stroop-trial-1-congruent-25", "trial_type": "html-keyboard-response", "trial_index": 19, "time_elapsed": 127274, "internal_node_id": "0.0-4.0-15.0"}}, {"uniqueid": "w65617881:a98987745", "current_trial": 20, "dateTime": 1664873218766, "trialdata": {"rt": 1057, "stimulus": "<p id='stroop-text' class='stroop-blue'>BLUE</p>", "response": "b", "stimulus-type": "congruent", "word": "blue", "color": "blue", "correct_response": "b", "trial_id": "stroop-trial-1-congruent-28", "trial_type": "html-keyboard-response", "trial_index": 20, "time_elapsed": 128832, "internal_node_id": "0.0-4.0-16.0"}}, {"uniqueid": "w65617881:a98987745", "current_trial": 21, "dateTime": 1664873220834, "trialdata": {"rt": 1566, "stimulus": "<p id='stroop-text' class='stroop-yellow'>BOAT</p>", "response": "y", "stimulus-type": "unrelated", "word": "BOAT", "color": "yellow", "correct_response": "y", "trial_id": "stroop-trial-1-unrelated-16", "trial_type": "html-keyboard-response", "trial_index": 21, "time_elapsed": 130900, "internal_node_id": "0.0-4.0-17.0"}}, {"uniqueid": "w65617881:a98987745", "current_trial": 22, "dateTime": 1664873222553, "trialdata": {"rt": 1212, "stimulus": "<p id='stroop-text' class='stroop-red'>BLUE</p>", "response": "r", "stimulus-type": "incongruent", "word": "blue", "color": "red", "correct_response": "r", "trial_id": "stroop-trial-1-incongruent-13", "trial_type": "html-keyboard-response", "trial_index": 22, "time_elapsed": 132619, "internal_node_id": "0.0-4.0-18.0"}}, {"uniqueid": "w65617881:a98987745", "current_trial": 23, "dateTime": 1664873224318, "trialdata": {"rt": 1263, "stimulus": "<p id='stroop-text' class='stroop-red'>GREEN</p>", "response": "r", "stimulus-type": "incongruent", "word": "green", "color": "red", "correct_response": "r", "trial_id": "stroop-trial-1-incongruent-9", "trial_type": "html-keyboard-response", "trial_index": 23, "time_elapsed": 134384, "internal_node_id": "0.0-4.0-19.0"}}, {"uniqueid": "w65617881:a98987745", "current_trial": 24, "dateTime": 1664873226017, "trialdata": {"rt": 1198, "stimulus": "<p id='stroop-text' class='stroop-blue'>BLUE</p>", "response": "b", "stimulus-type": "congruent", "word": "blue", "color": "blue", "correct_response": "b", "trial_id": "stroop-trial-1-congruent-5", "trial_type": "html-keyboard-response", "trial_index": 24, "time_elapsed": 136083, "internal_node_id": "0.0-4.0-20.0"}}, {"uniqueid": "w65617881:a98987745", "current_trial": 25, "dateTime": 1664873227828, "trialdata": {"rt": 1309, "stimulus": "<p id='stroop-text' class='stroop-blue'>WINDOW</p>", "response": "b", "stimulus-type": "unrelated", "word": "WINDOW", "color": "blue", "correct_response": "b", "trial_id": "stroop-trial-1-unrelated-26", "trial_type": "html-keyboard-response", "trial_index": 25, "time_elapsed": 137894, "internal_node_id": "0.0-4.0-21.0"}}, {"uniqueid": "w65617881:a98987745", "current_trial": 26, "dateTime": 1664873229472, "trialdata": {"rt": 1143, "stimulus": "<p id='stroop-text' class='stroop-red'>GREEN</p>", "response": "r", "stimulus-type": "incongruent", "word": "green", "color": "red", "correct_response": "r", "trial_id": "stroop-trial-1-incongruent-6", "trial_type": "html-keyboard-response", "trial_index": 26, "time_elapsed": 139538, "internal_node_id": "0.0-4.0-22.0"}}, {"uniqueid": "w65617881:a98987745", "current_trial": 27, "dateTime": 1664873232129, "trialdata": {"rt": 2155, "stimulus": "<p id='stroop-text' class='stroop-green'>BOTTLE</p>", "response": "g", "stimulus-type": "unrelated", "word": "BOTTLE", "color": "green", "correct_response": "g", "trial_id": "stroop-trial-1-unrelated-11", "trial_type": "html-keyboard-response", "trial_index": 27, "time_elapsed": 142195, "internal_node_id": "0.0-4.0-23.0"}}, {"uniqueid": "w65617881:a98987745", "current_trial": 28, "dateTime": 1664873233737, "trialdata": {"rt": 1107, "stimulus": "<p id='stroop-text' class='stroop-red'>RED</p>", "response": "r", "stimulus-type": "congruent", "word": "red", "color": "red", "correct_response": "r", "trial_id": "stroop-trial-1-congruent-9", "trial_type": "html-keyboard-response", "trial_index": 28, "time_elapsed": 143803, "internal_node_id": "0.0-4.0-24.0"}}, {"uniqueid": "w65617881:a98987745", "current_trial": 29, "dateTime": 1664873235277, "trialdata": {"rt": 1039, "stimulus": "<p id='stroop-text' class='stroop-green'>GREEN</p>", "response": "g", "stimulus-type": "congruent", "word": "green", "color": "green", "correct_response": "g", "trial_id": "stroop-trial-1-congruent-13", "trial_type": "html-keyboard-response", "trial_index": 29, "time_elapsed": 145343, "internal_node_id": "0.0-4.0-25.0"}}, {"uniqueid": "w65617881:a98987745", "current_trial": 30, "dateTime": 1664873237074, "trialdata": {"rt": 1295, "stimulus": "<p id='stroop-text' class='stroop-yellow'>GREEN</p>", "response": "y", "stimulus-type": "incongruent", "word": "green", "color": "yellow", "correct_response": "y", "trial_id": "stroop-trial-1-incongruent-29", "trial_type": "html-keyboard-response", "trial_index": 30, "time_elapsed": 147140, "internal_node_id": "0.0-4.0-26.0"}}, {"uniqueid": "w65617881:a98987745", "current_trial": 31, "dateTime": 1664873238594, "trialdata": {"rt": 1018, "stimulus": "<p id='stroop-text' class='stroop-blue'>BLUE</p>", "response": "b", "stimulus-type": "congruent", "word": "blue", "color": "blue", "correct_response": "b", "trial_id": "stroop-trial-1-congruent-3", "trial_type": "html-keyboard-response", "trial_index": 31, "time_elapsed": 148660, "internal_node_id": "0.0-4.0-27.0"}}, {"uniqueid": "w65617881:a98987745", "current_trial": 32, "dateTime": 1664873241165, "trialdata": {"rt": 2066, "stimulus": "<p id='stroop-text' class='stroop-blue'>YELLOW</p>", "response": "b", "stimulus-type": "incongruent", "word": "yellow", "color": "blue", "correct_response": "b", "trial_id": "stroop-trial-1-incongruent-20", "trial_type": "html-keyboard-response", "trial_index": 32, "time_elapsed": 151231, "internal_node_id": "0.0-4.0-28.0"}}, {"uniqueid": "w65617881:a98987745", "current_trial": 33, "dateTime": 1664873242690, "trialdata": {"rt": 1023, "stimulus": "<p id='stroop-text' class='stroop-red'>BRIDGE</p>", "response": "r", "stimulus-type": "unrelated", "word": "BRIDGE", "color": "red", "correct_response": "r", "trial_id": "stroop-trial-1-unrelated-29", "trial_type": "html-keyboard-response", "trial_index": 33, "time_elapsed": 152756, "internal_node_id": "0.0-4.0-29.0"}}, {"uniqueid": "w65617881:a98987745", "current_trial": 34, "dateTime": 1664873244312, "trialdata": {"rt": 1121, "stimulus": "<p id='stroop-text' class='stroop-red'>YELLOW</p>", "response": "r", "stimulus-type": "incongruent", "word": "yellow", "color": "red", "correct_response": "r", "trial_id": "stroop-trial-1-incongruent-14", "trial_type": "html-keyboard-response", "trial_index": 34, "time_elapsed": 154378, "internal_node_id": "0.0-4.0-30.0"}}, {"uniqueid": "w65617881:a98987745", "current_trial": 35, "dateTime": 1664873245853, "trialdata": {"rt": 1037, "stimulus": "<p id='stroop-text' class='stroop-green'>WINDOW</p>", "response": "g", "stimulus-type": "unrelated", "word": "WINDOW", "color": "green", "correct_response": "g", "trial_id": "stroop-trial-1-unrelated-28", "trial_type": "html-keyboard-response", "trial_index": 35, "time_elapsed": 155918, "internal_node_id": "0.0-4.0-31.0"}}, {"uniqueid": "w65617881:a98987745", "current_trial": 36, "dateTime": 1664873247381, "trialdata": {"rt": 1025, "stimulus": "<p id='stroop-text' class='stroop-blue'>BLUE</p>", "response": "b", "stimulus-type": "congruent", "word": "blue", "color": "blue", "correct_response": "b", "trial_id": "stroop-trial-1-congruent-15", "trial_type": "html-keyboard-response", "trial_index": 36, "time_elapsed": 157447, "internal_node_id": "0.0-4.0-32.0"}}, {"uniqueid": "w65617881:a98987745", "current_trial": 37, "dateTime": 1664873249007, "trialdata": {"rt": 1124, "stimulus": "<p id='stroop-text' class='stroop-yellow'>YELLOW</p>", "response": "y", "stimulus-type": "congruent", "word": "yellow", "color": "yellow", "correct_response": "y", "trial_id": "stroop-trial-1-congruent-19", "trial_type": "html-keyboard-response", "trial_index": 37, "time_elapsed": 159073, "internal_node_id": "0.0-4.0-33.0"}}, {"uniqueid": "w65617881:a98987745", "current_trial": 38, "dateTime": 1664873250818, "trialdata": {"rt": 1309, "stimulus": "<p id='stroop-text' class='stroop-yellow'>GREEN</p>", "response": "y", "stimulus-type": "incongruent", "word": "green", "color": "yellow", "correct_response": "y", "trial_id": "stroop-trial-1-incongruent-12", "trial_type": "html-keyboard-response", "trial_index": 38, "time_elapsed": 160884, "internal_node_id": "0.0-4.0-34.0"}}, {"uniqueid": "w65617881:a98987745", "current_trial": 39, "dateTime": 1664873252702, "trialdata": {"rt": 1381, "stimulus": "<p id='stroop-text' class='stroop-green'>YELLOW</p>", "response": "g", "stimulus-type": "incongruent", "word": "yellow", "color": "green", "correct_response": "g", "trial_id": "stroop-trial-1-incongruent-15", "trial_type": "html-keyboard-response", "trial_index": 39, "time_elapsed": 162768, "internal_node_id": "0.0-4.0-35.0"}}, {"uniqueid": "w65617881:a98987745", "current_trial": 40, "dateTime": 1664873254321, "trialdata": {"rt": 1118, "stimulus": "<p id='stroop-text' class='stroop-green'>BOAT</p>", "response": "g", "stimulus-type": "unrelated", "word": "BOAT", "color": "green", "correct_response": "g", "trial_id": "stroop-trial-1-unrelated-8", "trial_type": "html-keyboard-response", "trial_index": 40, "time_elapsed": 164387, "internal_node_id": "0.0-4.0-36.0"}}, {"uniqueid": "w65617881:a98987745", "current_trial": 41, "dateTime": 1664873255841, "trialdata": {"rt": 1010, "stimulus": "<p id='stroop-text' class='stroop-green'>RED</p>", "response": "g", "stimulus-type": "incongruent", "word": "red", "color": "green", "correct_response": "g", "trial_id": "stroop-trial-1-incongruent-3", "trial_type": "html-keyboard-response", "trial_index": 41, "time_elapsed": 165907, "internal_node_id": "0.0-4.0-37.0"}}, {"uniqueid": "w65617881:a98987745", "current_trial": 42, "dateTime": 1664873257413, "trialdata": {"rt": 1071, "stimulus": "<p id='stroop-text' class='stroop-green'>BOTTLE</p>", "response": "g", "stimulus-type": "unrelated", "word": "BOTTLE", "color": "green", "correct_response": "g", "trial_id": "stroop-trial-1-unrelated-13", "trial_type": "html-keyboard-response", "trial_index": 42, "time_elapsed": 167479, "internal_node_id": "0.0-4.0-38.0"}}, {"uniqueid": "w65617881:a98987745", "current_trial": 43, "dateTime": 1664873259011, "trialdata": {"rt": 1096, "stimulus": "<p id='stroop-text' class='stroop-green'>DOG</p>", "response": "g", "stimulus-type": "unrelated", "word": "DOG", "color": "green", "correct_response": "g", "trial_id": "stroop-trial-1-unrelated-2", "trial_type": "html-keyboard-response", "trial_index": 43, "time_elapsed": 169077, "internal_node_id": "0.0-4.0-39.0"}}, {"uniqueid": "w65617881:a98987745", "current_trial": 44, "dateTime": 1664873260734, "trialdata": {"rt": 1222, "stimulus": "<p id='stroop-text' class='stroop-yellow'>CHAIR</p>", "response": "y", "stimulus-type": "unrelated", "word": "CHAIR", "color": "yellow", "correct_response": "y", "trial_id": "stroop-trial-1-unrelated-21", "trial_type": "html-keyboard-response", "trial_index": 44, "time_elapsed": 170800, "internal_node_id": "0.0-4.0-40.0"}}, {"uniqueid": "w65617881:a98987745", "current_trial": 45, "dateTime": 1664873262289, "trialdata": {"rt": 1053, "stimulus": "<p id='stroop-text' class='stroop-red'>RED</p>", "response": "r", "stimulus-type": "congruent", "word": "red", "color": "red", "correct_response": "r", "trial_id": "stroop-trial-1-congruent-1", "trial_type": "html-keyboard-response", "trial_index": 45, "time_elapsed": 172355, "internal_node_id": "0.0-4.0-41.0"}}, {"uniqueid": "w65617881:a98987745", "current_trial": 46, "dateTime": 1664873264620, "trialdata": {"rt": 1829, "stimulus": "<p id='stroop-text' class='stroop-blue'>RED</p>", "response": "b", "stimulus-type": "incongruent", "word": "red", "color": "blue", "correct_response": "b", "trial_id": "stroop-trial-1-incongruent-21", "trial_type": "html-keyboard-response", "trial_index": 46, "time_elapsed": 174686, "internal_node_id": "0.0-4.0-42.0"}}, {"uniqueid": "w65617881:a98987745", "current_trial": 47, "dateTime": 1664873266272, "trialdata": {"rt": 1140, "stimulus": "<p id='stroop-text' class='stroop-yellow'>YELLOW</p>", "response": "y", "stimulus-type": "congruent", "word": "yellow", "color": "yellow", "correct_response": "y", "trial_id": "stroop-trial-1-congruent-8", "trial_type": "html-keyboard-response", "trial_index": 47, "time_elapsed": 176338, "internal_node_id": "0.0-4.0-43.0"}}, {"uniqueid": "w65617881:a98987745", "current_trial": 48, "dateTime": 1664873268096, "trialdata": {"rt": 1320, "stimulus": "<p id='stroop-text' class='stroop-green'>GREEN</p>", "response": "g", "stimulus-type": "congruent", "word": "green", "color": "green", "correct_response": "g", "trial_id": "stroop-trial-1-congruent-30", "trial_type": "html-keyboard-response", "trial_index": 48, "time_elapsed": 178162, "internal_node_id": "0.0-4.0-44.0"}}, {"uniqueid": "w65617881:a98987745", "current_trial": 49, "dateTime": 1664873269586, "trialdata": {"rt": 988, "stimulus": "<p id='stroop-text' class='stroop-green'>CHAIR</p>", "response": "g", "stimulus-type": "unrelated", "word": "CHAIR", "color": "green", "correct_response": "g", "trial_id": "stroop-trial-1-unrelated-1", "trial_type": "html-keyboard-response", "trial_index": 49, "time_elapsed": 179651, "internal_node_id": "0.0-4.0-45.0"}}, {"uniqueid": "w65617881:a98987745", "current_trial": 50, "dateTime": 1664873271118, "trialdata": {"rt": 1032, "stimulus": "<p id='stroop-text' class='stroop-red'>RED</p>", "response": "r", "stimulus-type": "congruent", "word": "red", "color": "red", "correct_response": "r", "trial_id": "stroop-trial-1-congruent-17", "trial_type": "html-keyboard-response", "trial_index": 50, "time_elapsed": 181184, "internal_node_id": "0.0-4.0-46.0"}}, {"uniqueid": "w65617881:a98987745", "current_trial": 51, "dateTime": 1664873272700, "trialdata": {"rt": 1080, "stimulus": "<p id='stroop-text' class='stroop-yellow'>RED</p>", "response": "y", "stimulus-type": "incongruent", "word": "red", "color": "yellow", "correct_response": "y", "trial_id": "stroop-trial-1-incongruent-7", "trial_type": "html-keyboard-response", "trial_index": 51, "time_elapsed": 182766, "internal_node_id": "0.0-4.0-47.0"}}, {"uniqueid": "w65617881:a98987745", "current_trial": 52, "dateTime": 1664873274296, "trialdata": {"rt": 1094, "stimulus": "<p id='stroop-text' class='stroop-yellow'>YELLOW</p>", "response": "y", "stimulus-type": "congruent", "word": "yellow", "color": "yellow", "correct_response": "y", "trial_id": "stroop-trial-1-congruent-23", "trial_type": "html-keyboard-response", "trial_index": 52, "time_elapsed": 184362, "internal_node_id": "0.0-4.0-48.0"}}, {"uniqueid": "w65617881:a98987745", "current_trial": 53, "dateTime": 1664873276056, "trialdata": {"rt": 1258, "stimulus": "<p id='stroop-text' class='stroop-green'>BLUE</p>", "response": "g", "stimulus-type": "incongruent", "word": "blue", "color": "green", "correct_response": "g", "trial_id": "stroop-trial-1-incongruent-10", "trial_type": "html-keyboard-response", "trial_index": 53, "time_elapsed": 186122, "internal_node_id": "0.0-4.0-49.0"}}, {"uniqueid": "w65617881:a98987745", "current_trial": 54, "dateTime": 1664873277634, "trialdata": {"rt": 1076, "stimulus": "<p id='stroop-text' class='stroop-red'>RED</p>", "response": "r", "stimulus-type": "congruent", "word": "red", "color": "red", "correct_response": "r", "trial_id": "stroop-trial-1-congruent-21", "trial_type": "html-keyboard-response", "trial_index": 54, "time_elapsed": 187700, "internal_node_id": "0.0-4.0-50.0"}}, {"uniqueid": "w65617881:a98987745", "current_trial": 55, "dateTime": 1664873279202, "trialdata": {"rt": 1057, "stimulus": "<p id='stroop-text' class='stroop-red'>BRIDGE</p>", "response": "r", "stimulus-type": "unrelated", "word": "BRIDGE", "color": "red", "correct_response": "r", "trial_id": "stroop-trial-1-unrelated-20", "trial_type": "html-keyboard-response", "trial_index": 55, "time_elapsed": 189268, "internal_node_id": "0.0-4.0-51.0"}}, {"uniqueid": "w65617881:a98987745", "current_trial": 56, "dateTime": 1664873280796, "trialdata": {"rt": 1093, "stimulus": "<p id='stroop-text' class='stroop-green'>GREEN</p>", "response": "g", "stimulus-type": "congruent", "word": "green", "color": "green", "correct_response": "g", "trial_id": "stroop-trial-1-congruent-16", "trial_type": "html-keyboard-response", "trial_index": 56, "time_elapsed": 190862, "internal_node_id": "0.0-4.0-52.0"}}, {"uniqueid": "w65617881:a98987745", "current_trial": 57, "dateTime": 1664873282250, "trialdata": {"rt": 952, "stimulus": "<p id='stroop-text' class='stroop-red'>WINDOW</p>", "response": "r", "stimulus-type": "unrelated", "word": "WINDOW", "color": "red", "correct_response": "r", "trial_id": "stroop-trial-1-unrelated-19", "trial_type": "html-keyboard-response", "trial_index": 57, "time_elapsed": 192316, "internal_node_id": "0.0-4.0-53.0"}}, {"uniqueid": "w65617881:a98987745", "current_trial": 58, "dateTime": 1664873284007, "trialdata": {"rt": 1255, "stimulus": "<p id='stroop-text' class='stroop-blue'>GREEN</p>", "response": "b", "stimulus-type": "incongruent", "word": "green", "color": "blue", "correct_response": "b", "trial_id": "stroop-trial-1-incongruent-11", "trial_type": "html-keyboard-response", "trial_index": 58, "time_elapsed": 194073, "internal_node_id": "0.0-4.0-54.0"}}, {"uniqueid": "w65617881:a98987745", "current_trial": 59, "dateTime": 1664873285572, "trialdata": {"rt": 1064, "stimulus": "<p id='stroop-text' class='stroop-blue'>BOTTLE</p>", "response": "b", "stimulus-type": "unrelated", "word": "BOTTLE", "color": "blue", "correct_response": "b", "trial_id": "stroop-trial-1-unrelated-22", "trial_type": "html-keyboard-response", "trial_index": 59, "time_elapsed": 195638, "internal_node_id": "0.0-4.0-55.0"}}, {"uniqueid": "w65617881:a98987745", "current_trial": 60, "dateTime": 1664873287151, "trialdata": {"rt": 1068, "stimulus": "<p id='stroop-text' class='stroop-green'>RED</p>", "response": "g", "stimulus-type": "incongruent", "word": "red", "color": "green", "correct_response": "g", "trial_id": "stroop-trial-1-incongruent-19", "trial_type": "html-keyboard-response", "trial_index": 60, "time_elapsed": 197217, "internal_node_id": "0.0-4.0-56.0"}}, {"uniqueid": "w65617881:a98987745", "current_trial": 61, "dateTime": 1664873288575, "trialdata": {"rt": 921, "stimulus": "<p id='stroop-text' class='stroop-blue'>BLUE</p>", "response": "b", "stimulus-type": "congruent", "word": "blue", "color": "blue", "correct_response": "b", "trial_id": "stroop-trial-1-congruent-26", "trial_type": "html-keyboard-response", "trial_index": 61, "time_elapsed": 198641, "internal_node_id": "0.0-4.0-57.0"}}, {"uniqueid": "w65617881:a98987745", "current_trial": 62, "dateTime": 1664873290019, "trialdata": {"rt": 942, "stimulus": "<p id='stroop-text' class='stroop-blue'>YELLOW</p>", "response": "b", "stimulus-type": "incongruent", "word": "yellow", "color": "blue", "correct_response": "b", "trial_id": "stroop-trial-1-incongruent-4", "trial_type": "html-keyboard-response", "trial_index": 62, "time_elapsed": 200085, "internal_node_id": "0.0-4.0-58.0"}}, {"uniqueid": "w65617881:a98987745", "current_trial": 63, "dateTime": 1664873291578, "trialdata": {"rt": 1058, "stimulus": "<p id='stroop-text' class='stroop-yellow'>BOTTLE</p>", "response": "y", "stimulus-type": "unrelated", "word": "BOTTLE", "color": "yellow", "correct_response": "y", "trial_id": "stroop-trial-1-unrelated-14", "trial_type": "html-keyboard-response", "trial_index": 63, "time_elapsed": 201644, "internal_node_id": "0.0-4.0-59.0"}}, {"uniqueid": "w65617881:a98987745", "current_trial": 64, "dateTime": 1664873293289, "trialdata": {"rt": 1196, "stimulus": "<p id='stroop-text' class='stroop-green'>BRAIN</p>", "response": "g", "stimulus-type": "unrelated", "word": "BRAIN", "color": "green", "correct_response": "g", "trial_id": "stroop-trial-1-unrelated-23", "trial_type": "html-keyboard-response", "trial_index": 64, "time_elapsed": 203354, "internal_node_id": "0.0-4.0-60.0"}}, {"uniqueid": "w65617881:a98987745", "current_trial": 65, "dateTime": 1664873294886, "trialdata": {"rt": 1095, "stimulus": "<p id='stroop-text' class='stroop-red'>MONKEY</p>", "response": "r", "stimulus-type": "unrelated", "word": "MONKEY", "color": "red", "correct_response": "r", "trial_id": "stroop-trial-1-unrelated-6", "trial_type": "html-keyboard-response", "trial_index": 65, "time_elapsed": 204952, "internal_node_id": "0.0-4.0-61.0"}}, {"uniqueid": "w65617881:a98987745", "current_trial": 66, "dateTime": 1664873296627, "trialdata": {"rt": 1239, "stimulus": "<p id='stroop-text' class='stroop-yellow'>BLUE</p>", "response": "y", "stimulus-type": "incongruent", "word": "blue", "color": "yellow", "correct_response": "y", "trial_id": "stroop-trial-1-incongruent-26", "trial_type": "html-keyboard-response", "trial_index": 66, "time_elapsed": 206692, "internal_node_id": "0.0-4.0-62.0"}}, {"uniqueid": "w65617881:a98987745", "current_trial": 67, "dateTime": 1664873298211, "trialdata": {"rt": 1084, "stimulus": "<p id='stroop-text' class='stroop-green'>STONE</p>", "response": "g", "stimulus-type": "unrelated", "word": "STONE", "color": "green", "correct_response": "g", "trial_id": "stroop-trial-1-unrelated-24", "trial_type": "html-keyboard-response", "trial_index": 67, "time_elapsed": 208277, "internal_node_id": "0.0-4.0-63.0"}}, {"uniqueid": "w65617881:a98987745", "current_trial": 68, "dateTime": 1664873299847, "trialdata": {"rt": 1134, "stimulus": "<p id='stroop-text' class='stroop-yellow'>BLUE</p>", "response": "y", "stimulus-type": "incongruent", "word": "blue", "color": "yellow", "correct_response": "y", "trial_id": "stroop-trial-1-incongruent-5", "trial_type": "html-keyboard-response", "trial_index": 68, "time_elapsed": 209913, "internal_node_id": "0.0-4.0-64.0"}}, {"uniqueid": "w65617881:a98987745", "current_trial": 69, "dateTime": 1664873301349, "trialdata": {"rt": 1000, "stimulus": "<p id='stroop-text' class='stroop-green'>BOAT</p>", "response": "g", "stimulus-type": "unrelated", "word": "BOAT", "color": "green", "correct_response": "g", "trial_id": "stroop-trial-1-unrelated-3", "trial_type": "html-keyboard-response", "trial_index": 69, "time_elapsed": 211415, "internal_node_id": "0.0-4.0-65.0"}}, {"uniqueid": "w65617881:a98987745", "current_trial": 70, "dateTime": 1664873302941, "trialdata": {"rt": 1089, "stimulus": "<p id='stroop-text' class='stroop-yellow'>BOTTLE</p>", "response": "y", "stimulus-type": "unrelated", "word": "BOTTLE", "color": "yellow", "correct_response": "y", "trial_id": "stroop-trial-1-unrelated-30", "trial_type": "html-keyboard-response", "trial_index": 70, "time_elapsed": 213007, "internal_node_id": "0.0-4.0-66.0"}}, {"uniqueid": "w65617881:a98987745", "current_trial": 71, "dateTime": 1664873304485, "trialdata": {"rt": 1041, "stimulus": "<p id='stroop-text' class='stroop-blue'>BLUE</p>", "response": "b", "stimulus-type": "congruent", "word": "blue", "color": "blue", "correct_response": "b", "trial_id": "stroop-trial-1-congruent-24", "trial_type": "html-keyboard-response", "trial_index": 71, "time_elapsed": 214551, "internal_node_id": "0.0-4.0-67.0"}}, {"uniqueid": "w65617881:a98987745", "current_trial": 72, "dateTime": 1664873306331, "trialdata": {"rt": 1343, "stimulus": "<p id='stroop-text' class='stroop-yellow'>YELLOW</p>", "response": "y", "stimulus-type": "congruent", "word": "yellow", "color": "yellow", "correct_response": "y", "trial_id": "stroop-trial-1-congruent-11", "trial_type": "html-keyboard-response", "trial_index": 72, "time_elapsed": 216397, "internal_node_id": "0.0-4.0-68.0"}}, {"uniqueid": "w65617881:a98987745", "current_trial": 73, "dateTime": 1664873308024, "trialdata": {"rt": 1191, "stimulus": "<p id='stroop-text' class='stroop-red'>YELLOW</p>", "response": "r", "stimulus-type": "incongruent", "word": "yellow", "color": "red", "correct_response": "r", "trial_id": "stroop-trial-1-incongruent-22", "trial_type": "html-keyboard-response", "trial_index": 73, "time_elapsed": 218090, "internal_node_id": "0.0-4.0-69.0"}}, {"uniqueid": "w65617881:a98987745", "current_trial": 74, "dateTime": 1664873309605, "trialdata": {"rt": 1079, "stimulus": "<p id='stroop-text' class='stroop-blue'>MONKEY</p>", "response": "b", "stimulus-type": "unrelated", "word": "MONKEY", "color": "blue", "correct_response": "b", "trial_id": "stroop-trial-1-unrelated-25", "trial_type": "html-keyboard-response", "trial_index": 74, "time_elapsed": 219671, "internal_node_id": "0.0-4.0-70.0"}}, {"uniqueid": "w65617881:a98987745", "current_trial": 75, "dateTime": 1664873311252, "trialdata": {"rt": 1145, "stimulus": "<p id='stroop-text' class='stroop-blue'>BLUE</p>", "response": "b", "stimulus-type": "congruent", "word": "blue", "color": "blue", "correct_response": "b", "trial_id": "stroop-trial-1-congruent-7", "trial_type": "html-keyboard-response", "trial_index": 75, "time_elapsed": 221318, "internal_node_id": "0.0-4.0-71.0"}}, {"uniqueid": "w65617881:a98987745", "current_trial": 76, "dateTime": 1664873312979, "trialdata": {"rt": 1226, "stimulus": "<p id='stroop-text' class='stroop-green'>WINDOW</p>", "response": "g", "stimulus-type": "unrelated", "word": "WINDOW", "color": "green", "correct_response": "g", "trial_id": "stroop-trial-1-unrelated-9", "trial_type": "html-keyboard-response", "trial_index": 76, "time_elapsed": 223045, "internal_node_id": "0.0-4.0-72.0"}}, {"uniqueid": "w65617881:a98987745", "current_trial": 77, "dateTime": 1664873314649, "trialdata": {"rt": 1167, "stimulus": "<p id='stroop-text' class='stroop-green'>CHAIR</p>", "response": "g", "stimulus-type": "unrelated", "word": "CHAIR", "color": "green", "correct_response": "g", "trial_id": "stroop-trial-1-unrelated-4", "trial_type": "html-keyboard-response", "trial_index": 77, "time_elapsed": 224715, "internal_node_id": "0.0-4.0-73.0"}}, {"uniqueid": "w65617881:a98987745", "current_trial": 78, "dateTime": 1664873316190, "trialdata": {"rt": 1039, "stimulus": "<p id='stroop-text' class='stroop-green'>WINDOW</p>", "response": "g", "stimulus-type": "unrelated", "word": "WINDOW", "color": "green", "correct_response": "g", "trial_id": "stroop-trial-1-unrelated-18", "trial_type": "html-keyboard-response", "trial_index": 78, "time_elapsed": 226256, "internal_node_id": "0.0-4.0-74.0"}}, {"uniqueid": "w65617881:a98987745", "current_trial": 79, "dateTime": 1664873317775, "trialdata": {"rt": 1083, "stimulus": "<p id='stroop-text' class='stroop-blue'>BLUE</p>", "response": "b", "stimulus-type": "congruent", "word": "blue", "color": "blue", "correct_response": "b", "trial_id": "stroop-trial-1-congruent-6", "trial_type": "html-keyboard-response", "trial_index": 79, "time_elapsed": 227841, "internal_node_id": "0.0-4.0-75.0"}}, {"uniqueid": "w65617881:a98987745", "current_trial": 80, "dateTime": 1664873319423, "trialdata": {"rt": 1146, "stimulus": "<p id='stroop-text' class='stroop-yellow'>BRIDGE</p>", "response": "y", "stimulus-type": "unrelated", "word": "BRIDGE", "color": "yellow", "correct_response": "y", "trial_id": "stroop-trial-1-unrelated-10", "trial_type": "html-keyboard-response", "trial_index": 80, "time_elapsed": 229489, "internal_node_id": "0.0-4.0-76.0"}}, {"uniqueid": "w65617881:a98987745", "current_trial": 81, "dateTime": 1664873320900, "trialdata": {"rt": 976, "stimulus": "<p id='stroop-text' class='stroop-red'>RED</p>", "response": "r", "stimulus-type": "congruent", "word": "red", "color": "red", "correct_response": "r", "trial_id": "stroop-trial-1-congruent-27", "trial_type": "html-keyboard-response", "trial_index": 81, "time_elapsed": 230966, "internal_node_id": "0.0-4.0-77.0"}}, {"uniqueid": "w65617881:a98987745", "current_trial": 82, "dateTime": 1664873322536, "trialdata": {"rt": 1134, "stimulus": "<p id='stroop-text' class='stroop-green'>RED</p>", "response": "g", "stimulus-type": "incongruent", "word": "red", "color": "green", "correct_response": "g", "trial_id": "stroop-trial-1-incongruent-17", "trial_type": "html-keyboard-response", "trial_index": 82, "time_elapsed": 232602, "internal_node_id": "0.0-4.0-78.0"}}, {"uniqueid": "w65617881:a98987745", "current_trial": 83, "dateTime": 1664873324118, "trialdata": {"rt": 1081, "stimulus": "<p id='stroop-text' class='stroop-green'>RED</p>", "response": "g", "stimulus-type": "incongruent", "word": "red", "color": "green", "correct_response": "g", "trial_id": "stroop-trial-1-incongruent-28", "trial_type": "html-keyboard-response", "trial_index": 83, "time_elapsed": 234184, "internal_node_id": "0.0-4.0-79.0"}}, {"uniqueid": "w65617881:a98987745", "current_trial": 84, "dateTime": 1664873325893, "trialdata": {"rt": 1273, "stimulus": "<p id='stroop-text' class='stroop-yellow'>BRAIN</p>", "response": "y", "stimulus-type": "unrelated", "word": "BRAIN", "color": "yellow", "correct_response": "y", "trial_id": "stroop-trial-1-unrelated-15", "trial_type": "html-keyboard-response", "trial_index": 84, "time_elapsed": 235959, "internal_node_id": "0.0-4.0-80.0"}}, {"uniqueid": "w65617881:a98987745", "current_trial": 85, "dateTime": 1664873327558, "trialdata": {"rt": 1163, "stimulus": "<p id='stroop-text' class='stroop-green'>RED</p>", "response": "g", "stimulus-type": "incongruent", "word": "red", "color": "green", "correct_response": "g", "trial_id": "stroop-trial-1-incongruent-18", "trial_type": "html-keyboard-response", "trial_index": 85, "time_elapsed": 237624, "internal_node_id": "0.0-4.0-81.0"}}, {"uniqueid": "w65617881:a98987745", "current_trial": 86, "dateTime": 1664873329115, "trialdata": {"rt": 1056, "stimulus": "<p id='stroop-text' class='stroop-yellow'>MONKEY</p>", "response": "y", "stimulus-type": "unrelated", "word": "MONKEY", "color": "yellow", "correct_response": "y", "trial_id": "stroop-trial-1-unrelated-12", "trial_type": "html-keyboard-response", "trial_index": 86, "time_elapsed": 239181, "internal_node_id": "0.0-4.0-82.0"}}, {"uniqueid": "w65617881:a98987745", "current_trial": 87, "dateTime": 1664873330767, "trialdata": {"rt": 1150, "stimulus": "<p id='stroop-text' class='stroop-green'>BRAIN</p>", "response": "g", "stimulus-type": "unrelated", "word": "BRAIN", "color": "green", "correct_response": "g", "trial_id": "stroop-trial-1-unrelated-7", "trial_type": "html-keyboard-response", "trial_index": 87, "time_elapsed": 240833, "internal_node_id": "0.0-4.0-83.0"}}, {"uniqueid": "w65617881:a98987745", "current_trial": 88, "dateTime": 1664873332291, "trialdata": {"rt": 1021, "stimulus": "<p id='stroop-text' class='stroop-red'>RED</p>", "response": "r", "stimulus-type": "congruent", "word": "red", "color": "red", "correct_response": "r", "trial_id": "stroop-trial-1-congruent-14", "trial_type": "html-keyboard-response", "trial_index": 88, "time_elapsed": 242357, "internal_node_id": "0.0-4.0-84.0"}}, {"uniqueid": "w65617881:a98987745", "current_trial": 89, "dateTime": 1664873333931, "trialdata": {"rt": 1138, "stimulus": "<p id='stroop-text' class='stroop-yellow'>MONKEY</p>", "response": "y", "stimulus-type": "unrelated", "word": "MONKEY", "color": "yellow", "correct_response": "y", "trial_id": "stroop-trial-1-unrelated-5", "trial_type": "html-keyboard-response", "trial_index": 89, "time_elapsed": 243997, "internal_node_id": "0.0-4.0-85.0"}}, {"uniqueid": "w65617881:a98987745", "current_trial": 90, "dateTime": 1664873335679, "trialdata": {"rt": 1246, "stimulus": "<p id='stroop-text' class='stroop-red'>BLUE</p>", "response": "r", "stimulus-type": "incongruent", "word": "blue", "color": "red", "correct_response": "r", "trial_id": "stroop-trial-1-incongruent-16", "trial_type": "html-keyboard-response", "trial_index": 90, "time_elapsed": 245745, "internal_node_id": "0.0-4.0-86.0"}}, {"uniqueid": "w65617881:a98987745", "current_trial": 91, "dateTime": 1664873337371, "trialdata": {"rt": 1191, "stimulus": "<p id='stroop-text' class='stroop-red'>YELLOW</p>", "response": "r", "stimulus-type": "incongruent", "word": "yellow", "color": "red", "correct_response": "r", "trial_id": "stroop-trial-1-incongruent-27", "trial_type": "html-keyboard-response", "trial_index": 91, "time_elapsed": 247437, "internal_node_id": "0.0-4.0-87.0"}}, {"uniqueid": "w65617881:a98987745", "current_trial": 92, "dateTime": 1664873339092, "trialdata": {"rt": 1219, "stimulus": "<p id='stroop-text' class='stroop-yellow'>YELLOW</p>", "response": "y", "stimulus-type": "congruent", "word": "yellow", "color": "yellow", "correct_response": "y", "trial_id": "stroop-trial-1-congruent-18", "trial_type": "html-keyboard-response", "trial_index": 92, "time_elapsed": 249158, "internal_node_id": "0.0-4.0-88.0"}}, {"uniqueid": "w65617881:a98987745", "current_trial": 93, "dateTime": 1664873340702, "trialdata": {"rt": 1108, "stimulus": "<p id='stroop-text' class='stroop-blue'>STONE</p>", "response": "b", "stimulus-type": "unrelated", "word": "STONE", "color": "blue", "correct_response": "b", "trial_id": "stroop-trial-1-unrelated-17", "trial_type": "html-keyboard-response", "trial_index": 93, "time_elapsed": 250768, "internal_node_id": "0.0-4.0-89.0"}}, {"uniqueid": "w65617881:a98987745", "current_trial": 94, "dateTime": 1664873349776, "trialdata": {"rt": 8571, "stimulus": "  <h1> End of block! </h1>\n\n  You have reached the end of the block 1/5. If you need a short break, feel free to take one now before moving on.\n\n  <br><br>\n  In the next block, you will complete another 90 rounds of this game.\n\n  <br><br>\n  <div style='text-align: center;'>Press <code>space</code> to begin.</div>\n  <br><br>\n<div style='text-align: center;'>(If the experiment doesn't continue, try clicking on the text and then pressing <code>space</code>.)</div>", "response": " ", "trial_id": "stroop_1_ready_2", "trial_type": "html-keyboard-response", "trial_index": 94, "time_elapsed": 259842, "internal_node_id": "0.0-5.0"}}, {"uniqueid": "w65617881:a98987745", "current_trial": 95, "dateTime": 1664873350922, "trialdata": {"rt": 1144, "stimulus": "<p id='stroop-text' class='stroop-red'>YELLOW</p>", "response": "r", "stimulus-type": "incongruent", "word": "yellow", "color": "red", "correct_response": "r", "trial_id": "stroop-trial-1-incongruent-16", "trial_type": "html-keyboard-response", "trial_index": 95, "time_elapsed": 260988, "internal_node_id": "0.0-6.0-0.0"}}, {"uniqueid": "w65617881:a98987745", "current_trial": 96, "dateTime": 1664873352440, "trialdata": {"rt": 1017, "stimulus": "<p id='stroop-text' class='stroop-red'>BLUE</p>", "response": "r", "stimulus-type": "incongruent", "word": "blue", "color": "red", "correct_response": "r", "trial_id": "stroop-trial-1-incongruent-19", "trial_type": "html-keyboard-response", "trial_index": 96, "time_elapsed": 262506, "internal_node_id": "0.0-6.0-1.0"}}, {"uniqueid": "w65617881:a98987745", "current_trial": 97, "dateTime": 1664873354208, "trialdata": {"rt": 1265, "stimulus": "<p id='stroop-text' class='stroop-yellow'>YELLOW</p>", "response": "y", "stimulus-type": "congruent", "word": "yellow", "color": "yellow", "correct_response": "y", "trial_id": "stroop-trial-1-congruent-9", "trial_type": "html-keyboard-response", "trial_index": 97, "time_elapsed": 264274, "internal_node_id": "0.0-6.0-2.0"}}, {"uniqueid": "w65617881:a98987745", "current_trial": 98, "dateTime": 1664873355800, "trialdata": {"rt": 1091, "stimulus": "<p id='stroop-text' class='stroop-yellow'>STONE</p>", "response": "y", "stimulus-type": "unrelated", "word": "STONE", "color": "yellow", "correct_response": "y", "trial_id": "stroop-trial-1-unrelated-2", "trial_type": "html-keyboard-response", "trial_index": 98, "time_elapsed": 265866, "internal_node_id": "0.0-6.0-3.0"}}, {"uniqueid": "w65617881:a98987745", "current_trial": 99, "dateTime": 1664873357700, "trialdata": {"rt": 1398, "stimulus": "<p id='stroop-text' class='stroop-red'>YELLOW</p>", "response": "r", "stimulus-type": "incongruent", "word": "yellow", "color": "red", "correct_response": "r", "trial_id": "stroop-trial-1-incongruent-26", "trial_type": "html-keyboard-response", "trial_index": 99, "time_elapsed": 267766, "internal_node_id": "0.0-6.0-4.0"}}, {"uniqueid": "w65617881:a98987745", "current_trial": 100, "dateTime": 1664873359614, "trialdata": {"rt": 1412, "stimulus": "<p id='stroop-text' class='stroop-green'>STONE</p>", "response": "g", "stimulus-type": "unrelated", "word": "STONE", "color": "green", "correct_response": "g", "trial_id": "stroop-trial-1-unrelated-3", "trial_type": "html-keyboard-response", "trial_index": 100, "time_elapsed": 269680, "internal_node_id": "0.0-6.0-5.0"}}, {"uniqueid": "w65617881:a98987745", "current_trial": 101, "dateTime": 1664873361566, "trialdata": {"rt": 1450, "stimulus": "<p id='stroop-text' class='stroop-blue'>SHIP</p>", "response": "b", "stimulus-type": "unrelated", "word": "SHIP", "color": "blue", "correct_response": "b", "trial_id": "stroop-trial-1-unrelated-21", "trial_type": "html-keyboard-response", "trial_index": 101, "time_elapsed": 271632, "internal_node_id": "0.0-6.0-6.0"}}, {"uniqueid": "w65617881:a98987745", "current_trial": 102, "dateTime": 1664873363302, "trialdata": {"rt": 1234, "stimulus": "<p id='stroop-text' class='stroop-yellow'>YELLOW</p>", "response": "y", "stimulus-type": "congruent", "word": "yellow", "color": "yellow", "correct_response": "y", "trial_id": "stroop-trial-1-congruent-12", "trial_type": "html-keyboard-response", "trial_index": 102, "time_elapsed": 273368, "internal_node_id": "0.0-6.0-7.0"}}, {"uniqueid": "w65617881:a98987745", "current_trial": 103, "dateTime": 1664873364807, "trialdata": {"rt": 1002, "stimulus": "<p id='stroop-text' class='stroop-blue'>BRAIN</p>", "response": "b", "stimulus-type": "unrelated", "word": "BRAIN", "color": "blue", "correct_response": "b", "trial_id": "stroop-trial-1-unrelated-16", "trial_type": "html-keyboard-response", "trial_index": 103, "time_elapsed": 274873, "internal_node_id": "0.0-6.0-8.0"}}, {"uniqueid": "w65617881:a98987745", "current_trial": 104, "dateTime": 1664873366603, "trialdata": {"rt": 1295, "stimulus": "<p id='stroop-text' class='stroop-yellow'>DOG</p>", "response": "y", "stimulus-type": "unrelated", "word": "DOG", "color": "yellow", "correct_response": "y", "trial_id": "stroop-trial-1-unrelated-1", "trial_type": "html-keyboard-response", "trial_index": 104, "time_elapsed": 276669, "internal_node_id": "0.0-6.0-9.0"}}, {"uniqueid": "w65617881:a98987745", "current_trial": 105, "dateTime": 1664873368418, "trialdata": {"rt": 1313, "stimulus": "<p id='stroop-text' class='stroop-green'>YELLOW</p>", "response": "g", "stimulus-type": "incongruent", "word": "yellow", "color": "green", "correct_response": "g", "trial_id": "stroop-trial-1-incongruent-10", "trial_type": "html-keyboard-response", "trial_index": 105, "time_elapsed": 278483, "internal_node_id": "0.0-6.0-10.0"}}, {"uniqueid": "w65617881:a98987745", "current_trial": 106, "dateTime": 1664873370008, "trialdata": {"rt": 1088, "stimulus": "<p id='stroop-text' class='stroop-yellow'>BRAIN</p>", "response": "y", "stimulus-type": "unrelated", "word": "BRAIN", "color": "yellow", "correct_response": "y", "trial_id": "stroop-trial-1-unrelated-27", "trial_type": "html-keyboard-response", "trial_index": 106, "time_elapsed": 280074, "internal_node_id": "0.0-6.0-11.0"}}, {"uniqueid": "w65617881:a98987745", "current_trial": 107, "dateTime": 1664873371748, "trialdata": {"rt": 1239, "stimulus": "<p id='stroop-text' class='stroop-red'>YELLOW</p>", "response": "r", "stimulus-type": "incongruent", "word": "yellow", "color": "red", "correct_response": "r", "trial_id": "stroop-trial-1-incongruent-8", "trial_type": "html-keyboard-response", "trial_index": 107, "time_elapsed": 281814, "internal_node_id": "0.0-6.0-12.0"}}, {"uniqueid": "w65617881:a98987745", "current_trial": 108, "dateTime": 1664873373610, "trialdata": {"rt": 1360, "stimulus": "<p id='stroop-text' class='stroop-yellow'>GREEN</p>", "response": "y", "stimulus-type": "incongruent", "word": "green", "color": "yellow", "correct_response": "y", "trial_id": "stroop-trial-1-incongruent-22", "trial_type": "html-keyboard-response", "trial_index": 108, "time_elapsed": 283676, "internal_node_id": "0.0-6.0-13.0"}}, {"uniqueid": "w65617881:a98987745", "current_trial": 109, "dateTime": 1664873375148, "trialdata": {"rt": 1036, "stimulus": "<p id='stroop-text' class='stroop-green'>DOG</p>", "response": "g", "stimulus-type": "unrelated", "word": "DOG", "color": "green", "correct_response": "g", "trial_id": "stroop-trial-1-unrelated-30", "trial_type": "html-keyboard-response", "trial_index": 109, "time_elapsed": 285214, "internal_node_id": "0.0-6.0-14.0"}}, {"uniqueid": "w65617881:a98987745", "current_trial": 110, "dateTime": 1664873376757, "trialdata": {"rt": 1107, "stimulus": "<p id='stroop-text' class='stroop-blue'>BLUE</p>", "response": "b", "stimulus-type": "congruent", "word": "blue", "color": "blue", "correct_response": "b", "trial_id": "stroop-trial-1-congruent-3", "trial_type": "html-keyboard-response", "trial_index": 110, "time_elapsed": 286822, "internal_node_id": "0.0-6.0-15.0"}}, {"uniqueid": "w65617881:a98987745", "current_trial": 111, "dateTime": 1664873378298, "trialdata": {"rt": 1040, "stimulus": "<p id='stroop-text' class='stroop-yellow'>MONKEY</p>", "response": "y", "stimulus-type": "unrelated", "word": "MONKEY", "color": "yellow", "correct_response": "y", "trial_id": "stroop-trial-1-unrelated-14", "trial_type": "html-keyboard-response", "trial_index": 111, "time_elapsed": 288364, "internal_node_id": "0.0-6.0-16.0"}}, {"uniqueid": "w65617881:a98987745", "current_trial": 112, "dateTime": 1664873380188, "trialdata": {"rt": 1386, "stimulus": "<p id='stroop-text' class='stroop-yellow'>RED</p>", "response": "y", "stimulus-type": "incongruent", "word": "red", "color": "yellow", "correct_response": "y", "trial_id": "stroop-trial-1-incongruent-30", "trial_type": "html-keyboard-response", "trial_index": 112, "time_elapsed": 290254, "internal_node_id": "0.0-6.0-17.0"}}, {"uniqueid": "w65617881:a98987745", "current_trial": 113, "dateTime": 1664873381869, "trialdata": {"rt": 1178, "stimulus": "<p id='stroop-text' class='stroop-green'>GREEN</p>", "response": "g", "stimulus-type": "congruent", "word": "green", "color": "green", "correct_response": "g", "trial_id": "stroop-trial-1-congruent-18", "trial_type": "html-keyboard-response", "trial_index": 113, "time_elapsed": 291935, "internal_node_id": "0.0-6.0-18.0"}}, {"uniqueid": "w65617881:a98987745", "current_trial": 114, "dateTime": 1664873383397, "trialdata": {"rt": 1025, "stimulus": "<p id='stroop-text' class='stroop-blue'>WINDOW</p>", "response": "b", "stimulus-type": "unrelated", "word": "WINDOW", "color": "blue", "correct_response": "b", "trial_id": "stroop-trial-1-unrelated-10", "trial_type": "html-keyboard-response", "trial_index": 114, "time_elapsed": 293463, "internal_node_id": "0.0-6.0-19.0"}}, {"uniqueid": "w65617881:a98987745", "current_trial": 115, "dateTime": 1664873385201, "trialdata": {"rt": 1300, "stimulus": "<p id='stroop-text' class='stroop-yellow'>BOTTLE</p>", "response": "y", "stimulus-type": "unrelated", "word": "BOTTLE", "color": "yellow", "correct_response": "y", "trial_id": "stroop-trial-1-unrelated-13", "trial_type": "html-keyboard-response", "trial_index": 115, "time_elapsed": 295266, "internal_node_id": "0.0-6.0-20.0"}}, {"uniqueid": "w65617881:a98987745", "current_trial": 116, "dateTime": 1664873386898, "trialdata": {"rt": 1195, "stimulus": "<p id='stroop-text' class='stroop-yellow'>WINDOW</p>", "response": "y", "stimulus-type": "unrelated", "word": "WINDOW", "color": "yellow", "correct_response": "y", "trial_id": "stroop-trial-1-unrelated-4", "trial_type": "html-keyboard-response", "trial_index": 116, "time_elapsed": 296964, "internal_node_id": "0.0-6.0-21.0"}}, {"uniqueid": "w65617881:a98987745", "current_trial": 117, "dateTime": 1664873388527, "trialdata": {"rt": 1127, "stimulus": "<p id='stroop-text' class='stroop-yellow'>DOG</p>", "response": "y", "stimulus-type": "unrelated", "word": "DOG", "color": "yellow", "correct_response": "y", "trial_id": "stroop-trial-1-unrelated-18", "trial_type": "html-keyboard-response", "trial_index": 117, "time_elapsed": 298592, "internal_node_id": "0.0-6.0-22.0"}}, {"uniqueid": "w65617881:a98987745", "current_trial": 118, "dateTime": 1664873390157, "trialdata": {"rt": 1128, "stimulus": "<p id='stroop-text' class='stroop-red'>RED</p>", "response": "r", "stimulus-type": "congruent", "word": "red", "color": "red", "correct_response": "r", "trial_id": "stroop-trial-1-congruent-1", "trial_type": "html-keyboard-response", "trial_index": 118, "time_elapsed": 300223, "internal_node_id": "0.0-6.0-23.0"}}, {"uniqueid": "w65617881:a98987745", "current_trial": 119, "dateTime": 1664873392180, "trialdata": {"rt": 1521, "stimulus": "<p id='stroop-text' class='stroop-blue'>GREEN</p>", "response": "b", "stimulus-type": "incongruent", "word": "green", "color": "blue", "correct_response": "b", "trial_id": "stroop-trial-1-incongruent-1", "trial_type": "html-keyboard-response", "trial_index": 119, "time_elapsed": 302246, "internal_node_id": "0.0-6.0-24.0"}}, {"uniqueid": "w65617881:a98987745", "current_trial": 120, "dateTime": 1664873394017, "trialdata": {"rt": 1334, "stimulus": "<p id='stroop-text' class='stroop-green'>YELLOW</p>", "response": "g", "stimulus-type": "incongruent", "word": "yellow", "color": "green", "correct_response": "g", "trial_id": "stroop-trial-1-incongruent-20", "trial_type": "html-keyboard-response", "trial_index": 120, "time_elapsed": 304083, "internal_node_id": "0.0-6.0-25.0"}}, {"uniqueid": "w65617881:a98987745", "current_trial": 121, "dateTime": 1664873395623, "trialdata": {"rt": 1105, "stimulus": "<p id='stroop-text' class='stroop-blue'>RED</p>", "response": "b", "stimulus-type": "incongruent", "word": "red", "color": "blue", "correct_response": "b", "trial_id": "stroop-trial-1-incongruent-11", "trial_type": "html-keyboard-response", "trial_index": 121, "time_elapsed": 305689, "internal_node_id": "0.0-6.0-26.0"}}, {"uniqueid": "w65617881:a98987745", "current_trial": 122, "dateTime": 1664873397136, "trialdata": {"rt": 1011, "stimulus": "<p id='stroop-text' class='stroop-red'>RED</p>", "response": "r", "stimulus-type": "congruent", "word": "red", "color": "red", "correct_response": "r", "trial_id": "stroop-trial-1-congruent-4", "trial_type": "html-keyboard-response", "trial_index": 122, "time_elapsed": 307202, "internal_node_id": "0.0-6.0-27.0"}}, {"uniqueid": "w65617881:a98987745", "current_trial": 123, "dateTime": 1664873398674, "trialdata": {"rt": 1036, "stimulus": "<p id='stroop-text' class='stroop-red'>RED</p>", "response": "r", "stimulus-type": "congruent", "word": "red", "color": "red", "correct_response": "r", "trial_id": "stroop-trial-1-congruent-14", "trial_type": "html-keyboard-response", "trial_index": 123, "time_elapsed": 308740, "internal_node_id": "0.0-6.0-28.0"}}, {"uniqueid": "w65617881:a98987745", "current_trial": 124, "dateTime": 1664873400340, "trialdata": {"rt": 1164, "stimulus": "<p id='stroop-text' class='stroop-blue'>BLUE</p>", "response": "b", "stimulus-type": "congruent", "word": "blue", "color": "blue", "correct_response": "b", "trial_id": "stroop-trial-1-congruent-23", "trial_type": "html-keyboard-response", "trial_index": 124, "time_elapsed": 310406, "internal_node_id": "0.0-6.0-29.0"}}, {"uniqueid": "w65617881:a98987745", "current_trial": 125, "dateTime": 1664873401878, "trialdata": {"rt": 1036, "stimulus": "<p id='stroop-text' class='stroop-red'>BOAT</p>", "response": "r", "stimulus-type": "unrelated", "word": "BOAT", "color": "red", "correct_response": "r", "trial_id": "stroop-trial-1-unrelated-12", "trial_type": "html-keyboard-response", "trial_index": 125, "time_elapsed": 311944, "internal_node_id": "0.0-6.0-30.0"}}, {"uniqueid": "w65617881:a98987745", "current_trial": 126, "dateTime": 1664873403531, "trialdata": {"rt": 1151, "stimulus": "<p id='stroop-text' class='stroop-red'>YELLOW</p>", "response": "r", "stimulus-type": "incongruent", "word": "yellow", "color": "red", "correct_response": "r", "trial_id": "stroop-trial-1-incongruent-17", "trial_type": "html-keyboard-response", "trial_index": 126, "time_elapsed": 313597, "internal_node_id": "0.0-6.0-31.0"}}, {"uniqueid": "w65617881:a98987745", "current_trial": 127, "dateTime": 1664873405089, "trialdata": {"rt": 1056, "stimulus": "<p id='stroop-text' class='stroop-yellow'>BLUE</p>", "response": "y", "stimulus-type": "incongruent", "word": "blue", "color": "yellow", "correct_response": "y", "trial_id": "stroop-trial-1-incongruent-7", "trial_type": "html-keyboard-response", "trial_index": 127, "time_elapsed": 315155, "internal_node_id": "0.0-6.0-32.0"}}, {"uniqueid": "w65617881:a98987745", "current_trial": 128, "dateTime": 1664873406737, "trialdata": {"rt": 1146, "stimulus": "<p id='stroop-text' class='stroop-yellow'>YELLOW</p>", "response": "y", "stimulus-type": "congruent", "word": "yellow", "color": "yellow", "correct_response": "y", "trial_id": "stroop-trial-1-congruent-2", "trial_type": "html-keyboard-response", "trial_index": 128, "time_elapsed": 316803, "internal_node_id": "0.0-6.0-33.0"}}, {"uniqueid": "w65617881:a98987745", "current_trial": 129, "dateTime": 1664873409019, "trialdata": {"rt": 1780, "stimulus": "<p id='stroop-text' class='stroop-yellow'>BLUE</p>", "response": "y", "stimulus-type": "incongruent", "word": "blue", "color": "yellow", "correct_response": "y", "trial_id": "stroop-trial-1-incongruent-2", "trial_type": "html-keyboard-response", "trial_index": 129, "time_elapsed": 319085, "internal_node_id": "0.0-6.0-34.0"}}, {"uniqueid": "w65617881:a98987745", "current_trial": 130, "dateTime": 1664873410531, "trialdata": {"rt": 1000, "stimulus": "<p id='stroop-text' class='stroop-red'>SHIP</p>", "response": "r", "stimulus-type": "unrelated", "word": "SHIP", "color": "red", "correct_response": "r", "trial_id": "stroop-trial-1-unrelated-11", "trial_type": "html-keyboard-response", "trial_index": 130, "time_elapsed": 320597, "internal_node_id": "0.0-6.0-35.0"}}, {"uniqueid": "w65617881:a98987745", "current_trial": 131, "dateTime": 1664873411994, "trialdata": {"rt": 961, "stimulus": "<p id='stroop-text' class='stroop-red'>RED</p>", "response": "r", "stimulus-type": "congruent", "word": "red", "color": "red", "correct_response": "r", "trial_id": "stroop-trial-1-congruent-15", "trial_type": "html-keyboard-response", "trial_index": 131, "time_elapsed": 322060, "internal_node_id": "0.0-6.0-36.0"}}, {"uniqueid": "w65617881:a98987745", "current_trial": 132, "dateTime": 1664873413760, "trialdata": {"rt": 1265, "stimulus": "<p id='stroop-text' class='stroop-yellow'>YELLOW</p>", "response": "y", "stimulus-type": "congruent", "word": "yellow", "color": "yellow", "correct_response": "y", "trial_id": "stroop-trial-1-congruent-11", "trial_type": "html-keyboard-response", "trial_index": 132, "time_elapsed": 323826, "internal_node_id": "0.0-6.0-37.0"}}, {"uniqueid": "w65617881:a98987745", "current_trial": 133, "dateTime": 1664873415361, "trialdata": {"rt": 1098, "stimulus": "<p id='stroop-text' class='stroop-blue'>RED</p>", "response": "b", "stimulus-type": "incongruent", "word": "red", "color": "blue", "correct_response": "b", "trial_id": "stroop-trial-1-incongruent-24", "trial_type": "html-keyboard-response", "trial_index": 133, "time_elapsed": 325427, "internal_node_id": "0.0-6.0-38.0"}}, {"uniqueid": "w65617881:a98987745", "current_trial": 134, "dateTime": 1664873416993, "trialdata": {"rt": 1119, "stimulus": "<p id='stroop-text' class='stroop-yellow'>BLUE</p>", "response": "y", "stimulus-type": "incongruent", "word": "blue", "color": "yellow", "correct_response": "y", "trial_id": "stroop-trial-1-incongruent-21", "trial_type": "html-keyboard-response", "trial_index": 134, "time_elapsed": 327059, "internal_node_id": "0.0-6.0-39.0"}}, {"uniqueid": "w65617881:a98987745", "current_trial": 135, "dateTime": 1664873418680, "trialdata": {"rt": 1185, "stimulus": "<p id='stroop-text' class='stroop-blue'>DOG</p>", "response": "b", "stimulus-type": "unrelated", "word": "DOG", "color": "blue", "correct_response": "b", "trial_id": "stroop-trial-1-unrelated-15", "trial_type": "html-keyboard-response", "trial_index": 135, "time_elapsed": 328746, "internal_node_id": "0.0-6.0-40.0"}}, {"uniqueid": "w65617881:a98987745", "current_trial": 136, "dateTime": 1664873420208, "trialdata": {"rt": 1025, "stimulus": "<p id='stroop-text' class='stroop-red'>BLUE</p>", "response": "r", "stimulus-type": "incongruent", "word": "blue", "color": "red", "correct_response": "r", "trial_id": "stroop-trial-1-incongruent-6", "trial_type": "html-keyboard-response", "trial_index": 136, "time_elapsed": 330274, "internal_node_id": "0.0-6.0-41.0"}}, {"uniqueid": "w65617881:a98987745", "current_trial": 137, "dateTime": 1664873421896, "trialdata": {"rt": 1186, "stimulus": "<p id='stroop-text' class='stroop-blue'>BLUE</p>", "response": "b", "stimulus-type": "congruent", "word": "blue", "color": "blue", "correct_response": "b", "trial_id": "stroop-trial-1-congruent-17", "trial_type": "html-keyboard-response", "trial_index": 137, "time_elapsed": 331962, "internal_node_id": "0.0-6.0-42.0"}}, {"uniqueid": "w65617881:a98987745", "current_trial": 138, "dateTime": 1664873423519, "trialdata": {"rt": 1121, "stimulus": "<p id='stroop-text' class='stroop-blue'>BRIDGE</p>", "response": "b", "stimulus-type": "unrelated", "word": "BRIDGE", "color": "blue", "correct_response": "b", "trial_id": "stroop-trial-1-unrelated-8", "trial_type": "html-keyboard-response", "trial_index": 138, "time_elapsed": 333585, "internal_node_id": "0.0-6.0-43.0"}}, {"uniqueid": "w65617881:a98987745", "current_trial": 139, "dateTime": 1664873425065, "trialdata": {"rt": 1044, "stimulus": "<p id='stroop-text' class='stroop-blue'>BLUE</p>", "response": "b", "stimulus-type": "congruent", "word": "blue", "color": "blue", "correct_response": "b", "trial_id": "stroop-trial-1-congruent-21", "trial_type": "html-keyboard-response", "trial_index": 139, "time_elapsed": 335131, "internal_node_id": "0.0-6.0-44.0"}}, {"uniqueid": "w65617881:a98987745", "current_trial": 140, "dateTime": 1664873426727, "trialdata": {"rt": 1160, "stimulus": "<p id='stroop-text' class='stroop-yellow'>GREEN</p>", "response": "y", "stimulus-type": "incongruent", "word": "green", "color": "yellow", "correct_response": "y", "trial_id": "stroop-trial-1-incongruent-3", "trial_type": "html-keyboard-response", "trial_index": 140, "time_elapsed": 336793, "internal_node_id": "0.0-6.0-45.0"}}, {"uniqueid": "w65617881:a98987745", "current_trial": 141, "dateTime": 1664873428290, "trialdata": {"rt": 1061, "stimulus": "<p id='stroop-text' class='stroop-yellow'>YELLOW</p>", "response": "y", "stimulus-type": "congruent", "word": "yellow", "color": "yellow", "correct_response": "y", "trial_id": "stroop-trial-1-congruent-30", "trial_type": "html-keyboard-response", "trial_index": 141, "time_elapsed": 338355, "internal_node_id": "0.0-6.0-46.0"}}, {"uniqueid": "w65617881:a98987745", "current_trial": 142, "dateTime": 1664873429811, "trialdata": {"rt": 1019, "stimulus": "<p id='stroop-text' class='stroop-red'>SHIP</p>", "response": "r", "stimulus-type": "unrelated", "word": "SHIP", "color": "red", "correct_response": "r", "trial_id": "stroop-trial-1-unrelated-5", "trial_type": "html-keyboard-response", "trial_index": 142, "time_elapsed": 339876, "internal_node_id": "0.0-6.0-47.0"}}, {"uniqueid": "w65617881:a98987745", "current_trial": 143, "dateTime": 1664873431633, "trialdata": {"rt": 1321, "stimulus": "<p id='stroop-text' class='stroop-blue'>BLUE</p>", "response": "b", "stimulus-type": "congruent", "word": "blue", "color": "blue", "correct_response": "b", "trial_id": "stroop-trial-1-congruent-22", "trial_type": "html-keyboard-response", "trial_index": 143, "time_elapsed": 341699, "internal_node_id": "0.0-6.0-48.0"}}, {"uniqueid": "w65617881:a98987745", "current_trial": 144, "dateTime": 1664873433461, "trialdata": {"rt": 1327, "stimulus": "<p id='stroop-text' class='stroop-blue'>GREEN</p>", "response": "b", "stimulus-type": "incongruent", "word": "green", "color": "blue", "correct_response": "b", "trial_id": "stroop-trial-1-incongruent-9", "trial_type": "html-keyboard-response", "trial_index": 144, "time_elapsed": 343527, "internal_node_id": "0.0-6.0-49.0"}}, {"uniqueid": "w65617881:a98987745", "current_trial": 145, "dateTime": 1664873435166, "trialdata": {"rt": 1203, "stimulus": "<p id='stroop-text' class='stroop-green'>GREEN</p>", "response": "g", "stimulus-type": "congruent", "word": "green", "color": "green", "correct_response": "g", "trial_id": "stroop-trial-1-congruent-6", "trial_type": "html-keyboard-response", "trial_index": 145, "time_elapsed": 345232, "internal_node_id": "0.0-6.0-50.0"}}, {"uniqueid": "w65617881:a98987745", "current_trial": 146, "dateTime": 1664873436649, "trialdata": {"rt": 981, "stimulus": "<p id='stroop-text' class='stroop-green'>GREEN</p>", "response": "g", "stimulus-type": "congruent", "word": "green", "color": "green", "correct_response": "g", "trial_id": "stroop-trial-1-congruent-19", "trial_type": "html-keyboard-response", "trial_index": 146, "time_elapsed": 346715, "internal_node_id": "0.0-6.0-51.0"}}, {"uniqueid": "w65617881:a98987745", "current_trial": 147, "dateTime": 1664873438386, "trialdata": {"rt": 1235, "stimulus": "<p id='stroop-text' class='stroop-blue'>BRIDGE</p>", "response": "b", "stimulus-type": "unrelated", "word": "BRIDGE", "color": "blue", "correct_response": "b", "trial_id": "stroop-trial-1-unrelated-9", "trial_type": "html-keyboard-response", "trial_index": 147, "time_elapsed": 348452, "internal_node_id": "0.0-6.0-52.0"}}, {"uniqueid": "w65617881:a98987745", "current_trial": 148, "dateTime": 1664873440003, "trialdata": {"rt": 1115, "stimulus": "<p id='stroop-text' class='stroop-yellow'>BRAIN</p>", "response": "y", "stimulus-type": "unrelated", "word": "BRAIN", "color": "yellow", "correct_response": "y", "trial_id": "stroop-trial-1-unrelated-24", "trial_type": "html-keyboard-response", "trial_index": 148, "time_elapsed": 350069, "internal_node_id": "0.0-6.0-53.0"}}, {"uniqueid": "w65617881:a98987745", "current_trial": 149, "dateTime": 1664873441969, "trialdata": {"rt": 1463, "stimulus": "<p id='stroop-text' class='stroop-yellow'>GREEN</p>", "response": "y", "stimulus-type": "incongruent", "word": "green", "color": "yellow", "correct_response": "y", "trial_id": "stroop-trial-1-incongruent-23", "trial_type": "html-keyboard-response", "trial_index": 149, "time_elapsed": 352035, "internal_node_id": "0.0-6.0-54.0"}}, {"uniqueid": "w65617881:a98987745", "current_trial": 150, "dateTime": 1664873443655, "trialdata": {"rt": 1183, "stimulus": "<p id='stroop-text' class='stroop-blue'>SHIP</p>", "response": "b", "stimulus-type": "unrelated", "word": "SHIP", "color": "blue", "correct_response": "b", "trial_id": "stroop-trial-1-unrelated-22", "trial_type": "html-keyboard-response", "trial_index": 150, "time_elapsed": 353721, "internal_node_id": "0.0-6.0-55.0"}}, {"uniqueid": "w65617881:a98987745", "current_trial": 151, "dateTime": 1664873445157, "trialdata": {"rt": 1000, "stimulus": "<p id='stroop-text' class='stroop-blue'>BRAIN</p>", "response": "b", "stimulus-type": "unrelated", "word": "BRAIN", "color": "blue", "correct_response": "b", "trial_id": "stroop-trial-1-unrelated-20", "trial_type": "html-keyboard-response", "trial_index": 151, "time_elapsed": 355223, "internal_node_id": "0.0-6.0-56.0"}}, {"uniqueid": "w65617881:a98987745", "current_trial": 152, "dateTime": 1664873446641, "trialdata": {"rt": 979, "stimulus": "<p id='stroop-text' class='stroop-blue'>BLUE</p>", "response": "b", "stimulus-type": "congruent", "word": "blue", "color": "blue", "correct_response": "b", "trial_id": "stroop-trial-1-congruent-16", "trial_type": "html-keyboard-response", "trial_index": 152, "time_elapsed": 356706, "internal_node_id": "0.0-6.0-57.0"}}, {"uniqueid": "w65617881:a98987745", "current_trial": 153, "dateTime": 1664873448180, "trialdata": {"rt": 1038, "stimulus": "<p id='stroop-text' class='stroop-red'>RED</p>", "response": "r", "stimulus-type": "congruent", "word": "red", "color": "red", "correct_response": "r", "trial_id": "stroop-trial-1-congruent-20", "trial_type": "html-keyboard-response", "trial_index": 153, "time_elapsed": 358246, "internal_node_id": "0.0-6.0-58.0"}}, {"uniqueid": "w65617881:a98987745", "current_trial": 154, "dateTime": 1664873449757, "trialdata": {"rt": 1075, "stimulus": "<p id='stroop-text' class='stroop-blue'>BLUE</p>", "response": "b", "stimulus-type": "congruent", "word": "blue", "color": "blue", "correct_response": "b", "trial_id": "stroop-trial-1-congruent-28", "trial_type": "html-keyboard-response", "trial_index": 154, "time_elapsed": 359823, "internal_node_id": "0.0-6.0-59.0"}}, {"uniqueid": "w65617881:a98987745", "current_trial": 155, "dateTime": 1664873451419, "trialdata": {"rt": 1160, "stimulus": "<p id='stroop-text' class='stroop-yellow'>YELLOW</p>", "response": "y", "stimulus-type": "congruent", "word": "yellow", "color": "yellow", "correct_response": "y", "trial_id": "stroop-trial-1-congruent-8", "trial_type": "html-keyboard-response", "trial_index": 155, "time_elapsed": 361485, "internal_node_id": "0.0-6.0-60.0"}}, {"uniqueid": "w65617881:a98987745", "current_trial": 156, "dateTime": 1664873453117, "trialdata": {"rt": 1195, "stimulus": "<p id='stroop-text' class='stroop-green'>SHIP</p>", "response": "g", "stimulus-type": "unrelated", "word": "SHIP", "color": "green", "correct_response": "g", "trial_id": "stroop-trial-1-unrelated-7", "trial_type": "html-keyboard-response", "trial_index": 156, "time_elapsed": 363183, "internal_node_id": "0.0-6.0-61.0"}}, {"uniqueid": "w65617881:a98987745", "current_trial": 157, "dateTime": 1664873454712, "trialdata": {"rt": 1092, "stimulus": "<p id='stroop-text' class='stroop-red'>RED</p>", "response": "r", "stimulus-type": "congruent", "word": "red", "color": "red", "correct_response": "r", "trial_id": "stroop-trial-1-congruent-13", "trial_type": "html-keyboard-response", "trial_index": 157, "time_elapsed": 364777, "internal_node_id": "0.0-6.0-62.0"}}, {"uniqueid": "w65617881:a98987745", "current_trial": 158, "dateTime": 1664873456499, "trialdata": {"rt": 1285, "stimulus": "<p id='stroop-text' class='stroop-green'>BLUE</p>", "response": "g", "stimulus-type": "incongruent", "word": "blue", "color": "green", "correct_response": "g", "trial_id": "stroop-trial-1-incongruent-29", "trial_type": "html-keyboard-response", "trial_index": 158, "time_elapsed": 366565, "internal_node_id": "0.0-6.0-63.0"}}, {"uniqueid": "w65617881:a98987745", "current_trial": 159, "dateTime": 1664873458183, "trialdata": {"rt": 1181, "stimulus": "<p id='stroop-text' class='stroop-red'>BLUE</p>", "response": "r", "stimulus-type": "incongruent", "word": "blue", "color": "red", "correct_response": "r", "trial_id": "stroop-trial-1-incongruent-25", "trial_type": "html-keyboard-response", "trial_index": 159, "time_elapsed": 368248, "internal_node_id": "0.0-6.0-64.0"}}, {"uniqueid": "w65617881:a98987745", "current_trial": 160, "dateTime": 1664873459838, "trialdata": {"rt": 1153, "stimulus": "<p id='stroop-text' class='stroop-red'>BLUE</p>", "response": "r", "stimulus-type": "incongruent", "word": "blue", "color": "red", "correct_response": "r", "trial_id": "stroop-trial-1-incongruent-14", "trial_type": "html-keyboard-response", "trial_index": 160, "time_elapsed": 369904, "internal_node_id": "0.0-6.0-65.0"}}, {"uniqueid": "w65617881:a98987745", "current_trial": 161, "dateTime": 1664873461486, "trialdata": {"rt": 1146, "stimulus": "<p id='stroop-text' class='stroop-green'>CHAIR</p>", "response": "g", "stimulus-type": "unrelated", "word": "CHAIR", "color": "green", "correct_response": "g", "trial_id": "stroop-trial-1-unrelated-28", "trial_type": "html-keyboard-response", "trial_index": 161, "time_elapsed": 371552, "internal_node_id": "0.0-6.0-66.0"}}, {"uniqueid": "w65617881:a98987745", "current_trial": 162, "dateTime": 1664873463278, "trialdata": {"rt": 1289, "stimulus": "<p id='stroop-text' class='stroop-green'>GREEN</p>", "response": "g", "stimulus-type": "congruent", "word": "green", "color": "green", "correct_response": "g", "trial_id": "stroop-trial-1-congruent-27", "trial_type": "html-keyboard-response", "trial_index": 162, "time_elapsed": 373343, "internal_node_id": "0.0-6.0-67.0"}}, {"uniqueid": "w65617881:a98987745", "current_trial": 163, "dateTime": 1664873464871, "trialdata": {"rt": 1091, "stimulus": "<p id='stroop-text' class='stroop-red'>BRIDGE</p>", "response": "r", "stimulus-type": "unrelated", "word": "BRIDGE", "color": "red", "correct_response": "r", "trial_id": "stroop-trial-1-unrelated-23", "trial_type": "html-keyboard-response", "trial_index": 163, "time_elapsed": 374937, "internal_node_id": "0.0-6.0-68.0"}}, {"uniqueid": "w65617881:a98987745", "current_trial": 164, "dateTime": 1664873466576, "trialdata": {"rt": 1203, "stimulus": "<p id='stroop-text' class='stroop-yellow'>RED</p>", "response": "y", "stimulus-type": "incongruent", "word": "red", "color": "yellow", "correct_response": "y", "trial_id": "stroop-trial-1-incongruent-15", "trial_type": "html-keyboard-response", "trial_index": 164, "time_elapsed": 376642, "internal_node_id": "0.0-6.0-69.0"}}, {"uniqueid": "w65617881:a98987745", "current_trial": 165, "dateTime": 1664873468238, "trialdata": {"rt": 1159, "stimulus": "<p id='stroop-text' class='stroop-green'>BLUE</p>", "response": "g", "stimulus-type": "incongruent", "word": "blue", "color": "green", "correct_response": "g", "trial_id": "stroop-trial-1-incongruent-13", "trial_type": "html-keyboard-response", "trial_index": 165, "time_elapsed": 378304, "internal_node_id": "0.0-6.0-70.0"}}, {"uniqueid": "w65617881:a98987745", "current_trial": 166, "dateTime": 1664873469765, "trialdata": {"rt": 1026, "stimulus": "<p id='stroop-text' class='stroop-green'>GREEN</p>", "response": "g", "stimulus-type": "congruent", "word": "green", "color": "green", "correct_response": "g", "trial_id": "stroop-trial-1-congruent-26", "trial_type": "html-keyboard-response", "trial_index": 166, "time_elapsed": 379831, "internal_node_id": "0.0-6.0-71.0"}}, {"uniqueid": "w65617881:a98987745", "current_trial": 167, "dateTime": 1664873471626, "trialdata": {"rt": 1358, "stimulus": "<p id='stroop-text' class='stroop-yellow'>GREEN</p>", "response": "y", "stimulus-type": "incongruent", "word": "green", "color": "yellow", "correct_response": "y", "trial_id": "stroop-trial-1-incongruent-5", "trial_type": "html-keyboard-response", "trial_index": 167, "time_elapsed": 381691, "internal_node_id": "0.0-6.0-72.0"}}, {"uniqueid": "w65617881:a98987745", "current_trial": 168, "dateTime": 1664873473162, "trialdata": {"rt": 1035, "stimulus": "<p id='stroop-text' class='stroop-yellow'>BRIDGE</p>", "response": "y", "stimulus-type": "unrelated", "word": "BRIDGE", "color": "yellow", "correct_response": "y", "trial_id": "stroop-trial-1-unrelated-26", "trial_type": "html-keyboard-response", "trial_index": 168, "time_elapsed": 383228, "internal_node_id": "0.0-6.0-73.0"}}, {"uniqueid": "w65617881:a98987745", "current_trial": 169, "dateTime": 1664873474943, "trialdata": {"rt": 1278, "stimulus": "<p id='stroop-text' class='stroop-red'>BRIDGE</p>", "response": "r", "stimulus-type": "unrelated", "word": "BRIDGE", "color": "red", "correct_response": "r", "trial_id": "stroop-trial-1-unrelated-6", "trial_type": "html-keyboard-response", "trial_index": 169, "time_elapsed": 385008, "internal_node_id": "0.0-6.0-74.0"}}, {"uniqueid": "w65617881:a98987745", "current_trial": 170, "dateTime": 1664873476648, "trialdata": {"rt": 1203, "stimulus": "<p id='stroop-text' class='stroop-yellow'>BLUE</p>", "response": "y", "stimulus-type": "incongruent", "word": "blue", "color": "yellow", "correct_response": "y", "trial_id": "stroop-trial-1-incongruent-27", "trial_type": "html-keyboard-response", "trial_index": 170, "time_elapsed": 386714, "internal_node_id": "0.0-6.0-75.0"}}, {"uniqueid": "w65617881:a98987745", "current_trial": 171, "dateTime": 1664873478253, "trialdata": {"rt": 1103, "stimulus": "<p id='stroop-text' class='stroop-red'>WINDOW</p>", "response": "r", "stimulus-type": "unrelated", "word": "WINDOW", "color": "red", "correct_response": "r", "trial_id": "stroop-trial-1-unrelated-17", "trial_type": "html-keyboard-response", "trial_index": 171, "time_elapsed": 388319, "internal_node_id": "0.0-6.0-76.0"}}, {"uniqueid": "w65617881:a98987745", "current_trial": 172, "dateTime": 1664873479749, "trialdata": {"rt": 993, "stimulus": "<p id='stroop-text' class='stroop-red'>RED</p>", "response": "r", "stimulus-type": "congruent", "word": "red", "color": "red", "correct_response": "r", "trial_id": "stroop-trial-1-congruent-10", "trial_type": "html-keyboard-response", "trial_index": 172, "time_elapsed": 389814, "internal_node_id": "0.0-6.0-77.0"}}, {"uniqueid": "w65617881:a98987745", "current_trial": 173, "dateTime": 1664873481449, "trialdata": {"rt": 1199, "stimulus": "<p id='stroop-text' class='stroop-yellow'>FORK</p>", "response": "y", "stimulus-type": "unrelated", "word": "FORK", "color": "yellow", "correct_response": "y", "trial_id": "stroop-trial-1-unrelated-25", "trial_type": "html-keyboard-response", "trial_index": 173, "time_elapsed": 391515, "internal_node_id": "0.0-6.0-78.0"}}, {"uniqueid": "w65617881:a98987745", "current_trial": 174, "dateTime": 1664873483001, "trialdata": {"rt": 1049, "stimulus": "<p id='stroop-text' class='stroop-yellow'>YELLOW</p>", "response": "y", "stimulus-type": "congruent", "word": "yellow", "color": "yellow", "correct_response": "y", "trial_id": "stroop-trial-1-congruent-7", "trial_type": "html-keyboard-response", "trial_index": 174, "time_elapsed": 393066, "internal_node_id": "0.0-6.0-79.0"}}, {"uniqueid": "w65617881:a98987745", "current_trial": 175, "dateTime": 1664873484542, "trialdata": {"rt": 1039, "stimulus": "<p id='stroop-text' class='stroop-red'>BOTTLE</p>", "response": "r", "stimulus-type": "unrelated", "word": "BOTTLE", "color": "red", "correct_response": "r", "trial_id": "stroop-trial-1-unrelated-29", "trial_type": "html-keyboard-response", "trial_index": 175, "time_elapsed": 394607, "internal_node_id": "0.0-6.0-80.0"}}, {"uniqueid": "w65617881:a98987745", "current_trial": 176, "dateTime": 1664873486630, "trialdata": {"rt": 1586, "stimulus": "<p id='stroop-text' class='stroop-red'>GREEN</p>", "response": "r", "stimulus-type": "incongruent", "word": "green", "color": "red", "correct_response": "r", "trial_id": "stroop-trial-1-incongruent-12", "trial_type": "html-keyboard-response", "trial_index": 176, "time_elapsed": 396696, "internal_node_id": "0.0-6.0-81.0"}}, {"uniqueid": "w65617881:a98987745", "current_trial": 177, "dateTime": 1664873488187, "trialdata": {"rt": 1055, "stimulus": "<p id='stroop-text' class='stroop-red'>RED</p>", "response": "r", "stimulus-type": "congruent", "word": "red", "color": "red", "correct_response": "r", "trial_id": "stroop-trial-1-congruent-5", "trial_type": "html-keyboard-response", "trial_index": 177, "time_elapsed": 398253, "internal_node_id": "0.0-6.0-82.0"}}, {"uniqueid": "w65617881:a98987745", "current_trial": 178, "dateTime": 1664873490195, "trialdata": {"rt": 1506, "stimulus": "<p id='stroop-text' class='stroop-blue'>BLUE</p>", "response": "b", "stimulus-type": "congruent", "word": "blue", "color": "blue", "correct_response": "b", "trial_id": "stroop-trial-1-congruent-29", "trial_type": "html-keyboard-response", "trial_index": 178, "time_elapsed": 400261, "internal_node_id": "0.0-6.0-83.0"}}, {"uniqueid": "w65617881:a98987745", "current_trial": 179, "dateTime": 1664873491862, "trialdata": {"rt": 1164, "stimulus": "<p id='stroop-text' class='stroop-yellow'>RED</p>", "response": "y", "stimulus-type": "incongruent", "word": "red", "color": "yellow", "correct_response": "y", "trial_id": "stroop-trial-1-incongruent-4", "trial_type": "html-keyboard-response", "trial_index": 179, "time_elapsed": 401927, "internal_node_id": "0.0-6.0-84.0"}}, {"uniqueid": "w65617881:a98987745", "current_trial": 180, "dateTime": 1664873493573, "trialdata": {"rt": 1209, "stimulus": "<p id='stroop-text' class='stroop-blue'>BLUE</p>", "response": "b", "stimulus-type": "congruent", "word": "blue", "color": "blue", "correct_response": "b", "trial_id": "stroop-trial-1-congruent-24", "trial_type": "html-keyboard-response", "trial_index": 180, "time_elapsed": 403638, "internal_node_id": "0.0-6.0-85.0"}}, {"uniqueid": "w65617881:a98987745", "current_trial": 181, "dateTime": 1664873495173, "trialdata": {"rt": 1097, "stimulus": "<p id='stroop-text' class='stroop-red'>BLUE</p>", "response": "r", "stimulus-type": "incongruent", "word": "blue", "color": "red", "correct_response": "r", "trial_id": "stroop-trial-1-incongruent-28", "trial_type": "html-keyboard-response", "trial_index": 181, "time_elapsed": 405239, "internal_node_id": "0.0-6.0-86.0"}}, {"uniqueid": "w65617881:a98987745", "current_trial": 182, "dateTime": 1664873496828, "trialdata": {"rt": 1152, "stimulus": "<p id='stroop-text' class='stroop-blue'>MONKEY</p>", "response": "b", "stimulus-type": "unrelated", "word": "MONKEY", "color": "blue", "correct_response": "b", "trial_id": "stroop-trial-1-unrelated-19", "trial_type": "html-keyboard-response", "trial_index": 182, "time_elapsed": 406894, "internal_node_id": "0.0-6.0-87.0"}}, {"uniqueid": "w65617881:a98987745", "current_trial": 183, "dateTime": 1664873498762, "trialdata": {"rt": 1432, "stimulus": "<p id='stroop-text' class='stroop-blue'>RED</p>", "response": "b", "stimulus-type": "incongruent", "word": "red", "color": "blue", "correct_response": "b", "trial_id": "stroop-trial-1-incongruent-18", "trial_type": "html-keyboard-response", "trial_index": 183, "time_elapsed": 408828, "internal_node_id": "0.0-6.0-88.0"}}, {"uniqueid": "w65617881:a98987745", "current_trial": 184, "dateTime": 1664873500252, "trialdata": {"rt": 980, "stimulus": "<p id='stroop-text' class='stroop-blue'>BLUE</p>", "response": "b", "stimulus-type": "congruent", "word": "blue", "color": "blue", "correct_response": "b", "trial_id": "stroop-trial-1-congruent-25", "trial_type": "html-keyboard-response", "trial_index": 184, "time_elapsed": 410318, "internal_node_id": "0.0-6.0-89.0"}}, {"uniqueid": "w65617881:a98987745", "current_trial": 185, "dateTime": 1664873513501, "trialdata": {"rt": 12746, "stimulus": "  <h1> End of block! </h1>\n\n  You have reached the end of the block 2/5. If you need a short break, feel free to take one now before moving on.\n\n  <br><br>\n  In the next block, you will complete another 90 rounds of this game.\n\n  <br><br>\n  <div style='text-align: center;'>Press <code>space</code> to begin.</div>\n  <br><br>\n<div style='text-align: center;'>(If the experiment doesn't continue, try clicking on the text and then pressing <code>space</code>.)</div>", "response": " ", "trial_id": "stroop_1_ready_3", "trial_type": "html-keyboard-response", "trial_index": 185, "time_elapsed": 423567, "internal_node_id": "0.0-7.0"}}, {"uniqueid": "w65617881:a98987745", "current_trial": 186, "dateTime": 1664873514619, "trialdata": {"rt": 1116, "stimulus": "<p id='stroop-text' class='stroop-red'>RED</p>", "response": "r", "stimulus-type": "congruent", "word": "red", "color": "red", "correct_response": "r", "trial_id": "stroop-trial-1-congruent-11", "trial_type": "html-keyboard-response", "trial_index": 186, "time_elapsed": 424684, "internal_node_id": "0.0-8.0-0.0"}}, {"uniqueid": "w65617881:a98987745", "current_trial": 187, "dateTime": 1664873516105, "trialdata": {"rt": 985, "stimulus": "<p id='stroop-text' class='stroop-blue'>BOTTLE</p>", "response": "b", "stimulus-type": "unrelated", "word": "BOTTLE", "color": "blue", "correct_response": "b", "trial_id": "stroop-trial-1-unrelated-14", "trial_type": "html-keyboard-response", "trial_index": 187, "time_elapsed": 426171, "internal_node_id": "0.0-8.0-1.0"}}, {"uniqueid": "w65617881:a98987745", "current_trial": 188, "dateTime": 1664873517640, "trialdata": {"rt": 1032, "stimulus": "<p id='stroop-text' class='stroop-blue'>DOG</p>", "response": "b", "stimulus-type": "unrelated", "word": "DOG", "color": "blue", "correct_response": "b", "trial_id": "stroop-trial-1-unrelated-30", "trial_type": "html-keyboard-response", "trial_index": 188, "time_elapsed": 427706, "internal_node_id": "0.0-8.0-2.0"}}, {"uniqueid": "w65617881:a98987745", "current_trial": 189, "dateTime": 1664873519186, "trialdata": {"rt": 1043, "stimulus": "<p id='stroop-text' class='stroop-yellow'>YELLOW</p>", "response": "y", "stimulus-type": "congruent", "word": "yellow", "color": "yellow", "correct_response": "y", "trial_id": "stroop-trial-1-congruent-19", "trial_type": "html-keyboard-response", "trial_index": 189, "time_elapsed": 429252, "internal_node_id": "0.0-8.0-3.0"}}, {"uniqueid": "w65617881:a98987745", "current_trial": 190, "dateTime": 1664873520827, "trialdata": {"rt": 1138, "stimulus": "<p id='stroop-text' class='stroop-green'>DOG</p>", "response": "g", "stimulus-type": "unrelated", "word": "DOG", "color": "green", "correct_response": "g", "trial_id": "stroop-trial-1-unrelated-1", "trial_type": "html-keyboard-response", "trial_index": 190, "time_elapsed": 430893, "internal_node_id": "0.0-8.0-4.0"}}, {"uniqueid": "w65617881:a98987745", "current_trial": 191, "dateTime": 1664873522255, "trialdata": {"rt": 926, "stimulus": "<p id='stroop-text' class='stroop-green'>WINDOW</p>", "response": "g", "stimulus-type": "unrelated", "word": "WINDOW", "color": "green", "correct_response": "g", "trial_id": "stroop-trial-1-unrelated-10", "trial_type": "html-keyboard-response", "trial_index": 191, "time_elapsed": 432320, "internal_node_id": "0.0-8.0-5.0"}}, {"uniqueid": "w65617881:a98987745", "current_trial": 192, "dateTime": 1664873523902, "trialdata": {"rt": 1145, "stimulus": "<p id='stroop-text' class='stroop-green'>BRAIN</p>", "response": "g", "stimulus-type": "unrelated", "word": "BRAIN", "color": "green", "correct_response": "g", "trial_id": "stroop-trial-1-unrelated-21", "trial_type": "html-keyboard-response", "trial_index": 192, "time_elapsed": 433968, "internal_node_id": "0.0-8.0-6.0"}}, {"uniqueid": "w65617881:a98987745", "current_trial": 193, "dateTime": 1664873525427, "trialdata": {"rt": 1022, "stimulus": "<p id='stroop-text' class='stroop-green'>BRAIN</p>", "response": "g", "stimulus-type": "unrelated", "word": "BRAIN", "color": "green", "correct_response": "g", "trial_id": "stroop-trial-1-unrelated-12", "trial_type": "html-keyboard-response", "trial_index": 193, "time_elapsed": 435492, "internal_node_id": "0.0-8.0-7.0"}}, {"uniqueid": "w65617881:a98987745", "current_trial": 194, "dateTime": 1664873526961, "trialdata": {"rt": 1032, "stimulus": "<p id='stroop-text' class='stroop-red'>CHAIR</p>", "response": "r", "stimulus-type": "unrelated", "word": "CHAIR", "color": "red", "correct_response": "r", "trial_id": "stroop-trial-1-unrelated-5", "trial_type": "html-keyboard-response", "trial_index": 194, "time_elapsed": 437026, "internal_node_id": "0.0-8.0-8.0"}}, {"uniqueid": "w65617881:a98987745", "current_trial": 195, "dateTime": 1664873528591, "trialdata": {"rt": 1129, "stimulus": "<p id='stroop-text' class='stroop-red'>GREEN</p>", "response": "r", "stimulus-type": "incongruent", "word": "green", "color": "red", "correct_response": "r", "trial_id": "stroop-trial-1-incongruent-19", "trial_type": "html-keyboard-response", "trial_index": 195, "time_elapsed": 438657, "internal_node_id": "0.0-8.0-9.0"}}, {"uniqueid": "w65617881:a98987745", "current_trial": 196, "dateTime": 1664873530759, "trialdata": {"rt": 1666, "stimulus": "<p id='stroop-text' class='stroop-green'>RED</p>", "response": "g", "stimulus-type": "incongruent", "word": "red", "color": "green", "correct_response": "g", "trial_id": "stroop-trial-1-incongruent-27", "trial_type": "html-keyboard-response", "trial_index": 196, "time_elapsed": 440825, "internal_node_id": "0.0-8.0-10.0"}}, {"uniqueid": "w65617881:a98987745", "current_trial": 197, "dateTime": 1664873532280, "trialdata": {"rt": 1019, "stimulus": "<p id='stroop-text' class='stroop-red'>STONE</p>", "response": "r", "stimulus-type": "unrelated", "word": "STONE", "color": "red", "correct_response": "r", "trial_id": "stroop-trial-1-unrelated-22", "trial_type": "html-keyboard-response", "trial_index": 197, "time_elapsed": 442346, "internal_node_id": "0.0-8.0-11.0"}}, {"uniqueid": "w65617881:a98987745", "current_trial": 198, "dateTime": 1664873533768, "trialdata": {"rt": 987, "stimulus": "<p id='stroop-text' class='stroop-green'>GREEN</p>", "response": "g", "stimulus-type": "congruent", "word": "green", "color": "green", "correct_response": "g", "trial_id": "stroop-trial-1-congruent-1", "trial_type": "html-keyboard-response", "trial_index": 198, "time_elapsed": 443834, "internal_node_id": "0.0-8.0-12.0"}}, {"uniqueid": "w65617881:a98987745", "current_trial": 199, "dateTime": 1664873535277, "trialdata": {"rt": 1007, "stimulus": "<p id='stroop-text' class='stroop-blue'>BLUE</p>", "response": "b", "stimulus-type": "congruent", "word": "blue", "color": "blue", "correct_response": "b", "trial_id": "stroop-trial-1-congruent-17", "trial_type": "html-keyboard-response", "trial_index": 199, "time_elapsed": 445343, "internal_node_id": "0.0-8.0-13.0"}}, {"uniqueid": "w65617881:a98987745", "current_trial": 200, "dateTime": 1664873536683, "trialdata": {"rt": 902, "stimulus": "<p id='stroop-text' class='stroop-blue'>BLUE</p>", "response": "b", "stimulus-type": "congruent", "word": "blue", "color": "blue", "correct_response": "b", "trial_id": "stroop-trial-1-congruent-16", "trial_type": "html-keyboard-response", "trial_index": 200, "time_elapsed": 446749, "internal_node_id": "0.0-8.0-14.0"}}, {"uniqueid": "w65617881:a98987745", "current_trial": 201, "dateTime": 1664873538231, "trialdata": {"rt": 1044, "stimulus": "<p id='stroop-text' class='stroop-red'>BLUE</p>", "response": "r", "stimulus-type": "incongruent", "word": "blue", "color": "red", "correct_response": "r", "trial_id": "stroop-trial-1-incongruent-14", "trial_type": "html-keyboard-response", "trial_index": 201, "time_elapsed": 448296, "internal_node_id": "0.0-8.0-15.0"}}, {"uniqueid": "w65617881:a98987745", "current_trial": 202, "dateTime": 1664873539724, "trialdata": {"rt": 992, "stimulus": "<p id='stroop-text' class='stroop-green'>GREEN</p>", "response": "g", "stimulus-type": "congruent", "word": "green", "color": "green", "correct_response": "g", "trial_id": "stroop-trial-1-congruent-2", "trial_type": "html-keyboard-response", "trial_index": 202, "time_elapsed": 449790, "internal_node_id": "0.0-8.0-16.0"}}, {"uniqueid": "w65617881:a98987745", "current_trial": 203, "dateTime": 1664873541246, "trialdata": {"rt": 1019, "stimulus": "<p id='stroop-text' class='stroop-yellow'>RED</p>", "response": "y", "stimulus-type": "incongruent", "word": "red", "color": "yellow", "correct_response": "y", "trial_id": "stroop-trial-1-incongruent-17", "trial_type": "html-keyboard-response", "trial_index": 203, "time_elapsed": 451312, "internal_node_id": "0.0-8.0-17.0"}}, {"uniqueid": "w65617881:a98987745", "current_trial": 204, "dateTime": 1664873542645, "trialdata": {"rt": 897, "stimulus": "<p id='stroop-text' class='stroop-green'>BOAT</p>", "response": "g", "stimulus-type": "unrelated", "word": "BOAT", "color": "green", "correct_response": "g", "trial_id": "stroop-trial-1-unrelated-27", "trial_type": "html-keyboard-response", "trial_index": 204, "time_elapsed": 452711, "internal_node_id": "0.0-8.0-18.0"}}, {"uniqueid": "w65617881:a98987745", "current_trial": 205, "dateTime": 1664873544376, "trialdata": {"rt": 1229, "stimulus": "<p id='stroop-text' class='stroop-yellow'>STONE</p>", "response": "y", "stimulus-type": "unrelated", "word": "STONE", "color": "yellow", "correct_response": "y", "trial_id": "stroop-trial-1-unrelated-11", "trial_type": "html-keyboard-response", "trial_index": 205, "time_elapsed": 454442, "internal_node_id": "0.0-8.0-19.0"}}, {"uniqueid": "w65617881:a98987745", "current_trial": 206, "dateTime": 1664873545806, "trialdata": {"rt": 929, "stimulus": "<p id='stroop-text' class='stroop-red'>RED</p>", "response": "r", "stimulus-type": "congruent", "word": "red", "color": "red", "correct_response": "r", "trial_id": "stroop-trial-1-congruent-23", "trial_type": "html-keyboard-response", "trial_index": 206, "time_elapsed": 455872, "internal_node_id": "0.0-8.0-20.0"}}, {"uniqueid": "w65617881:a98987745", "current_trial": 207, "dateTime": 1664873547462, "trialdata": {"rt": 1153, "stimulus": "<p id='stroop-text' class='stroop-yellow'>BLUE</p>", "response": "y", "stimulus-type": "incongruent", "word": "blue", "color": "yellow", "correct_response": "y", "trial_id": "stroop-trial-1-incongruent-4", "trial_type": "html-keyboard-response", "trial_index": 207, "time_elapsed": 457527, "internal_node_id": "0.0-8.0-21.0"}}, {"uniqueid": "w65617881:a98987745", "current_trial": 208, "dateTime": 1664873549080, "trialdata": {"rt": 1116, "stimulus": "<p id='stroop-text' class='stroop-blue'>BLUE</p>", "response": "b", "stimulus-type": "congruent", "word": "blue", "color": "blue", "correct_response": "b", "trial_id": "stroop-trial-1-congruent-26", "trial_type": "html-keyboard-response", "trial_index": 208, "time_elapsed": 459145, "internal_node_id": "0.0-8.0-22.0"}}, {"uniqueid": "w65617881:a98987745", "current_trial": 209, "dateTime": 1664873550592, "trialdata": {"rt": 1008, "stimulus": "<p id='stroop-text' class='stroop-blue'>BLUE</p>", "response": "b", "stimulus-type": "congruent", "word": "blue", "color": "blue", "correct_response": "b", "trial_id": "stroop-trial-1-congruent-18", "trial_type": "html-keyboard-response", "trial_index": 209, "time_elapsed": 460657, "internal_node_id": "0.0-8.0-23.0"}}, {"uniqueid": "w65617881:a98987745", "current_trial": 210, "dateTime": 1664873552690, "trialdata": {"rt": 1593, "stimulus": "<p id='stroop-text' class='stroop-green'>RED</p>", "response": "g", "stimulus-type": "incongruent", "word": "red", "color": "green", "correct_response": "g", "trial_id": "stroop-trial-1-incongruent-6", "trial_type": "html-keyboard-response", "trial_index": 210, "time_elapsed": 462755, "internal_node_id": "0.0-8.0-24.0"}}, {"uniqueid": "w65617881:a98987745", "current_trial": 211, "dateTime": 1664873554263, "trialdata": {"rt": 1071, "stimulus": "<p id='stroop-text' class='stroop-green'>RED</p>", "response": "g", "stimulus-type": "incongruent", "word": "red", "color": "green", "correct_response": "g", "trial_id": "stroop-trial-1-incongruent-18", "trial_type": "html-keyboard-response", "trial_index": 211, "time_elapsed": 464329, "internal_node_id": "0.0-8.0-25.0"}}, {"uniqueid": "w65617881:a98987745", "current_trial": 212, "dateTime": 1664873556000, "trialdata": {"rt": 1234, "stimulus": "<p id='stroop-text' class='stroop-yellow'>RED</p>", "response": "y", "stimulus-type": "incongruent", "word": "red", "color": "yellow", "correct_response": "y", "trial_id": "stroop-trial-1-incongruent-11", "trial_type": "html-keyboard-response", "trial_index": 212, "time_elapsed": 466066, "internal_node_id": "0.0-8.0-26.0"}}, {"uniqueid": "w65617881:a98987745", "current_trial": 213, "dateTime": 1664873557489, "trialdata": {"rt": 986, "stimulus": "<p id='stroop-text' class='stroop-yellow'>WINDOW</p>", "response": "y", "stimulus-type": "unrelated", "word": "WINDOW", "color": "yellow", "correct_response": "y", "trial_id": "stroop-trial-1-unrelated-4", "trial_type": "html-keyboard-response", "trial_index": 213, "time_elapsed": 467555, "internal_node_id": "0.0-8.0-27.0"}}, {"uniqueid": "w65617881:a98987745", "current_trial": 214, "dateTime": 1664873559170, "trialdata": {"rt": 1178, "stimulus": "<p id='stroop-text' class='stroop-blue'>BLUE</p>", "response": "b", "stimulus-type": "congruent", "word": "blue", "color": "blue", "correct_response": "b", "trial_id": "stroop-trial-1-congruent-30", "trial_type": "html-keyboard-response", "trial_index": 214, "time_elapsed": 469236, "internal_node_id": "0.0-8.0-28.0"}}, {"uniqueid": "w65617881:a98987745", "current_trial": 215, "dateTime": 1664873560698, "trialdata": {"rt": 1026, "stimulus": "<p id='stroop-text' class='stroop-yellow'>RED</p>", "response": "y", "stimulus-type": "incongruent", "word": "red", "color": "yellow", "correct_response": "y", "trial_id": "stroop-trial-1-incongruent-1", "trial_type": "html-keyboard-response", "trial_index": 215, "time_elapsed": 470763, "internal_node_id": "0.0-8.0-29.0"}}, {"uniqueid": "w65617881:a98987745", "current_trial": 216, "dateTime": 1664873562191, "trialdata": {"rt": 992, "stimulus": "<p id='stroop-text' class='stroop-blue'>BLUE</p>", "response": "b", "stimulus-type": "congruent", "word": "blue", "color": "blue", "correct_response": "b", "trial_id": "stroop-trial-1-congruent-10", "trial_type": "html-keyboard-response", "trial_index": 216, "time_elapsed": 472257, "internal_node_id": "0.0-8.0-30.0"}}, {"uniqueid": "w65617881:a98987745", "current_trial": 217, "dateTime": 1664873563871, "trialdata": {"rt": 1177, "stimulus": "<p id='stroop-text' class='stroop-red'>YELLOW</p>", "response": "r", "stimulus-type": "incongruent", "word": "yellow", "color": "red", "correct_response": "r", "trial_id": "stroop-trial-1-incongruent-8", "trial_type": "html-keyboard-response", "trial_index": 217, "time_elapsed": 473937, "internal_node_id": "0.0-8.0-31.0"}}, {"uniqueid": "w65617881:a98987745", "current_trial": 218, "dateTime": 1664873565408, "trialdata": {"rt": 1034, "stimulus": "<p id='stroop-text' class='stroop-blue'>BLUE</p>", "response": "b", "stimulus-type": "congruent", "word": "blue", "color": "blue", "correct_response": "b", "trial_id": "stroop-trial-1-congruent-4", "trial_type": "html-keyboard-response", "trial_index": 218, "time_elapsed": 475474, "internal_node_id": "0.0-8.0-32.0"}}, {"uniqueid": "w65617881:a98987745", "current_trial": 219, "dateTime": 1664873567089, "trialdata": {"rt": 1179, "stimulus": "<p id='stroop-text' class='stroop-green'>GREEN</p>", "response": "g", "stimulus-type": "congruent", "word": "green", "color": "green", "correct_response": "g", "trial_id": "stroop-trial-1-congruent-3", "trial_type": "html-keyboard-response", "trial_index": 219, "time_elapsed": 477155, "internal_node_id": "0.0-8.0-33.0"}}, {"uniqueid": "w65617881:a98987745", "current_trial": 220, "dateTime": 1664873568665, "trialdata": {"rt": 1074, "stimulus": "<p id='stroop-text' class='stroop-yellow'>DOG</p>", "response": "y", "stimulus-type": "unrelated", "word": "DOG", "color": "yellow", "correct_response": "y", "trial_id": "stroop-trial-1-unrelated-28", "trial_type": "html-keyboard-response", "trial_index": 220, "time_elapsed": 478731, "internal_node_id": "0.0-8.0-34.0"}}, {"uniqueid": "w65617881:a98987745", "current_trial": 221, "dateTime": 1664873570366, "trialdata": {"rt": 1199, "stimulus": "<p id='stroop-text' class='stroop-green'>RED</p>", "response": "g", "stimulus-type": "incongruent", "word": "red", "color": "green", "correct_response": "g", "trial_id": "stroop-trial-1-incongruent-13", "trial_type": "html-keyboard-response", "trial_index": 221, "time_elapsed": 480432, "internal_node_id": "0.0-8.0-35.0"}}, {"uniqueid": "w65617881:a98987745", "current_trial": 222, "dateTime": 1664873571774, "trialdata": {"rt": 906, "stimulus": "<p id='stroop-text' class='stroop-green'>GREEN</p>", "response": "g", "stimulus-type": "congruent", "word": "gre