{"condition": 0, "counterbalance": 0, "assignmentId": "a98950023", "workerId": "w97597657", "hitId": "h97855448", "currenttrial": 959, "bonus": 0, "data": [{"uniqueid": "w97597657:a98950023", "current_trial": 0, "dateTime": 1664555122160, "trialdata": {"success": true, "trial_type": "fullscreen", "trial_index": 0, "time_elapsed": 129075, "internal_node_id": "0.0-0.0"}}, {"uniqueid": "w97597657:a98950023", "current_trial": 1, "dateTime": 1664555152107, "trialdata": {"view_history": [{"page_index": 0, "viewing_time": 29945}], "rt": 29945, "trial_id": "exp_instructions_distractor", "trial_type": "instructions", "trial_index": 1, "time_elapsed": 159023, "internal_node_id": "0.0-1.0"}}, {"uniqueid": "w97597657:a98950023", "current_trial": 2, "dateTime": 1664555170765, "trialdata": {"view_history": [{"page_index": 0, "viewing_time": 18656}], "rt": 18657, "trial_id": "color_game_instructions", "trial_type": "instructions", "trial_index": 2, "time_elapsed": 177681, "internal_node_id": "0.0-2.0"}}, {"uniqueid": "w97597657:a98950023", "current_trial": 3, "dateTime": 1664555174094, "trialdata": {"rt": 3327, "stimulus": "<h1> Get ready to start the game! </h1>\n\nThank you for reading the instructions. Get ready start with the first of 5 block(s) of this game.\n<br><br>\nIn this first block, you will complete 90 rounds of this game before moving on.\n<br><br>\nRemember, the better you perform, the bigger your bonus will be!\n<br><br>\n<div style='text-align: center;'>Press <code>space</code> to begin.</div>", "response": " ", "trial_id": "stroop_1_ready_1", "trial_type": "html-keyboard-response", "trial_index": 3, "time_elapsed": 181010, "internal_node_id": "0.0-3.0"}}, {"uniqueid": "w97597657:a98950023", "current_trial": 4, "dateTime": 1664555176140, "trialdata": {"rt": 2042, "stimulus": "<p id='stroop-text' class='stroop-blue'>GREEN</p>", "response": "b", "stimulus-type": "incongruent", "word": "green", "color": "blue", "correct_response": "b", "trial_id": "stroop-trial-1-incongruent-25", "trial_type": "html-keyboard-response", "trial_index": 4, "time_elapsed": 183055, "internal_node_id": "0.0-4.0-0.0"}}, {"uniqueid": "w97597657:a98950023", "current_trial": 5, "dateTime": 1664555178484, "trialdata": {"rt": 1843, "stimulus": "<p id='stroop-text' class='stroop-green'>BLUE</p>", "response": "g", "stimulus-type": "incongruent", "word": "blue", "color": "green", "correct_response": "g", "trial_id": "stroop-trial-1-incongruent-2", "trial_type": "html-keyboard-response", "trial_index": 5, "time_elapsed": 185400, "internal_node_id": "0.0-4.0-1.0"}}, {"uniqueid": "w97597657:a98950023", "current_trial": 6, "dateTime": 1664555180313, "trialdata": {"rt": 1327, "stimulus": "<p id='stroop-text' class='stroop-green'>BLUE</p>", "response": "g", "stimulus-type": "incongruent", "word": "blue", "color": "green", "correct_response": "g", "trial_id": "stroop-trial-1-incongruent-3", "trial_type": "html-keyboard-response", "trial_index": 6, "time_elapsed": 187229, "internal_node_id": "0.0-4.0-2.0"}}, {"uniqueid": "w97597657:a98950023", "current_trial": 7, "dateTime": 1664555181698, "trialdata": {"rt": 883, "stimulus": "<p id='stroop-text' class='stroop-blue'>BLUE</p>", "response": "b", "stimulus-type": "congruent", "word": "blue", "color": "blue", "correct_response": "b", "trial_id": "stroop-trial-1-congruent-13", "trial_type": "html-keyboard-response", "trial_index": 7, "time_elapsed": 188613, "internal_node_id": "0.0-4.0-3.0"}}, {"uniqueid": "w97597657:a98950023", "current_trial": 8, "dateTime": 1664555183462, "trialdata": {"rt": 1262, "stimulus": "<p id='stroop-text' class='stroop-green'>FORK</p>", "response": "g", "stimulus-type": "unrelated", "word": "FORK", "color": "green", "correct_response": "g", "trial_id": "stroop-trial-1-unrelated-7", "trial_type": "html-keyboard-response", "trial_index": 8, "time_elapsed": 190377, "internal_node_id": "0.0-4.0-4.0"}}, {"uniqueid": "w97597657:a98950023", "current_trial": 9, "dateTime": 1664555185505, "trialdata": {"rt": 1542, "stimulus": "<p id='stroop-text' class='stroop-red'>MONKEY</p>", "response": "r", "stimulus-type": "unrelated", "word": "MONKEY", "color": "red", "correct_response": "r", "trial_id": "stroop-trial-1-unrelated-21", "trial_type": "html-keyboard-response", "trial_index": 9, "time_elapsed": 192421, "internal_node_id": "0.0-4.0-5.0"}}, {"uniqueid": "w97597657:a98950023", "current_trial": 10, "dateTime": 1664555187794, "trialdata": {"rt": 1788, "stimulus": "<p id='stroop-text' class='stroop-green'>GREEN</p>", "response": "g", "stimulus-type": "congruent", "word": "green", "color": "green", "correct_response": "g", "trial_id": "stroop-trial-1-congruent-27", "trial_type": "html-keyboard-response", "trial_index": 10, "time_elapsed": 194710, "internal_node_id": "0.0-4.0-6.0"}}, {"uniqueid": "w97597657:a98950023", "current_trial": 11, "dateTime": 1664555189265, "trialdata": {"rt": 968, "stimulus": "<p id='stroop-text' class='stroop-blue'>BRIDGE</p>", "response": "b", "stimulus-type": "unrelated", "word": "BRIDGE", "color": "blue", "correct_response": "b", "trial_id": "stroop-trial-1-unrelated-11", "trial_type": "html-keyboard-response", "trial_index": 11, "time_elapsed": 196180, "internal_node_id": "0.0-4.0-7.0"}}, {"uniqueid": "w97597657:a98950023", "current_trial": 12, "dateTime": 1664555190656, "trialdata": {"rt": 890, "stimulus": "<p id='stroop-text' class='stroop-green'>SHIP</p>", "response": "g", "stimulus-type": "unrelated", "word": "SHIP", "color": "green", "correct_response": "g", "trial_id": "stroop-trial-1-unrelated-1", "trial_type": "html-keyboard-response", "trial_index": 12, "time_elapsed": 197572, "internal_node_id": "0.0-4.0-8.0"}}, {"uniqueid": "w97597657:a98950023", "current_trial": 13, "dateTime": 1664555191901, "trialdata": {"rt": 743, "stimulus": "<p id='stroop-text' class='stroop-green'>CHAIR</p>", "response": "g", "stimulus-type": "unrelated", "word": "CHAIR", "color": "green", "correct_response": "g", "trial_id": "stroop-trial-1-unrelated-13", "trial_type": "html-keyboard-response", "trial_index": 13, "time_elapsed": 198817, "internal_node_id": "0.0-4.0-9.0"}}, {"uniqueid": "w97597657:a98950023", "current_trial": 14, "dateTime": 1664555193197, "trialdata": {"rt": 793, "stimulus": "<p id='stroop-text' class='stroop-blue'>BLUE</p>", "response": "b", "stimulus-type": "congruent", "word": "blue", "color": "blue", "correct_response": "b", "trial_id": "stroop-trial-1-congruent-7", "trial_type": "html-keyboard-response", "trial_index": 14, "time_elapsed": 200113, "internal_node_id": "0.0-4.0-10.0"}}, {"uniqueid": "w97597657:a98950023", "current_trial": 15, "dateTime": 1664555194464, "trialdata": {"rt": 765, "stimulus": "<p id='stroop-text' class='stroop-green'>GREEN</p>", "response": "g", "stimulus-type": "congruent", "word": "green", "color": "green", "correct_response": "g", "trial_id": "stroop-trial-1-congruent-16", "trial_type": "html-keyboard-response", "trial_index": 15, "time_elapsed": 201380, "internal_node_id": "0.0-4.0-11.0"}}, {"uniqueid": "w97597657:a98950023", "current_trial": 16, "dateTime": 1664555195800, "trialdata": {"rt": 833, "stimulus": "<p id='stroop-text' class='stroop-red'>YELLOW</p>", "response": "r", "stimulus-type": "incongruent", "word": "yellow", "color": "red", "correct_response": "r", "trial_id": "stroop-trial-1-incongruent-5", "trial_type": "html-keyboard-response", "trial_index": 16, "time_elapsed": 202716, "internal_node_id": "0.0-4.0-12.0"}}, {"uniqueid": "w97597657:a98950023", "current_trial": 17, "dateTime": 1664555197155, "trialdata": {"rt": 838, "stimulus": "<p id='stroop-text' class='stroop-blue'>BLUE</p>", "response": "b", "stimulus-type": "congruent", "word": "blue", "color": "blue", "correct_response": "b", "trial_id": "stroop-trial-1-congruent-29", "trial_type": "html-keyboard-response", "trial_index": 17, "time_elapsed": 204070, "internal_node_id": "0.0-4.0-13.0"}}, {"uniqueid": "w97597657:a98950023", "current_trial": 18, "dateTime": 1664555198456, "trialdata": {"rt": 800, "stimulus": "<p id='stroop-text' class='stroop-red'>RED</p>", "response": "r", "stimulus-type": "congruent", "word": "red", "color": "red", "correct_response": "r", "trial_id": "stroop-trial-1-congruent-23", "trial_type": "html-keyboard-response", "trial_index": 18, "time_elapsed": 205372, "internal_node_id": "0.0-4.0-14.0"}}, {"uniqueid": "w97597657:a98950023", "current_trial": 19, "dateTime": 1664555199943, "trialdata": {"rt": 986, "stimulus": "<p id='stroop-text' class='stroop-blue'>SHIP</p>", "response": "b", "stimulus-type": "unrelated", "word": "SHIP", "color": "blue", "correct_response": "b", "trial_id": "stroop-trial-1-unrelated-12", "trial_type": "html-keyboard-response", "trial_index": 19, "time_elapsed": 206859, "internal_node_id": "0.0-4.0-15.0"}}, {"uniqueid": "w97597657:a98950023", "current_trial": 20, "dateTime": 1664555201245, "trialdata": {"rt": 800, "stimulus": "<p id='stroop-text' class='stroop-green'>GREEN</p>", "response": "g", "stimulus-type": "congruent", "word": "green", "color": "green", "correct_response": "g", "trial_id": "stroop-trial-1-congruent-6", "trial_type": "html-keyboard-response", "trial_index": 20, "time_elapsed": 208161, "internal_node_id": "0.0-4.0-16.0"}}, {"uniqueid": "w97597657:a98950023", "current_trial": 21, "dateTime": 1664555202522, "trialdata": {"rt": 775, "stimulus": "<p id='stroop-text' class='stroop-blue'>GREEN</p>", "response": "b", "stimulus-type": "incongruent", "word": "green", "color": "blue", "correct_response": "b", "trial_id": "stroop-trial-1-incongruent-7", "trial_type": "html-keyboard-response", "trial_index": 21, "time_elapsed": 209438, "internal_node_id": "0.0-4.0-17.0"}}, {"uniqueid": "w97597657:a98950023", "current_trial": 22, "dateTime": 1664555203632, "trialdata": {"rt": 609, "stimulus": "<p id='stroop-text' class='stroop-blue'>BRAIN</p>", "response": "b", "stimulus-type": "unrelated", "word": "BRAIN", "color": "blue", "correct_response": "b", "trial_id": "stroop-trial-1-unrelated-9", "trial_type": "html-keyboard-response", "trial_index": 22, "time_elapsed": 210548, "internal_node_id": "0.0-4.0-18.0"}}, {"uniqueid": "w97597657:a98950023", "current_trial": 23, "dateTime": 1664555204813, "trialdata": {"rt": 679, "stimulus": "<p id='stroop-text' class='stroop-yellow'>YELLOW</p>", "response": "y", "stimulus-type": "congruent", "word": "yellow", "color": "yellow", "correct_response": "y", "trial_id": "stroop-trial-1-congruent-17", "trial_type": "html-keyboard-response", "trial_index": 23, "time_elapsed": 211729, "internal_node_id": "0.0-4.0-19.0"}}, {"uniqueid": "w97597657:a98950023", "current_trial": 24, "dateTime": 1664555205860, "trialdata": {"rt": 546, "stimulus": "<p id='stroop-text' class='stroop-yellow'>YELLOW</p>", "response": "y", "stimulus-type": "congruent", "word": "yellow", "color": "yellow", "correct_response": "y", "trial_id": "stroop-trial-1-congruent-14", "trial_type": "html-keyboard-response", "trial_index": 24, "time_elapsed": 212776, "internal_node_id": "0.0-4.0-20.0"}}, {"uniqueid": "w97597657:a98950023", "current_trial": 25, "dateTime": 1664555208428, "trialdata": {"rt": 2066, "stimulus": "<p id='stroop-text' class='stroop-green'>YELLOW</p>", "response": "g", "stimulus-type": "incongruent", "word": "yellow", "color": "green", "correct_response": "g", "trial_id": "stroop-trial-1-incongruent-14", "trial_type": "html-keyboard-response", "trial_index": 25, "time_elapsed": 215343, "internal_node_id": "0.0-4.0-21.0"}}, {"uniqueid": "w97597657:a98950023", "current_trial": 26, "dateTime": 1664555210572, "trialdata": {"rt": 1643, "stimulus": "<p id='stroop-text' class='stroop-blue'>FORK</p>", "response": "b", "stimulus-type": "unrelated", "word": "FORK", "color": "blue", "correct_response": "b", "trial_id": "stroop-trial-1-unrelated-29", "trial_type": "html-keyboard-response", "trial_index": 26, "time_elapsed": 217488, "internal_node_id": "0.0-4.0-22.0"}}, {"uniqueid": "w97597657:a98950023", "current_trial": 27, "dateTime": 1664555212515, "trialdata": {"rt": 1441, "stimulus": "<p id='stroop-text' class='stroop-red'>YELLOW</p>", "response": "r", "stimulus-type": "incongruent", "word": "yellow", "color": "red", "correct_response": "r", "trial_id": "stroop-trial-1-incongruent-6", "trial_type": "html-keyboard-response", "trial_index": 27, "time_elapsed": 219431, "internal_node_id": "0.0-4.0-23.0"}}, {"uniqueid": "w97597657:a98950023", "current_trial": 28, "dateTime": 1664555214041, "trialdata": {"rt": 1025, "stimulus": "<p id='stroop-text' class='stroop-blue'>BLUE</p>", "response": "b", "stimulus-type": "congruent", "word": "blue", "color": "blue", "correct_response": "b", "trial_id": "stroop-trial-1-congruent-9", "trial_type": "html-keyboard-response", "trial_index": 28, "time_elapsed": 220957, "internal_node_id": "0.0-4.0-24.0"}}, {"uniqueid": "w97597657:a98950023", "current_trial": 29, "dateTime": 1664555215081, "trialdata": {"rt": 539, "stimulus": "<p id='stroop-text' class='stroop-yellow'>YELLOW</p>", "response": "y", "stimulus-type": "congruent", "word": "yellow", "color": "yellow", "correct_response": "y", "trial_id": "stroop-trial-1-congruent-22", "trial_type": "html-keyboard-response", "trial_index": 29, "time_elapsed": 221997, "internal_node_id": "0.0-4.0-25.0"}}, {"uniqueid": "w97597657:a98950023", "current_trial": 30, "dateTime": 1664555216693, "trialdata": {"rt": 1111, "stimulus": "<p id='stroop-text' class='stroop-green'>BLUE</p>", "response": "g", "stimulus-type": "incongruent", "word": "blue", "color": "green", "correct_response": "g", "trial_id": "stroop-trial-1-incongruent-21", "trial_type": "html-keyboard-response", "trial_index": 30, "time_elapsed": 223609, "internal_node_id": "0.0-4.0-26.0"}}, {"uniqueid": "w97597657:a98950023", "current_trial": 31, "dateTime": 1664555218636, "trialdata": {"rt": 1441, "stimulus": "<p id='stroop-text' class='stroop-yellow'>BLUE</p>", "response": "y", "stimulus-type": "incongruent", "word": "blue", "color": "yellow", "correct_response": "y", "trial_id": "stroop-trial-1-incongruent-20", "trial_type": "html-keyboard-response", "trial_index": 31, "time_elapsed": 225551, "internal_node_id": "0.0-4.0-27.0"}}, {"uniqueid": "w97597657:a98950023", "current_trial": 32, "dateTime": 1664555220173, "trialdata": {"rt": 1035, "stimulus": "<p id='stroop-text' class='stroop-green'>RED</p>", "response": "r", "stimulus-type": "incongruent", "word": "red", "color": "green", "correct_response": "g", "trial_id": "stroop-trial-1-incongruent-23", "trial_type": "html-keyboard-response", "trial_index": 32, "time_elapsed": 227089, "internal_node_id": "0.0-4.0-28.0"}}, {"uniqueid": "w97597657:a98950023", "current_trial": 33, "dateTime": 1664555222819, "trialdata": {"rt": 2144, "stimulus": "<p id='stroop-text' class='stroop-yellow'>CHAIR</p>", "response": "y", "stimulus-type": "unrelated", "word": "CHAIR", "color": "yellow", "correct_response": "y", "trial_id": "stroop-trial-1-unrelated-18", "trial_type": "html-keyboard-response", "trial_index": 33, "time_elapsed": 229735, "internal_node_id": "0.0-4.0-29.0"}}, {"uniqueid": "w97597657:a98950023", "current_trial": 34, "dateTime": 1664555224169, "trialdata": {"rt": 848, "stimulus": "<p id='stroop-text' class='stroop-green'>BRAIN</p>", "response": "g", "stimulus-type": "unrelated", "word": "BRAIN", "color": "green", "correct_response": "g", "trial_id": "stroop-trial-1-unrelated-19", "trial_type": "html-keyboard-response", "trial_index": 34, "time_elapsed": 231084, "internal_node_id": "0.0-4.0-30.0"}}, {"uniqueid": "w97597657:a98950023", "current_trial": 35, "dateTime": 1664555225391, "trialdata": {"rt": 721, "stimulus": "<p id='stroop-text' class='stroop-yellow'>CHAIR</p>", "response": "y", "stimulus-type": "unrelated", "word": "CHAIR", "color": "yellow", "correct_response": "y", "trial_id": "stroop-trial-1-unrelated-4", "trial_type": "html-keyboard-response", "trial_index": 35, "time_elapsed": 232307, "internal_node_id": "0.0-4.0-31.0"}}, {"uniqueid": "w97597657:a98950023", "current_trial": 36, "dateTime": 1664555226900, "trialdata": {"rt": 1007, "stimulus": "<p id='stroop-text' class='stroop-green'>RED</p>", "response": "g", "stimulus-type": "incongruent", "word": "red", "color": "green", "correct_response": "g", "trial_id": "stroop-trial-1-incongruent-26", "trial_type": "html-keyboard-response", "trial_index": 36, "time_elapsed": 233815, "internal_node_id": "0.0-4.0-32.0"}}, {"uniqueid": "w97597657:a98950023", "current_trial": 37, "dateTime": 1664555228135, "trialdata": {"rt": 734, "stimulus": "<p id='stroop-text' class='stroop-blue'>BRIDGE</p>", "response": "b", "stimulus-type": "unrelated", "word": "BRIDGE", "color": "blue", "correct_response": "b", "trial_id": "stroop-trial-1-unrelated-14", "trial_type": "html-keyboard-response", "trial_index": 37, "time_elapsed": 235051, "internal_node_id": "0.0-4.0-33.0"}}, {"uniqueid": "w97597657:a98950023", "current_trial": 38, "dateTime": 1664555229519, "trialdata": {"rt": 882, "stimulus": "<p id='stroop-text' class='stroop-blue'>CHAIR</p>", "response": "b", "stimulus-type": "unrelated", "word": "CHAIR", "color": "blue", "correct_response": "b", "trial_id": "stroop-trial-1-unrelated-28", "trial_type": "html-keyboard-response", "trial_index": 38, "time_elapsed": 236435, "internal_node_id": "0.0-4.0-34.0"}}, {"uniqueid": "w97597657:a98950023", "current_trial": 39, "dateTime": 1664555230503, "trialdata": {"rt": 482, "stimulus": "<p id='stroop-text' class='stroop-blue'>GREEN</p>", "response": "b", "stimulus-type": "incongruent", "word": "green", "color": "blue", "correct_response": "b", "trial_id": "stroop-trial-1-incongruent-28", "trial_type": "html-keyboard-response", "trial_index": 39, "time_elapsed": 237419, "internal_node_id": "0.0-4.0-35.0"}}, {"uniqueid": "w97597657:a98950023", "current_trial": 40, "dateTime": 1664555231669, "trialdata": {"rt": 665, "stimulus": "<p id='stroop-text' class='stroop-yellow'>YELLOW</p>", "response": "y", "stimulus-type": "congruent", "word": "yellow", "color": "yellow", "correct_response": "y", "trial_id": "stroop-trial-1-congruent-15", "trial_type": "html-keyboard-response", "trial_index": 40, "time_elapsed": 238585, "internal_node_id": "0.0-4.0-36.0"}}, {"uniqueid": "w97597657:a98950023", "current_trial": 41, "dateTime": 1664555232734, "trialdata": {"rt": 564, "stimulus": "<p id='stroop-text' class='stroop-red'>BOTTLE</p>", "response": "r", "stimulus-type": "unrelated", "word": "BOTTLE", "color": "red", "correct_response": "r", "trial_id": "stroop-trial-1-unrelated-23", "trial_type": "html-keyboard-response", "trial_index": 41, "time_elapsed": 239650, "internal_node_id": "0.0-4.0-37.0"}}, {"uniqueid": "w97597657:a98950023", "current_trial": 42, "dateTime": 1664555233938, "trialdata": {"rt": 703, "stimulus": "<p id='stroop-text' class='stroop-green'>WINDOW</p>", "response": "g", "stimulus-type": "unrelated", "word": "WINDOW", "color": "green", "correct_response": "g", "trial_id": "stroop-trial-1-unrelated-10", "trial_type": "html-keyboard-response", "trial_index": 42, "time_elapsed": 240854, "internal_node_id": "0.0-4.0-38.0"}}, {"uniqueid": "w97597657:a98950023", "current_trial": 43, "dateTime": 1664555234908, "trialdata": {"rt": 469, "stimulus": "<p id='stroop-text' class='stroop-green'>GREEN</p>", "response": "g", "stimulus-type": "congruent", "word": "green", "color": "green", "correct_response": "g", "trial_id": "stroop-trial-1-congruent-1", "trial_type": "html-keyboard-response", "trial_index": 43, "time_elapsed": 241824, "internal_node_id": "0.0-4.0-39.0"}}, {"uniqueid": "w97597657:a98950023", "current_trial": 44, "dateTime": 1664555236436, "trialdata": {"rt": 1026, "stimulus": "<p id='stroop-text' class='stroop-red'>WINDOW</p>", "response": "r", "stimulus-type": "unrelated", "word": "WINDOW", "color": "red", "correct_response": "r", "trial_id": "stroop-trial-1-unrelated-24", "trial_type": "html-keyboard-response", "trial_index": 44, "time_elapsed": 243351, "internal_node_id": "0.0-4.0-40.0"}}, {"uniqueid": "w97597657:a98950023", "current_trial": 45, "dateTime": 1664555237903, "trialdata": {"rt": 966, "stimulus": "<p id='stroop-text' class='stroop-blue'>BLUE</p>", "response": "b", "stimulus-type": "congruent", "word": "blue", "color": "blue", "correct_response": "b", "trial_id": "stroop-trial-1-congruent-4", "trial_type": "html-keyboard-response", "trial_index": 45, "time_elapsed": 244819, "internal_node_id": "0.0-4.0-41.0"}}, {"uniqueid": "w97597657:a98950023", "current_trial": 46, "dateTime": 1664555239087, "trialdata": {"rt": 683, "stimulus": "<p id='stroop-text' class='stroop-red'>RED</p>", "response": "r", "stimulus-type": "congruent", "word": "red", "color": "red", "correct_response": "r", "trial_id": "stroop-trial-1-congruent-2", "trial_type": "html-keyboard-response", "trial_index": 46, "time_elapsed": 246003, "internal_node_id": "0.0-4.0-42.0"}}, {"uniqueid": "w97597657:a98950023", "current_trial": 47, "dateTime": 1664555240419, "trialdata": {"rt": 829, "stimulus": "<p id='stroop-text' class='stroop-red'>RED</p>", "response": "r", "stimulus-type": "congruent", "word": "red", "color": "red", "correct_response": "r", "trial_id": "stroop-trial-1-congruent-3", "trial_type": "html-keyboard-response", "trial_index": 47, "time_elapsed": 247335, "internal_node_id": "0.0-4.0-43.0"}}, {"uniqueid": "w97597657:a98950023", "current_trial": 48, "dateTime": 1664555241854, "trialdata": {"rt": 934, "stimulus": "<p id='stroop-text' class='stroop-blue'>BLUE</p>", "response": "b", "stimulus-type": "congruent", "word": "blue", "color": "blue", "correct_response": "b", "trial_id": "stroop-trial-1-congruent-30", "trial_type": "html-keyboard-response", "trial_index": 48, "time_elapsed": 248770, "internal_node_id": "0.0-4.0-44.0"}}, {"uniqueid": "w97597657:a98950023", "current_trial": 49, "dateTime": 1664555243039, "trialdata": {"rt": 682, "stimulus": "<p id='stroop-text' class='stroop-yellow'>FORK</p>", "response": "y", "stimulus-type": "unrelated", "word": "FORK", "color": "yellow", "correct_response": "y", "trial_id": "stroop-trial-1-unrelated-17", "trial_type": "html-keyboard-response", "trial_index": 49, "time_elapsed": 249954, "internal_node_id": "0.0-4.0-45.0"}}, {"uniqueid": "w97597657:a98950023", "current_trial": 50, "dateTime": 1664555244541, "trialdata": {"rt": 1001, "stimulus": "<p id='stroop-text' class='stroop-green'>YELLOW</p>", "response": "g", "stimulus-type": "incongruent", "word": "yellow", "color": "green", "correct_response": "g", "trial_id": "stroop-trial-1-incongruent-11", "trial_type": "html-keyboard-response", "trial_index": 50, "time_elapsed": 251457, "internal_node_id": "0.0-4.0-46.0"}}, {"uniqueid": "w97597657:a98950023", "current_trial": 51, "dateTime": 1664555246109, "trialdata": {"rt": 1066, "stimulus": "<p id='stroop-text' class='stroop-blue'>BLUE</p>", "response": "b", "stimulus-type": "congruent", "word": "blue", "color": "blue", "correct_response": "b", "trial_id": "stroop-trial-1-congruent-18", "trial_type": "html-keyboard-response", "trial_index": 51, "time_elapsed": 253025, "internal_node_id": "0.0-4.0-47.0"}}, {"uniqueid": "w97597657:a98950023", "current_trial": 52, "dateTime": 1664555247353, "trialdata": {"rt": 743, "stimulus": "<p id='stroop-text' class='stroop-green'>GREEN</p>", "response": "g", "stimulus-type": "congruent", "word": "green", "color": "green", "correct_response": "g", "trial_id": "stroop-trial-1-congruent-24", "trial_type": "html-keyboard-response", "trial_index": 52, "time_elapsed": 254268, "internal_node_id": "0.0-4.0-48.0"}}, {"uniqueid": "w97597657:a98950023", "current_trial": 53, "dateTime": 1664555248537, "trialdata": {"rt": 682, "stimulus": "<p id='stroop-text' class='stroop-green'>DOG</p>", "response": "g", "stimulus-type": "unrelated", "word": "DOG", "color": "green", "correct_response": "g", "trial_id": "stroop-trial-1-unrelated-25", "trial_type": "html-keyboard-response", "trial_index": 53, "time_elapsed": 255452, "internal_node_id": "0.0-4.0-49.0"}}, {"uniqueid": "w97597657:a98950023", "current_trial": 54, "dateTime": 1664555249891, "trialdata": {"rt": 853, "stimulus": "<p id='stroop-text' class='stroop-blue'>SHIP</p>", "response": "b", "stimulus-type": "unrelated", "word": "SHIP", "color": "blue", "correct_response": "b", "trial_id": "stroop-trial-1-unrelated-5", "trial_type": "html-keyboard-response", "trial_index": 54, "time_elapsed": 256807, "internal_node_id": "0.0-4.0-50.0"}}, {"uniqueid": "w97597657:a98950023", "current_trial": 55, "dateTime": 1664555251719, "trialdata": {"rt": 1326, "stimulus": "<p id='stroop-text' class='stroop-red'>FORK</p>", "response": "r", "stimulus-type": "unrelated", "word": "FORK", "color": "red", "correct_response": "r", "trial_id": "stroop-trial-1-unrelated-16", "trial_type": "html-keyboard-response", "trial_index": 55, "time_elapsed": 258634, "internal_node_id": "0.0-4.0-51.0"}}, {"uniqueid": "w97597657:a98950023", "current_trial": 56, "dateTime": 1664555252949, "trialdata": {"rt": 728, "stimulus": "<p id='stroop-text' class='stroop-green'>YELLOW</p>", "response": "y", "stimulus-type": "incongruent", "word": "yellow", "color": "green", "correct_response": "g", "trial_id": "stroop-trial-1-incongruent-27", "trial_type": "html-keyboard-response", "trial_index": 56, "time_elapsed": 259865, "internal_node_id": "0.0-4.0-52.0"}}, {"uniqueid": "w97597657:a98950023", "current_trial": 57, "dateTime": 1664555255107, "trialdata": {"rt": 1657, "stimulus": "<p id='stroop-text' class='stroop-red'>YELLOW</p>", "response": "r", "stimulus-type": "incongruent", "word": "yellow", "color": "red", "correct_response": "r", "trial_id": "stroop-trial-1-incongruent-15", "trial_type": "html-keyboard-response", "trial_index": 57, "time_elapsed": 262023, "internal_node_id": "0.0-4.0-53.0"}}, {"uniqueid": "w97597657:a98950023", "current_trial": 58, "dateTime": 1664555256240, "trialdata": {"rt": 632, "stimulus": "<p id='stroop-text' class='stroop-blue'>DOG</p>", "response": "b", "stimulus-type": "unrelated", "word": "DOG", "color": "blue", "correct_response": "b", "trial_id": "stroop-trial-1-unrelated-22", "trial_type": "html-keyboard-response", "trial_index": 58, "time_elapsed": 263155, "internal_node_id": "0.0-4.0-54.0"}}, {"uniqueid": "w97597657:a98950023", "current_trial": 59, "dateTime": 1664555257263, "trialdata": {"rt": 522, "stimulus": "<p id='stroop-text' class='stroop-green'>SHIP</p>", "response": "g", "stimulus-type": "unrelated", "word": "SHIP", "color": "green", "correct_response": "g", "trial_id": "stroop-trial-1-unrelated-27", "trial_type": "html-keyboard-response", "trial_index": 59, "time_elapsed": 264179, "internal_node_id": "0.0-4.0-55.0"}}, {"uniqueid": "w97597657:a98950023", "current_trial": 60, "dateTime": 1664555258381, "trialdata": {"rt": 616, "stimulus": "<p id='stroop-text' class='stroop-yellow'>WINDOW</p>", "response": "y", "stimulus-type": "unrelated", "word": "WINDOW", "color": "yellow", "correct_response": "y", "trial_id": "stroop-trial-1-unrelated-26", "trial_type": "html-keyboard-response", "trial_index": 60, "time_elapsed": 265297, "internal_node_id": "0.0-4.0-56.0"}}, {"uniqueid": "w97597657:a98950023", "current_trial": 61, "dateTime": 1664555260255, "trialdata": {"rt": 1372, "stimulus": "<p id='stroop-text' class='stroop-green'>BLUE</p>", "response": "g", "stimulus-type": "incongruent", "word": "blue", "color": "green", "correct_response": "g", "trial_id": "stroop-trial-1-incongruent-17", "trial_type": "html-keyboard-response", "trial_index": 61, "time_elapsed": 267171, "internal_node_id": "0.0-4.0-57.0"}}, {"uniqueid": "w97597657:a98950023", "current_trial": 62, "dateTime": 1664555262607, "trialdata": {"rt": 1851, "stimulus": "<p id='stroop-text' class='stroop-yellow'>YELLOW</p>", "response": "y", "stimulus-type": "congruent", "word": "yellow", "color": "yellow", "correct_response": "y", "trial_id": "stroop-trial-1-congruent-25", "trial_type": "html-keyboard-response", "trial_index": 62, "time_elapsed": 269523, "internal_node_id": "0.0-4.0-58.0"}}, {"uniqueid": "w97597657:a98950023", "current_trial": 63, "dateTime": 1664555264383, "trialdata": {"rt": 1274, "stimulus": "<p id='stroop-text' class='stroop-blue'>GREEN</p>", "response": "b", "stimulus-type": "incongruent", "word": "green", "color": "blue", "correct_response": "b", "trial_id": "stroop-trial-1-incongruent-24", "trial_type": "html-keyboard-response", "trial_index": 63, "time_elapsed": 271299, "internal_node_id": "0.0-4.0-59.0"}}, {"uniqueid": "w97597657:a98950023", "current_trial": 64, "dateTime": 1664555265767, "trialdata": {"rt": 883, "stimulus": "<p id='stroop-text' class='stroop-yellow'>GREEN</p>", "response": "g", "stimulus-type": "incongruent", "word": "green", "color": "yellow", "correct_response": "y", "trial_id": "stroop-trial-1-incongruent-1", "trial_type": "html-keyboard-response", "trial_index": 64, "time_elapsed": 272683, "internal_node_id": "0.0-4.0-60.0"}}, {"uniqueid": "w97597657:a98950023", "current_trial": 65, "dateTime": 1664555267045, "trialdata": {"rt": 777, "stimulus": "<p id='stroop-text' class='stroop-green'>FORK</p>", "response": "g", "stimulus-type": "unrelated", "word": "FORK", "color": "green", "correct_response": "g", "trial_id": "stroop-trial-1-unrelated-8", "trial_type": "html-keyboard-response", "trial_index": 65, "time_elapsed": 273961, "internal_node_id": "0.0-4.0-61.0"}}, {"uniqueid": "w97597657:a98950023", "current_trial": 66, "dateTime": 1664555268374, "trialdata": {"rt": 827, "stimulus": "<p id='stroop-text' class='stroop-blue'>YELLOW</p>", "response": "b", "stimulus-type": "incongruent", "word": "yellow", "color": "blue", "correct_response": "b", "trial_id": "stroop-trial-1-incongruent-12", "trial_type": "html-keyboard-response", "trial_index": 66, "time_elapsed": 275289, "internal_node_id": "0.0-4.0-62.0"}}, {"uniqueid": "w97597657:a98950023", "current_trial": 67, "dateTime": 1664555269477, "trialdata": {"rt": 602, "stimulus": "<p id='stroop-text' class='stroop-blue'>BLUE</p>", "response": "b", "stimulus-type": "congruent", "word": "blue", "color": "blue", "correct_response": "b", "trial_id": "stroop-trial-1-congruent-5", "trial_type": "html-keyboard-response", "trial_index": 67, "time_elapsed": 276393, "internal_node_id": "0.0-4.0-63.0"}}, {"uniqueid": "w97597657:a98950023", "current_trial": 68, "dateTime": 1664555270409, "trialdata": {"rt": 431, "stimulus": "<p id='stroop-text' class='stroop-blue'>GREEN</p>", "response": "b", "stimulus-type": "incongruent", "word": "green", "color": "blue", "correct_response": "b", "trial_id": "stroop-trial-1-incongruent-18", "trial_type": "html-keyboard-response", "trial_index": 68, "time_elapsed": 277325, "internal_node_id": "0.0-4.0-64.0"}}, {"uniqueid": "w97597657:a98950023", "current_trial": 69, "dateTime": 1664555271510, "trialdata": {"rt": 599, "stimulus": "<p id='stroop-text' class='stroop-yellow'>STONE</p>", "response": "y", "stimulus-type": "unrelated", "word": "STONE", "color": "yellow", "correct_response": "y", "trial_id": "stroop-trial-1-unrelated-30", "trial_type": "html-keyboard-response", "trial_index": 69, "time_elapsed": 278426, "internal_node_id": "0.0-4.0-65.0"}}, {"uniqueid": "w97597657:a98950023", "current_trial": 70, "dateTime": 1664555273251, "trialdata": {"rt": 1240, "stimulus": "<p id='stroop-text' class='stroop-blue'>RED</p>", "response": "r", "stimulus-type": "incongruent", "word": "red", "color": "blue", "correct_response": "b", "trial_id": "stroop-trial-1-incongruent-13", "trial_type": "html-keyboard-response", "trial_index": 70, "time_elapsed": 280166, "internal_node_id": "0.0-4.0-66.0"}}, {"uniqueid": "w97597657:a98950023", "current_trial": 71, "dateTime": 1664555274333, "trialdata": {"rt": 581, "stimulus": "<p id='stroop-text' class='stroop-blue'>FORK</p>", "response": "b", "stimulus-type": "unrelated", "word": "FORK", "color": "blue", "correct_response": "b", "trial_id": "stroop-trial-1-unrelated-2", "trial_type": "html-keyboard-response", "trial_index": 71, "time_elapsed": 281249, "internal_node_id": "0.0-4.0-67.0"}}, {"uniqueid": "w97597657:a98950023", "current_trial": 72, "dateTime": 1664555275524, "trialdata": {"rt": 689, "stimulus": "<p id='stroop-text' class='stroop-red'>RED</p>", "response": "r", "stimulus-type": "congruent", "word": "red", "color": "red", "correct_response": "r", "trial_id": "stroop-trial-1-congruent-10", "trial_type": "html-keyboard-response", "trial_index": 72, "time_elapsed": 282440, "internal_node_id": "0.0-4.0-68.0"}}, {"uniqueid": "w97597657:a98950023", "current_trial": 73, "dateTime": 1664555277217, "trialdata": {"rt": 1192, "stimulus": "<p id='stroop-text' class='stroop-blue'>RED</p>", "response": "b", "stimulus-type": "incongruent", "word": "red", "color": "blue", "correct_response": "b", "trial_id": "stroop-trial-1-incongruent-29", "trial_type": "html-keyboard-response", "trial_index": 73, "time_elapsed": 284133, "internal_node_id": "0.0-4.0-69.0"}}, {"uniqueid": "w97597657:a98950023", "current_trial": 74, "dateTime": 1664555279027, "trialdata": {"rt": 1308, "stimulus": "<p id='stroop-text' class='stroop-red'>BRAIN</p>", "response": "y", "stimulus-type": "unrelated", "word": "BRAIN", "color": "red", "correct_response": "r", "trial_id": "stroop-trial-1-unrelated-6", "trial_type": "html-keyboard-response", "trial_index": 74, "time_elapsed": 285943, "internal_node_id": "0.0-4.0-70.0"}}, {"uniqueid": "w97597657:a98950023", "current_trial": 75, "dateTime": 1664555280397, "trialdata": {"rt": 869, "stimulus": "<p id='stroop-text' class='stroop-green'>GREEN</p>", "response": "b", "stimulus-type": "congruent", "word": "green", "color": "green", "correct_response": "g", "trial_id": "stroop-trial-1-congruent-12", "trial_type": "html-keyboard-response", "trial_index": 75, "time_elapsed": 287313, "internal_node_id": "0.0-4.0-71.0"}}, {"uniqueid": "w97597657:a98950023", "current_trial": 76, "dateTime": 1664555281544, "trialdata": {"rt": 645, "stimulus": "<p id='stroop-text' class='stroop-blue'>BLUE</p>", "response": "b", "stimulus-type": "congruent", "word": "blue", "color": "blue", "correct_response": "b", "trial_id": "stroop-trial-1-congruent-26", "trial_type": "html-keyboard-response", "trial_index": 76, "time_elapsed": 288460, "internal_node_id": "0.0-4.0-72.0"}}, {"uniqueid": "w97597657:a98950023", "current_trial": 77, "dateTime": 1664555282804, "trialdata": {"rt": 759, "stimulus": "<p id='stroop-text' class='stroop-green'>SHIP</p>", "response": "g", "stimulus-type": "unrelated", "word": "SHIP", "color": "green", "correct_response": "g", "trial_id": "stroop-trial-1-unrelated-15", "trial_type": "html-keyboard-response", "trial_index": 77, "time_elapsed": 289720, "internal_node_id": "0.0-4.0-73.0"}}, {"uniqueid": "w97597657:a98950023", "current_trial": 78, "dateTime": 1664555283841, "trialdata": {"rt": 535, "stimulus": "<p id='stroop-text' class='stroop-blue'>BLUE</p>", "response": "b", "stimulus-type": "congruent", "word": "blue", "color": "blue", "correct_response": "b", "trial_id": "stroop-trial-1-congruent-11", "trial_type": "html-keyboard-response", "trial_index": 78, "time_elapsed": 290757, "internal_node_id": "0.0-4.0-74.0"}}, {"uniqueid": "w97597657:a98950023", "current_trial": 79, "dateTime": 1664555284965, "trialdata": {"rt": 617, "stimulus": "<p id='stroop-text' class='stroop-green'>GREEN</p>", "response": "g", "stimulus-type": "congruent", "word": "green", "color": "green", "correct_response": "g", "trial_id": "stroop-trial-1-congruent-28", "trial_type": "html-keyboard-response", "trial_index": 79, "time_elapsed": 291881, "internal_node_id": "0.0-4.0-75.0"}}, {"uniqueid": "w97597657:a98950023", "current_trial": 80, "dateTime": 1664555285976, "trialdata": {"rt": 509, "stimulus": "<p id='stroop-text' class='stroop-green'>GREEN</p>", "response": "g", "stimulus-type": "congruent", "word": "green", "color": "green", "correct_response": "g", "trial_id": "stroop-trial-1-congruent-20", "trial_type": "html-keyboard-response", "trial_index": 80, "time_elapsed": 292891, "internal_node_id": "0.0-4.0-76.0"}}, {"uniqueid": "w97597657:a98950023", "current_trial": 81, "dateTime": 1664555288333, "trialdata": {"rt": 1856, "stimulus": "<p id='stroop-text' class='stroop-green'>YELLOW</p>", "response": "g", "stimulus-type": "incongruent", "word": "yellow", "color": "green", "correct_response": "g", "trial_id": "stroop-trial-1-incongruent-4", "trial_type": "html-keyboard-response", "trial_index": 81, "time_elapsed": 295249, "internal_node_id": "0.0-4.0-77.0"}}, {"uniqueid": "w97597657:a98950023", "current_trial": 82, "dateTime": 1664555291077, "trialdata": {"rt": 2242, "stimulus": "<p id='stroop-text' class='stroop-blue'>GREEN</p>", "response": "b", "stimulus-type": "incongruent", "word": "green", "color": "blue", "correct_response": "b", "trial_id": "stroop-trial-1-incongruent-10", "trial_type": "html-keyboard-response", "trial_index": 82, "time_elapsed": 297993, "internal_node_id": "0.0-4.0-78.0"}}, {"uniqueid": "w97597657:a98950023", "current_trial": 83, "dateTime": 1664555292433, "trialdata": {"rt": 854, "stimulus": "<p id='stroop-text' class='stroop-red'>GREEN</p>", "response": "r", "stimulus-type": "incongruent", "word": "green", "color": "red", "correct_response": "r", "trial_id": "stroop-trial-1-incongruent-22", "trial_type": "html-keyboard-response", "trial_index": 83, "time_elapsed": 299349, "internal_node_id": "0.0-4.0-79.0"}}, {"uniqueid": "w97597657:a98950023", "current_trial": 84, "dateTime": 1664555294303, "trialdata": {"rt": 1368, "stimulus": "<p id='stroop-text' class='stroop-yellow'>BLUE</p>", "response": "y", "stimulus-type": "incongruent", "word": "blue", "color": "yellow", "correct_response": "y", "trial_id": "stroop-trial-1-incongruent-9", "trial_type": "html-keyboard-response", "trial_index": 84, "time_elapsed": 301218, "internal_node_id": "0.0-4.0-80.0"}}, {"uniqueid": "w97597657:a98950023", "current_trial": 85, "dateTime": 1664555295456, "trialdata": {"rt": 651, "stimulus": "<p id='stroop-text' class='stroop-green'>GREEN</p>", "response": "g", "stimulus-type": "congruent", "word": "green", "color": "green", "correct_response": "g", "trial_id": "stroop-trial-1-congruent-21", "trial_type": "html-keyboard-response", "trial_index": 85, "time_elapsed": 302372, "internal_node_id": "0.0-4.0-81.0"}}, {"uniqueid": "w97597657:a98950023", "current_trial": 86, "dateTime": 1664555296554, "trialdata": {"rt": 597, "stimulus": "<p id='stroop-text' class='stroop-green'>YELLOW</p>", "response": "g", "stimulus-type": "incongruent", "word": "yellow", "color": "green", "correct_response": "g", "trial_id": "stroop-trial-1-incongruent-19", "trial_type": "html-keyboard-response", "trial_index": 86, "time_elapsed": 303469, "internal_node_id": "0.0-4.0-82.0"}}, {"uniqueid": "w97597657:a98950023", "current_trial": 87, "dateTime": 1664555297475, "trialdata": {"rt": 420, "stimulus": "<p id='stroop-text' class='stroop-green'>FORK</p>", "response": "g", "stimulus-type": "unrelated", "word": "FORK", "color": "green", "correct_response": "g", "trial_id": "stroop-trial-1-unrelated-20", "trial_type": "html-keyboard-response", "trial_index": 87, "time_elapsed": 304391, "internal_node_id": "0.0-4.0-83.0"}}, {"uniqueid": "w97597657:a98950023", "current_trial": 88, "dateTime": 1664555298615, "trialdata": {"rt": 638, "stimulus": "<p id='stroop-text' class='stroop-red'>RED</p>", "response": "r", "stimulus-type": "congruent", "word": "red", "color": "red", "correct_response": "r", "trial_id": "stroop-trial-1-congruent-19", "trial_type": "html-keyboard-response", "trial_index": 88, "time_elapsed": 305531, "internal_node_id": "0.0-4.0-84.0"}}, {"uniqueid": "w97597657:a98950023", "current_trial": 89, "dateTime": 1664555299526, "trialdata": {"rt": 410, "stimulus": "<p id='stroop-text' class='stroop-red'>RED</p>", "response": "r", "stimulus-type": "congruent", "word": "red", "color": "red", "correct_response": "r", "trial_id": "stroop-trial-1-congruent-8", "trial_type": "html-keyboard-response", "trial_index": 89, "time_elapsed": 306442, "internal_node_id": "0.0-4.0-85.0"}}, {"uniqueid": "w97597657:a98950023", "current_trial": 90, "dateTime": 1664555300834, "trialdata": {"rt": 806, "stimulus": "<p id='stroop-text' class='stroop-blue'>RED</p>", "response": "b", "stimulus-type": "incongruent", "word": "red", "color": "blue", "correct_response": "b", "trial_id": "stroop-trial-1-incongruent-30", "trial_type": "html-keyboard-response", "trial_index": 90, "time_elapsed": 307750, "internal_node_id": "0.0-4.0-86.0"}}, {"uniqueid": "w97597657:a98950023", "current_trial": 91, "dateTime": 1664555302419, "trialdata": {"rt": 1084, "stimulus": "<p id='stroop-text' class='stroop-red'>BOAT</p>", "response": "r", "stimulus-type": "unrelated", "word": "BOAT", "color": "red", "correct_response": "r", "trial_id": "stroop-trial-1-unrelated-3", "trial_type": "html-keyboard-response", "trial_index": 91, "time_elapsed": 309335, "internal_node_id": "0.0-4.0-87.0"}}, {"uniqueid": "w97597657:a98950023", "current_trial": 92, "dateTime": 1664555303491, "trialdata": {"rt": 571, "stimulus": "<p id='stroop-text' class='stroop-yellow'>RED</p>", "response": "y", "stimulus-type": "incongruent", "word": "red", "color": "yellow", "correct_response": "y", "trial_id": "stroop-trial-1-incongruent-16", "trial_type": "html-keyboard-response", "trial_index": 92, "time_elapsed": 310407, "internal_node_id": "0.0-4.0-88.0"}}, {"uniqueid": "w97597657:a98950023", "current_trial": 93, "dateTime": 1664555304882, "trialdata": {"rt": 890, "stimulus": "<p id='stroop-text' class='stroop-blue'>YELLOW</p>", "response": "g", "stimulus-type": "incongruent", "word": "yellow", "color": "blue", "correct_response": "b", "trial_id": "stroop-trial-1-incongruent-8", "trial_type": "html-keyboard-response", "trial_index": 93, "time_elapsed": 311798, "internal_node_id": "0.0-4.0-89.0"}}, {"uniqueid": "w97597657:a98950023", "current_trial": 94, "dateTime": 1664555341826, "trialdata": {"rt": 36440, "stimulus": "  <h1> End of block! </h1>\n\n  You have reached the end of the block 1/5. If you need a short break, feel free to take one now before moving on.\n\n  <br><br>\n  In the next block, you will complete another 90 rounds of this game.\n\n  <br><br>\n  <div style='text-align: center;'>Press <code>space</code> to begin.</div>\n  <br><br>\n<div style='text-align: center;'>(If the experiment doesn't continue, try clicking on the text and then pressing <code>space</code>.)</div>", "response": " ", "trial_id": "stroop_1_ready_2", "trial_type": "html-keyboard-response", "trial_index": 94, "time_elapsed": 348742, "internal_node_id": "0.0-5.0"}}, {"uniqueid": "w97597657:a98950023", "current_trial": 95, "dateTime": 1664555343263, "trialdata": {"rt": 1436, "stimulus": "<p id='stroop-text' class='stroop-yellow'>CHAIR</p>", "response": "y", "stimulus-type": "unrelated", "word": "CHAIR", "color": "yellow", "correct_response": "y", "trial_id": "stroop-trial-1-unrelated-30", "trial_type": "html-keyboard-response", "trial_index": 95, "time_elapsed": 350179, "internal_node_id": "0.0-6.0-0.0"}}, {"uniqueid": "w97597657:a98950023", "current_trial": 96, "dateTime": 1664555344842, "trialdata": {"rt": 1076, "stimulus": "<p id='stroop-text' class='stroop-green'>BLUE</p>", "response": "g", "stimulus-type": "incongruent", "word": "blue", "color": "green", "correct_response": "g", "trial_id": "stroop-trial-1-incongruent-16", "trial_type": "html-keyboard-response", "trial_index": 96, "time_elapsed": 351758, "internal_node_id": "0.0-6.0-1.0"}}, {"uniqueid": "w97597657:a98950023", "current_trial": 97, "dateTime": 1664555345921, "trialdata": {"rt": 577, "stimulus": "<p id='stroop-text' class='stroop-blue'>GREEN</p>", "response": "b", "stimulus-type": "incongruent", "word": "green", "color": "blue", "correct_response": "b", "trial_id": "stroop-trial-1-incongruent-18", "trial_type": "html-keyboard-response", "trial_index": 97, "time_elapsed": 352837, "internal_node_id": "0.0-6.0-2.0"}}, {"uniqueid": "w97597657:a98950023", "current_trial": 98, "dateTime": 1664555346934, "trialdata": {"rt": 511, "stimulus": "<p id='stroop-text' class='stroop-green'>CHAIR</p>", "response": "g", "stimulus-type": "unrelated", "word": "CHAIR", "color": "green", "correct_response": "g", "trial_id": "stroop-trial-1-unrelated-19", "trial_type": "html-keyboard-response", "trial_index": 98, "time_elapsed": 353849, "internal_node_id": "0.0-6.0-3.0"}}, {"uniqueid": "w97597657:a98950023", "current_trial": 99, "dateTime": 1664555348134, "trialdata": {"rt": 699, "stimulus": "<p id='stroop-text' class='stroop-yellow'>BOAT</p>", "response": "y", "stimulus-type": "unrelated", "word": "BOAT", "color": "yellow", "correct_response": "y", "trial_id": "stroop-trial-1-unrelated-16", "trial_type": "html-keyboard-response", "trial_index": 99, "time_elapsed": 355050, "internal_node_id": "0.0-6.0-4.0"}}, {"uniqueid": "w97597657:a98950023", "current_trial": 100, "dateTime": 1664555349181, "trialdata": {"rt": 545, "stimulus": "<p id='stroop-text' class='stroop-red'>BLUE</p>", "response": "r", "stimulus-type": "incongruent", "word": "blue", "color": "red", "correct_response": "r", "trial_id": "stroop-trial-1-incongruent-10", "trial_type": "html-keyboard-response", "trial_index": 100, "time_elapsed": 356097, "internal_node_id": "0.0-6.0-5.0"}}, {"uniqueid": "w97597657:a98950023", "current_trial": 101, "dateTime": 1664555350391, "trialdata": {"rt": 708, "stimulus": "<p id='stroop-text' class='stroop-yellow'>BLUE</p>", "response": "y", "stimulus-type": "incongruent", "word": "blue", "color": "yellow", "correct_response": "y", "trial_id": "stroop-trial-1-incongruent-26", "trial_type": "html-keyboard-response", "trial_index": 101, "time_elapsed": 357307, "internal_node_id": "0.0-6.0-6.0"}}, {"uniqueid": "w97597657:a98950023", "current_trial": 102, "dateTime": 1664555351310, "trialdata": {"rt": 418, "stimulus": "<p id='stroop-text' class='stroop-yellow'>BRAIN</p>", "response": "y", "stimulus-type": "unrelated", "word": "BRAIN", "color": "yellow", "correct_response": "y", "trial_id": "stroop-trial-1-unrelated-21", "trial_type": "html-keyboard-response", "trial_index": 102, "time_elapsed": 358226, "internal_node_id": "0.0-6.0-7.0"}}, {"uniqueid": "w97597657:a98950023", "current_trial": 103, "dateTime": 1664555352367, "trialdata": {"rt": 555, "stimulus": "<p id='stroop-text' class='stroop-blue'>BLUE</p>", "response": "b", "stimulus-type": "congruent", "word": "blue", "color": "blue", "correct_response": "b", "trial_id": "stroop-trial-1-congruent-1", "trial_type": "html-keyboard-response", "trial_index": 103, "time_elapsed": 359283, "internal_node_id": "0.0-6.0-8.0"}}, {"uniqueid": "w97597657:a98950023", "current_trial": 104, "dateTime": 1664555353318, "trialdata": {"rt": 449, "stimulus": "<p id='stroop-text' class='stroop-blue'>BLUE</p>", "response": "b", "stimulus-type": "congruent", "word": "blue", "color": "blue", "correct_response": "b", "trial_id": "stroop-trial-1-congruent-14", "trial_type": "html-keyboard-response", "trial_index": 104, "time_elapsed": 360233, "internal_node_id": "0.0-6.0-9.0"}}, {"uniqueid": "w97597657:a98950023", "current_trial": 105, "dateTime": 1664555354382, "trialdata": {"rt": 563, "stimulus": "<p id='stroop-text' class='stroop-yellow'>RED</p>", "response": "y", "stimulus-type": "incongruent", "word": "red", "color": "yellow", "correct_response": "y", "trial_id": "stroop-trial-1-incongruent-12", "trial_type": "html-keyboard-response", "trial_index": 105, "time_elapsed": 361298, "internal_node_id": "0.0-6.0-10.0"}}, {"uniqueid": "w97597657:a98950023", "current_trial": 106, "dateTime": 1664555355366, "trialdata": {"rt": 482, "stimulus": "<p id='stroop-text' class='stroop-yellow'>CHAIR</p>", "response": "y", "stimulus-type": "unrelated", "word": "CHAIR", "color": "yellow", "correct_response": "y", "trial_id": "stroop-trial-1-unrelated-23", "trial_type": "html-keyboard-response", "trial_index": 106, "time_elapsed": 362282, "internal_node_id": "0.0-6.0-11.0"}}, {"uniqueid": "w97597657:a98950023", "current_trial": 107, "dateTime": 1664555356419, "trialdata": {"rt": 550, "stimulus": "<p id='stroop-text' class='stroop-red'>BRAIN</p>", "response": "r", "stimulus-type": "unrelated", "word": "BRAIN", "color": "red", "correct_response": "r", "trial_id": "stroop-trial-1-unrelated-7", "trial_type": "html-keyboard-response", "trial_index": 107, "time_elapsed": 363335, "internal_node_id": "0.0-6.0-12.0"}}, {"uniqueid": "w97597657:a98950023", "current_trial": 108, "dateTime": 1664555357765, "trialdata": {"rt": 845, "stimulus": "<p id='stroop-text' class='stroop-blue'>BLUE</p>", "response": "b", "stimulus-type": "congruent", "word": "blue", "color": "blue", "correct_response": "b", "trial_id": "stroop-trial-1-congruent-27", "trial_type": "html-keyboard-response", "trial_index": 108, "time_elapsed": 364681, "internal_node_id": "0.0-6.0-13.0"}}, {"uniqueid": "w97597657:a98950023", "current_trial": 109, "dateTime": 1664555359237, "trialdata": {"rt": 969, "stimulus": "<p id='stroop-text' class='stroop-yellow'>YELLOW</p>", "response": "y", "stimulus-type": "congruent", "word": "yellow", "color": "yellow", "correct_response": "y", "trial_id": "stroop-trial-1-congruent-5", "trial_type": "html-keyboard-response", "trial_index": 109, "time_elapsed": 366152, "internal_node_id": "0.0-6.0-14.0"}}, {"uniqueid": "w97597657:a98950023", "current_trial": 110, "dateTime": 1664555360517, "trialdata": {"rt": 778, "stimulus": "<p id='stroop-text' class='stroop-green'>YELLOW</p>", "response": "g", "stimulus-type": "incongruent", "word": "yellow", "color": "green", "correct_response": "g", "trial_id": "stroop-trial-1-incongruent-6", "trial_type": "html-keyboard-response", "trial_index": 110, "time_elapsed": 367432, "internal_node_id": "0.0-6.0-15.0"}}, {"uniqueid": "w97597657:a98950023", "current_trial": 111, "dateTime": 1664555361773, "trialdata": {"rt": 754, "stimulus": "<p id='stroop-text' class='stroop-blue'>BLUE</p>", "response": "b", "stimulus-type": "congruent", "word": "blue", "color": "blue", "correct_response": "b", "trial_id": "stroop-trial-1-congruent-22", "trial_type": "html-keyboard-response", "trial_index": 111, "time_elapsed": 368689, "internal_node_id": "0.0-6.0-16.0"}}, {"uniqueid": "w97597657:a98950023", "current_trial": 112, "dateTime": 1664555362789, "trialdata": {"rt": 515, "stimulus": "<p id='stroop-text' class='stroop-blue'>BLUE</p>", "response": "b", "stimulus-type": "congruent", "word": "blue", "color": "blue", "correct_response": "b", "trial_id": "stroop-trial-1-congruent-15", "trial_type": "html-keyboard-response", "trial_index": 112, "time_elapsed": 369705, "internal_node_id": "0.0-6.0-17.0"}}, {"uniqueid": "w97597657:a98950023", "current_trial": 113, "dateTime": 1664555364254, "trialdata": {"rt": 962, "stimulus": "<p id='stroop-text' class='stroop-green'>DOG</p>", "response": "g", "stimulus-type": "unrelated", "word": "DOG", "color": "green", "correct_response": "g", "trial_id": "stroop-trial-1-unrelated-14", "trial_type": "html-keyboard-response", "trial_index": 113, "time_elapsed": 371170, "internal_node_id": "0.0-6.0-18.0"}}, {"uniqueid": "w97597657:a98950023", "current_trial": 114, "dateTime": 1664555365688, "trialdata": {"rt": 933, "stimulus": "<p id='stroop-text' class='stroop-yellow'>RED</p>", "response": "y", "stimulus-type": "incongruent", "word": "red", "color": "yellow", "correct_response": "y", "trial_id": "stroop-trial-1-incongruent-3", "trial_type": "html-keyboard-response", "trial_index": 114, "time_elapsed": 372604, "internal_node_id": "0.0-6.0-19.0"}}, {"uniqueid": "w97597657:a98950023", "current_trial": 115, "dateTime": 1664555366796, "trialdata": {"rt": 607, "stimulus": "<p id='stroop-text' class='stroop-red'>RED</p>", "response": "r", "stimulus-type": "congruent", "word": "red", "color": "red", "correct_response": "r", "trial_id": "stroop-trial-1-congruent-11", "trial_type": "html-keyboard-response", "trial_index": 115, "time_elapsed": 373712, "internal_node_id": "0.0-6.0-20.0"}}, {"uniqueid": "w97597657:a98950023", "current_trial": 116, "dateTime": 1664555368047, "trialdata": {"rt": 750, "stimulus": "<p id='stroop-text' class='stroop-green'>WINDOW</p>", "response": "g", "stimulus-type": "unrelated", "word": "WINDOW", "color": "green", "correct_response": "g", "trial_id": "stroop-trial-1-unrelated-12", "trial_type": "html-keyboard-response", "trial_index": 116, "time_elapsed": 374963, "internal_node_id": "0.0-6.0-21.0"}}, {"uniqueid": "w97597657:a98950023", "current_trial": 117, "dateTime": 1664555369191, "trialdata": {"rt": 641, "stimulus": "<p id='stroop-text' class='stroop-yellow'>BLUE</p>", "response": "y", "stimulus-type": "incongruent", "word": "blue", "color": "yellow", "correct_response": "y", "trial_id": "stroop-trial-1-incongruent-1", "trial_type": "html-keyboard-response", "trial_index": 117, "time_elapsed": 376106, "internal_node_id": "0.0-6.0-22.0"}}, {"uniqueid": "w97597657:a98950023", "current_trial": 118, "dateTime": 1664555370276, "trialdata": {"rt": 584, "stimulus": "<p id='stroop-text' class='stroop-blue'>BRAIN</p>", "response": "b", "stimulus-type": "unrelated", "word": "BRAIN", "color": "blue", "correct_response": "b", "trial_id": "stroop-trial-1-unrelated-11", "trial_type": "html-keyboard-response", "trial_index": 118, "time_elapsed": 377192, "internal_node_id": "0.0-6.0-23.0"}}, {"uniqueid": "w97597657:a98950023", "current_trial": 119, "dateTime": 1664555371283, "trialdata": {"rt": 506, "stimulus": "<p id='stroop-text' class='stroop-red'>RED</p>", "response": "r", "stimulus-type": "congruent", "word": "red", "color": "red", "correct_response": "r", "trial_id": "stroop-trial-1-congruent-21", "trial_type": "html-keyboard-response", "trial_index": 119, "time_elapsed": 378199, "internal_node_id": "0.0-6.0-24.0"}}, {"uniqueid": "w97597657:a98950023", "current_trial": 120, "dateTime": 1664555372270, "trialdata": {"rt": 484, "stimulus": "<p id='stroop-text' class='stroop-red'>RED</p>", "response": "r", "stimulus-type": "congruent", "word": "red", "color": "red", "correct_response": "r", "trial_id": "stroop-trial-1-congruent-30", "trial_type": "html-keyboard-response", "trial_index": 120, "time_elapsed": 379185, "internal_node_id": "0.0-6.0-25.0"}}, {"uniqueid": "w97597657:a98950023", "current_trial": 121, "dateTime": 1664555373161, "trialdata": {"rt": 390, "stimulus": "<p id='stroop-text' class='stroop-red'>BRIDGE</p>", "response": "r", "stimulus-type": "unrelated", "word": "BRIDGE", "color": "red", "correct_response": "r", "trial_id": "stroop-trial-1-unrelated-17", "trial_type": "html-keyboard-response", "trial_index": 121, "time_elapsed": 380077, "internal_node_id": "0.0-6.0-26.0"}}, {"uniqueid": "w97597657:a98950023", "current_trial": 122, "dateTime": 1664555374278, "trialdata": {"rt": 615, "stimulus": "<p id='stroop-text' class='stroop-yellow'>YELLOW</p>", "response": "y", "stimulus-type": "congruent", "word": "yellow", "color": "yellow", "correct_response": "y", "trial_id": "stroop-trial-1-congruent-7", "trial_type": "html-keyboard-response", "trial_index": 122, "time_elapsed": 381193, "internal_node_id": "0.0-6.0-27.0"}}, {"uniqueid": "w97597657:a98950023", "current_trial": 123, "dateTime": 1664555375296, "trialdata": {"rt": 517, "stimulus": "<p id='stroop-text' class='stroop-green'>YELLOW</p>", "response": "g", "stimulus-type": "incongruent", "word": "yellow", "color": "green", "correct_response": "g", "trial_id": "stroop-trial-1-incongruent-13", "trial_type": "html-keyboard-response", "trial_index": 123, "time_elapsed": 382212, "internal_node_id": "0.0-6.0-28.0"}}, {"uniqueid": "w97597657:a98950023", "current_trial": 124, "dateTime": 1664555376449, "trialdata": {"rt": 651, "stimulus": "<p id='stroop-text' class='stroop-yellow'>RED</p>", "response": "y", "stimulus-type": "incongruent", "word": "red", "color": "yellow", "correct_response": "y", "trial_id": "stroop-trial-1-incongruent-21", "trial_type": "html-keyboard-response", "trial_index": 124, "time_elapsed": 383365, "internal_node_id": "0.0-6.0-29.0"}}, {"uniqueid": "w97597657:a98950023", "current_trial": 125, "dateTime": 1664555377482, "trialdata": {"rt": 532, "stimulus": "<p id='stroop-text' class='stroop-red'>MONKEY</p>", "response": "r", "stimulus-type": "unrelated", "word": "MONKEY", "color": "red", "correct_response": "r", "trial_id": "stroop-trial-1-unrelated-13", "trial_type": "html-keyboard-response", "trial_index": 125, "time_elapsed": 384398, "internal_node_id": "0.0-6.0-30.0"}}, {"uniqueid": "w97597657:a98950023", "current_trial": 126, "dateTime": 1664555378652, "trialdata": {"rt": 668, "stimulus": "<p id='stroop-text' class='stroop-blue'>YELLOW</p>", "response": "b", "stimulus-type": "incongruent", "word": "yellow", "color": "blue", "correct_response": "b", "trial_id": "stroop-trial-1-incongruent-20", "trial_type": "html-keyboard-response", "trial_index": 126, "time_elapsed": 385567, "internal_node_id": "0.0-6.0-31.0"}}, {"uniqueid": "w97597657:a98950023", "current_trial": 127, "dateTime": 1664555380138, "trialdata": {"rt": 985, "stimulus": "<p id='stroop-text' class='stroop-yellow'>WINDOW</p>", "response": "y", "stimulus-type": "unrelated", "word": "WINDOW", "color": "yellow", "correct_response": "y", "trial_id": "stroop-trial-1-unrelated-20", "trial_type": "html-keyboard-response", "trial_index": 127, "time_elapsed": 387054, "internal_node_id": "0.0-6.0-32.0"}}, {"uniqueid": "w97597657:a98950023", "current_trial": 128, "dateTime": 1664555381622, "trialdata": {"rt": 982, "stimulus": "<p id='stroop-text' class='stroop-blue'>GREEN</p>", "response": "b", "stimulus-type": "incongruent", "word": "green", "color": "blue", "correct_response": "b", "trial_id": "stroop-trial-1-incongruent-11", "trial_type": "html-keyboard-response", "trial_index": 128, "time_elapsed": 388538, "internal_node_id": "0.0-6.0-33.0"}}, {"uniqueid": "w97597657:a98950023", "current_trial": 129, "dateTime": 1664555382591, "trialdata": {"rt": 468, "stimulus": "<p id='stroop-text' class='stroop-red'>BRAIN</p>", "response": "r", "stimulus-type": "unrelated", "word": "BRAIN", "color": "red", "correct_response": "r", "trial_id": "stroop-trial-1-unrelated-2", "trial_type": "html-keyboard-response", "trial_index": 129, "time_elapsed": 389507, "internal_node_id": "0.0-6.0-34.0"}}, {"uniqueid": "w97597657:a98950023", "current_trial": 130, "dateTime": 1664555383960, "trialdata": {"rt": 867, "stimulus": "<p id='stroop-text' class='stroop-blue'>BRAIN</p>", "response": "b", "stimulus-type": "unrelated", "word": "BRAIN", "color": "blue", "correct_response": "b", "trial_id": "stroop-trial-1-unrelated-28", "trial_type": "html-keyboard-response", "trial_index": 130, "time_elapsed": 390876, "internal_node_id": "0.0-6.0-35.0"}}, {"uniqueid": "w97597657:a98950023", "current_trial": 131, "dateTime": 1664555385042, "trialdata": {"rt": 581, "stimulus": "<p id='stroop-text' class='stroop-yellow'>MONKEY</p>", "response": "y", "stimulus-type": "unrelated", "word": "MONKEY", "color": "yellow", "correct_response": "y", "trial_id": "stroop-trial-1-unrelated-9", "trial_type": "html-keyboard-response", "trial_index": 131, "time_elapsed": 391958, "internal_node_id": "0.0-6.0-36.0"}}, {"uniqueid": "w97597657:a98950023", "current_trial": 132, "dateTime": 1664555386418, "trialdata": {"rt": 874, "stimulus": "<p id='stroop-text' class='stroop-green'>GREEN</p>", "response": "g", "stimulus-type": "congruent", "word": "green", "color": "green", "correct_response": "g", "trial_id": "stroop-trial-1-congruent-2", "trial_type": "html-keyboard-response", "trial_index": 132, "time_elapsed": 393334, "internal_node_id": "0.0-6.0-37.0"}}, {"uniqueid": "w97597657:a98950023", "current_trial": 133, "dateTime": 1664555387628, "trialdata": {"rt": 709, "stimulus": "<p id='stroop-text' class='stroop-green'>STONE</p>", "response": "g", "stimulus-type": "unrelated", "word": "STONE", "color": "green", "correct_response": "g", "trial_id": "stroop-trial-1-unrelated-27", "trial_type": "html-keyboard-response", "trial_index": 133, "time_elapsed": 394544, "internal_node_id": "0.0-6.0-38.0"}}, {"uniqueid": "w97597657:a98950023", "current_trial": 134, "dateTime": 1664555388522, "trialdata": {"rt": 393, "stimulus": "<p id='stroop-text' class='stroop-green'>STONE</p>", "response": "g", "stimulus-type": "unrelated", "word": "STONE", "color": "green", "correct_response": "g", "trial_id": "stroop-trial-1-unrelated-1", "trial_type": "html-keyboard-response", "trial_index": 134, "time_elapsed": 395438, "internal_node_id": "0.0-6.0-39.0"}}, {"uniqueid": "w97597657:a98950023", "current_trial": 135, "dateTime": 1664555389556, "trialdata": {"rt": 531, "stimulus": "<p id='stroop-text' class='stroop-yellow'>STONE</p>", "response": "y", "stimulus-type": "unrelated", "word": "STONE", "color": "yellow", "correct_response": "y", "trial_id": "stroop-trial-1-unrelated-18", "trial_type": "html-keyboard-response", "trial_index": 135, "time_elapsed": 396471, "internal_node_id": "0.0-6.0-40.0"}}, {"uniqueid": "w97597657:a98950023", "current_trial": 136, "dateTime": 1664555390621, "trialdata": {"rt": 564, "stimulus": "<p id='stroop-text' class='stroop-blue'>MONKEY</p>", "response": "b", "stimulus-type": "unrelated", "word": "MONKEY", "color": "blue", "correct_response": "b", "trial_id": "stroop-trial-1-unrelated-3", "trial_type": "html-keyboard-response", "trial_index": 136, "time_elapsed": 397537, "internal_node_id": "0.0-6.0-41.0"}}, {"uniqueid": "w97597657:a98950023", "current_trial": 137, "dateTime": 1664555391730, "trialdata": {"rt": 607, "stimulus": "<p id='stroop-text' class='stroop-yellow'>YELLOW</p>", "response": "y", "stimulus-type": "congruent", "word": "yellow", "color": "yellow", "correct_response": "y", "trial_id": "stroop-trial-1-congruent-8", "trial_type": "html-keyboard-response", "trial_index": 137, "time_elapsed": 398646, "internal_node_id": "0.0-6.0-42.0"}}, {"uniqueid": "w97597657:a98950023", "current_trial": 138, "dateTime": 1664555392679, "trialdata": {"rt": 447, "stimulus": "<p id='stroop-text' class='stroop-blue'>BRIDGE</p>", "response": "b", "stimulus-type": "unrelated", "word": "BRIDGE", "color": "blue", "correct_response": "b", "trial_id": "stroop-trial-1-unrelated-5", "trial_type": "html-keyboard-response", "trial_index": 138, "time_elapsed": 399595, "internal_node_id": "0.0-6.0-43.0"}}, {"uniqueid": "w97597657:a98950023", "current_trial": 139, "dateTime": 1664555393705, "trialdata": {"rt": 510, "stimulus": "<p id='stroop-text' class='stroop-red'>BLUE</p>", "response": "r", "stimulus-type": "incongruent", "word": "blue", "color": "red", "correct_response": "r", "trial_id": "stroop-trial-1-incongruent-4", "trial_type": "html-keyboard-response", "trial_index": 139, "time_elapsed": 400620, "internal_node_id": "0.0-6.0-44.0"}}, {"uniqueid": "w97597657:a98950023", "current_trial": 140, "dateTime": 1664555394948, "trialdata": {"rt": 742, "stimulus": "<p id='stroop-text' class='stroop-green'>BRIDGE</p>", "response": "g", "stimulus-type": "unrelated", "word": "BRIDGE", "color": "green", "correct_response": "g", "trial_id": "stroop-trial-1-unrelated-15", "trial_type": "html-keyboard-response", "trial_index": 140, "time_elapsed": 401864, "internal_node_id": "0.0-6.0-45.0"}}, {"uniqueid": "w97597657:a98950023", "current_trial": 141, "dateTime": 1664555396091, "trialdata": {"rt": 641, "stimulus": "<p id='stroop-text' class='stroop-green'>GREEN</p>", "response": "g", "stimulus-type": "congruent", "word": "green", "color": "green", "correct_response": "g", "trial_id": "stroop-trial-1-congruent-13", "trial_type": "html-keyboard-response", "trial_index": 141, "time_elapsed": 403007, "internal_node_id": "0.0-6.0-46.0"}}, {"uniqueid": "w97597657:a98950023", "current_trial": 142, "dateTime": 1664555397258, "trialdata": {"rt": 665, "stimulus": "<p id='stroop-text' class='stroop-red'>BOTTLE</p>", "response": "r", "stimulus-type": "unrelated", "word": "BOTTLE", "color": "red", "correct_response": "r", "trial_id": "stroop-trial-1-unrelated-6", "trial_type": "html-keyboard-response", "trial_index": 142, "time_elapsed": 404174, "internal_node_id": "0.0-6.0-47.0"}}, {"uniqueid": "w97597657:a98950023", "current_trial": 143, "dateTime": 1664555398307, "trialdata": {"rt": 547, "stimulus": "<p id='stroop-text' class='stroop-red'>CHAIR</p>", "response": "r", "stimulus-type": "unrelated", "word": "CHAIR", "color": "red", "correct_response": "r", "trial_id": "stroop-trial-1-unrelated-25", "trial_type": "html-keyboard-response", "trial_index": 143, "time_elapsed": 405222, "internal_node_id": "0.0-6.0-48.0"}}, {"uniqueid": "w97597657:a98950023", "current_trial": 144, "dateTime": 1664555399465, "trialdata": {"rt": 657, "stimulus": "<p id='stroop-text' class='stroop-green'>GREEN</p>", "response": "g", "stimulus-type": "congruent", "word": "green", "color": "green", "correct_response": "g", "trial_id": "stroop-trial-1-congruent-16", "trial_type": "html-keyboard-response", "trial_index": 144, "time_elapsed": 406381, "internal_node_id": "0.0-6.0-49.0"}}, {"uniqueid": "w97597657:a98950023", "current_trial": 145, "dateTime": 1664555400569, "trialdata": {"rt": 602, "stimulus": "<p id='stroop-text' class='stroop-blue'>BLUE</p>", "response": "b", "stimulus-type": "congruent", "word": "blue", "color": "blue", "correct_response": "b", "trial_id": "stroop-trial-1-congruent-18", "trial_type": "html-keyboard-response", "trial_index": 145, "time_elapsed": 407485, "internal_node_id": "0.0-6.0-50.0"}}, {"uniqueid": "w97597657:a98950023", "current_trial": 146, "dateTime": 1664555401823, "trialdata": {"rt": 752, "stimulus": "<p id='stroop-text' class='stroop-red'>RED</p>", "response": "r", "stimulus-type": "congruent", "word": "red", "color": "red", "correct_response": "r", "trial_id": "stroop-trial-1-congruent-6", "trial_type": "html-keyboard-response", "trial_index": 146, "time_elapsed": 408739, "internal_node_id": "0.0-6.0-51.0"}}, {"uniqueid": "w97597657:a98950023", "current_trial": 147, "dateTime": 1664555403043, "trialdata": {"rt": 718, "stimulus": "<p id='stroop-text' class='stroop-red'>BRAIN</p>", "response": "r", "stimulus-type": "unrelated", "word": "BRAIN", "color": "red", "correct_response": "r", "trial_id": "stroop-trial-1-unrelated-4", "trial_type": "html-keyboard-response", "trial_index": 147, "time_elapsed": 409959, "internal_node_id": "0.0-6.0-52.0"}}, {"uniqueid": "w97597657:a98950023", "current_trial": 148, "dateTime": 1664555404632, "trialdata": {"rt": 1088, "stimulus": "<p id='stroop-text' class='stroop-green'>YELLOW</p>", "response": "y", "stimulus-type": "incongruent", "word": "yellow", "color": "green", "correct_response": "g", "trial_id": "stroop-trial-1-incongruent-7", "trial_type": "html-keyboard-response", "trial_index": 148, "time_elapsed": 411548, "internal_node_id": "0.0-6.0-53.0"}}, {"uniqueid": "w97597657:a98950023", "current_trial": 149, "dateTime": 1664555405902, "trialdata": {"rt": 768, "stimulus": "<p id='stroop-text' class='stroop-blue'>BLUE</p>", "response": "b", "stimulus-type": "congruent", "word": "blue", "color": "blue", "correct_response": "b", "trial_id": "stroop-trial-1-congruent-12", "trial_type": "html-keyboard-response", "trial_index": 149, "time_elapsed": 412818, "internal_node_id": "0.0-6.0-54.0"}}, {"uniqueid": "w97597657:a98950023", "current_trial": 150, "dateTime": 1664555407173, "trialdata": {"rt": 769, "stimulus": "<p id='stroop-text' class='stroop-green'>BLUE</p>", "response": "g", "stimulus-type": "incongruent", "word": "blue", "color": "green", "correct_response": "g", "trial_id": "stroop-trial-1-incongruent-19", "trial_type": "html-keyboard-response", "trial_index": 150, "time_elapsed": 414089, "internal_node_id": "0.0-6.0-55.0"}}, {"uniqueid": "w97597657:a98950023", "current_trial": 151, "dateTime": 1664555408853, "trialdata": {"rt": 1178, "stimulus": "<p id='stroop-text' class='stroop-red'>GREEN</p>", "response": "r", "stimulus-type": "incongruent", "word": "green", "color": "red", "correct_response": "r", "trial_id": "stroop-trial-1-incongruent-23", "trial_type": "html-keyboard-response", "trial_index": 151, "time_elapsed": 415768, "internal_node_id": "0.0-6.0-56.0"}}, {"uniqueid": "w97597657:a98950023", "current_trial": 152, "dateTime": 1664555410145, "trialdata": {"rt": 791, "stimulus": "<p id='stroop-text' class='stroop-green'>YELLOW</p>", "response": "y", "stimulus-type": "incongruent", "word": "yellow", "color": "green", "correct_response": "g", "trial_id": "stroop-trial-1-incongruent-9", "trial_type": "html-keyboard-response", "trial_index": 152, "time_elapsed": 417061, "internal_node_id": "0.0-6.0-57.0"}}, {"uniqueid": "w97597657:a98950023", "current_trial": 153, "dateTime": 1664555411705, "trialdata": {"rt": 1059, "stimulus": "<p id='stroop-text' class='stroop-blue'>YELLOW</p>", "response": "b", "stimulus-type": "incongruent", "word": "yellow", "color": "blue", "correct_response": "b", "trial_id": "stroop-trial-1-incongruent-29", "trial_type": "html-keyboard-response", "trial_index": 153, "time_elapsed": 418621, "internal_node_id": "0.0-6.0-58.0"}}, {"uniqueid": "w97597657:a98950023", "current_trial": 154, "dateTime": 1664555413155, "trialdata": {"rt": 948, "stimulus": "<p id='stroop-text' class='stroop-yellow'>BOTTLE</p>", "response": "y", "stimulus-type": "unrelated", "word": "BOTTLE", "color": "yellow", "correct_response": "y", "trial_id": "stroop-trial-1-unrelated-26", "trial_type": "html-keyboard-response", "trial_index": 154, "time_elapsed": 420071, "internal_node_id": "0.0-6.0-59.0"}}, {"uniqueid": "w97597657:a98950023", "current_trial": 155, "dateTime": 1664555414508, "trialdata": {"rt": 852, "stimulus": "<p id='stroop-text' class='stroop-blue'>BLUE</p>", "response": "b", "stimulus-type": "congruent", "word": "blue", "color": "blue", "correct_response": "b", "trial_id": "stroop-trial-1-congruent-10", "trial_type": "html-keyboard-response", "trial_index": 155, "time_elapsed": 421424, "internal_node_id": "0.0-6.0-60.0"}}, {"uniqueid": "w97597657:a98950023", "current_trial": 156, "dateTime": 1664555416375, "trialdata": {"rt": 1365, "stimulus": "<p id='stroop-text' class='stroop-green'>YELLOW</p>", "response": "g", "stimulus-type": "incongruent", "word": "yellow", "color": "green", "correct_response": "g", "trial_id": "stroop-trial-1-incongruent-27", "trial_type": "html-keyboard-response", "trial_index": 156, "time_elapsed": 423291, "internal_node_id": "0.0-6.0-61.0"}}, {"uniqueid": "w97597657:a98950023", "current_trial": 157, "dateTime": 1664555417731, "trialdata": {"rt": 853, "stimulus": "<p id='stroop-text' class='stroop-green'>GREEN</p>", "response": "g", "stimulus-type": "congruent", "word": "green", "color": "green", "correct_response": "g", "trial_id": "stroop-trial-1-congruent-17", "trial_type": "html-keyboard-response", "trial_index": 157, "time_elapsed": 424647, "internal_node_id": "0.0-6.0-62.0"}}, {"uniqueid": "w97597657:a98950023", "current_trial": 158, "dateTime": 1664555418928, "trialdata": {"rt": 695, "stimulus": "<p id='stroop-text' class='stroop-yellow'>YELLOW</p>", "response": "y", "stimulus-type": "congruent", "word": "yellow", "color": "yellow", "correct_response": "y", "trial_id": "stroop-trial-1-congruent-3", "trial_type": "html-keyboard-response", "trial_index": 158, "time_elapsed": 425844, "internal_node_id": "0.0-6.0-63.0"}}, {"uniqueid": "w97597657:a98950023", "current_trial": 159, "dateTime": 1664555420153, "trialdata": {"rt": 724, "stimulus": "<p id='stroop-text' class='stroop-green'>BRIDGE</p>", "response": "g", "stimulus-type": "unrelated", "word": "BRIDGE", "color": "green", "correct_response": "g", "trial_id": "stroop-trial-1-unrelated-8", "trial_type": "html-keyboard-response", "trial_index": 159, "time_elapsed": 427069, "internal_node_id": "0.0-6.0-64.0"}}, {"uniqueid": "w97597657:a98950023", "current_trial": 160, "dateTime": 1664555421333, "trialdata": {"rt": 678, "stimulus": "<p id='stroop-text' class='stroop-green'>BLUE</p>", "response": "g", "stimulus-type": "incongruent", "word": "blue", "color": "green", "correct_response": "g", "trial_id": "stroop-trial-1-incongruent-22", "trial_type": "html-keyboard-response", "trial_index": 160, "time_elapsed": 428249, "internal_node_id": "0.0-6.0-65.0"}}, {"uniqueid": "w97597657:a98950023", "current_trial": 161, "dateTime": 1664555422428, "trialdata": {"rt": 593, "stimulus": "<p id='stroop-text' class='stroop-yellow'>YELLOW</p>", "response": "y", "stimulus-type": "congruent", "word": "yellow", "color": "yellow", "correct_response": "y", "trial_id": "stroop-trial-1-congruent-19", "trial_type": "html-keyboard-response", "trial_index": 161, "time_elapsed": 429344, "internal_node_id": "0.0-6.0-66.0"}}, {"uniqueid": "w97597657:a98950023", "current_trial": 162, "dateTime": 1664555423756, "trialdata": {"rt": 826, "stimulus": "<p id='stroop-text' class='stroop-red'>RED</p>", "response": "r", "stimulus-type": "congruent", "word": "red", "color": "red", "correct_response": "r", "trial_id": "stroop-trial-1-congruent-4", "trial_type": "html-keyboard-response", "trial_index": 162, "time_elapsed": 430672, "internal_node_id": "0.0-6.0-67.0"}}, {"uniqueid": "w97597657:a98950023", "current_trial": 163, "dateTime": 1664555425354, "trialdata": {"rt": 1096, "stimulus": "<p id='stroop-text' class='stroop-green'>YELLOW</p>", "response": "g", "stimulus-type": "incongruent", "word": "yellow", "color": "green", "correct_response": "g", "trial_id": "stroop-trial-1-incongruent-8", "trial_type": "html-keyboard-response", "trial_index": 163, "time_elapsed": 432270, "internal_node_id": "0.0-6.0-68.0"}}, {"uniqueid": "w97597657:a98950023", "current_trial": 164, "dateTime": 1664555426494, "trialdata": {"rt": 639, "stimulus": "<p id='stroop-text' class='stroop-yellow'>RED</p>", "response": "y", "stimulus-type": "incongruent", "word": "red", "color": "yellow", "correct_response": "y", "trial_id": "stroop-trial-1-incongruent-14", "trial_type": "html-keyboard-response", "trial_index": 164, "time_elapsed": 433410, "internal_node_id": "0.0-6.0-69.0"}}, {"uniqueid": "w97597657:a98950023", "current_trial": 165, "dateTime": 1664555427847, "trialdata": {"rt": 852, "stimulus": "<p id='stroop-text' class='stroop-green'>GREEN</p>", "response": "g", "stimulus-type": "congruent", "word": "green", "color": "green", "correct_response": "g", "trial_id": "stroop-trial-1-congruent-9", "trial_type": "html-keyboard-response", "trial_index": 165, "time_elapsed": 434763, "internal_node_id": "0.0-6.0-70.0"}}, {"uniqueid": "w97597657:a98950023", "current_trial": 166, "dateTime": 1664555429012, "trialdata": {"rt": 663, "stimulus": "<p id='stroop-text' class='stroop-green'>BLUE</p>", "response": "g", "stimulus-type": "incongruent", "word": "blue", "color": "green", "correct_response": "g", "trial_id": "stroop-trial-1-incongruent-5", "trial_type": "html-keyboard-response", "trial_index": 166, "time_elapsed": 435928, "internal_node_id": "0.0-6.0-71.0"}}, {"uniqueid": "w97597657:a98950023", "current_trial": 167, "dateTime": 1664555430244, "trialdata": {"rt": 730, "stimulus": "<p id='stroop-text' class='stroop-yellow'>GREEN</p>", "response": "y", "stimulus-type": "incongruent", "word": "green", "color": "yellow", "correct_response": "y", "trial_id": "stroop-trial-1-incongruent-2", "trial_type": "html-keyboard-response", "trial_index": 167, "time_elapsed": 437160, "internal_node_id": "0.0-6.0-72.0"}}, {"uniqueid": "w97597657:a98950023", "current_trial": 168, "dateTime": 1664555431424, "trialdata": {"rt": 677, "stimulus": "<p id='stroop-text' class='stroop-blue'>BRIDGE</p>", "response": "b", "stimulus-type": "unrelated", "word": "BRIDGE", "color": "blue", "correct_response": "b", "trial_id": "stroop-trial-1-unrelated-29", "trial_type": "html-keyboard-response", "trial_index": 168, "time_elapsed": 438340, "internal_node_id": "0.0-6.0-73.0"}}, {"uniqueid": "w97597657:a98950023", "current_trial": 169, "dateTime": 1664555432560, "trialdata": {"rt": 634, "stimulus": "<p id='stroop-text' class='stroop-red'>RED</p>", "response": "r", "stimulus-type": "congruent", "word": "red", "color": "red", "correct_response": "r", "trial_id": "stroop-trial-1-congruent-25", "trial_type": "html-keyboard-response", "trial_index": 169, "time_elapsed": 439476, "internal_node_id": "0.0-6.0-74.0"}}, {"uniqueid": "w97597657:a98950023", "current_trial": 170, "dateTime": 1664555433647, "trialdata": {"rt": 575, "stimulus": "<p id='stroop-text' class='stroop-red'>BLUE</p>", "response": "r", "stimulus-type": "incongruent", "word": "blue", "color": "red", "correct_response": "r", "trial_id": "stroop-trial-1-incongruent-17", "trial_type": "html-keyboard-response", "trial_index": 170, "time_elapsed": 440562, "internal_node_id": "0.0-6.0-75.0"}}, {"uniqueid": "w97597657:a98950023", "current_trial": 171, "dateTime": 1664555434873, "trialdata": {"rt": 724, "stimulus": "<p id='stroop-text' class='stroop-yellow'>YELLOW</p>", "response": "y", "stimulus-type": "congruent", "word": "yellow", "color": "yellow", "correct_response": "y", "trial_id": "stroop-trial-1-congruent-26", "trial_type": "html-keyboard-response", "trial_index": 171, "time_elapsed": 441789, "internal_node_id": "0.0-6.0-76.0"}}, {"uniqueid": "w97597657:a98950023", "current_trial": 172, "dateTime": 1664555435945, "trialdata": {"rt": 570, "stimulus": "<p id='stroop-text' class='stroop-red'>RED</p>", "response": "r", "stimulus-type": "congruent", "word": "red", "color": "red", "correct_response": "r", "trial_id": "stroop-trial-1-congruent-29", "trial_type": "html-keyboard-response", "trial_index": 172, "time_elapsed": 442861, "internal_node_id": "0.0-6.0-77.0"}}, {"uniqueid": "w97597657:a98950023", "current_trial": 173, "dateTime": 1664555437000, "trialdata": {"rt": 554, "stimulus": "<p id='stroop-text' class='stroop-yellow'>YELLOW</p>", "response": "y", "stimulus-type": "congruent", "word": "yellow", "color": "yellow", "correct_response": "y", "trial_id": "stroop-trial-1-congruent-20", "trial_type": "html-keyboard-response", "trial_index": 173, "time_elapsed": 443916, "internal_node_id": "0.0-6.0-78.0"}}, {"uniqueid": "w97597657:a98950023", "current_trial": 174, "dateTime": 1664555437985, "trialdata": {"rt": 482, "stimulus": "<p id='stroop-text' class='stroop-red'>BOAT</p>", "response": "r", "stimulus-type": "unrelated", "word": "BOAT", "color": "red", "correct_response": "r", "trial_id": "stroop-trial-1-unrelated-22", "trial_type": "html-keyboard-response", "trial_index": 174, "time_elapsed": 444901, "internal_node_id": "0.0-6.0-79.0"}}, {"uniqueid": "w97597657:a98950023", "current_trial": 175, "dateTime": 1664555439208, "trialdata": {"rt": 722, "stimulus": "<p id='stroop-text' class='stroop-blue'>YELLOW</p>", "response": "g", "stimulus-type": "incongruent", "word": "yellow", "color": "blue", "correct_response": "b", "trial_id": "stroop-trial-1-incongruent-15", "trial_type": "html-keyboard-response", "trial_index": 175, "time_elapsed": 446124, "internal_node_id": "0.0-6.0-80.0"}}, {"uniqueid": "w97597657:a98950023", "current_trial": 176, "dateTime": 1664555440321, "trialdata": {"rt": 611, "stimulus": "<p id='stroop-text' class='stroop-green'>GREEN</p>", "response": "g", "stimulus-type": "congruent", "word": "green", "color": "green", "correct_response": "g", "trial_id": "stroop-trial-1-congruent-28", "trial_type": "html-keyboard-response", "trial_index": 176, "time_elapsed": 447237, "internal_node_id": "0.0-6.0-81.0"}}, {"uniqueid": "w97597657:a98950023", "current_trial": 177, "dateTime": 1664555441943, "trialdata": {"rt": 1120, "stimulus": "<p id='stroop-text' class='stroop-yellow'>BLUE</p>", "response": "y", "stimulus-type": "incongruent", "word": "blue", "color": "yellow", "correct_response": "y", "trial_id": "stroop-trial-1-incongruent-28", "trial_type": "html-keyboard-response", "trial_index": 177, "time_elapsed": 448859, "internal_node_id": "0.0-6.0-82.0"}}, {"uniqueid": "w97597657:a98950023", "current_trial": 178, "dateTime": 1664555443138, "trialdata": {"rt": 693, "stimulus": "<p id='stroop-text' class='stroop-yellow'>RED</p>", "response": "y", "stimulus-type": "incongruent", "word": "red", "color": "yellow", "correct_response": "y", "trial_id": "stroop-trial-1-incongruent-25", "trial_type": "html-keyboard-response", "trial_index": 178, "time_elapsed": 450054, "internal_node_id": "0.0-6.0-83.0"}}, {"uniqueid": "w97597657:a98950023", "current_trial": 179, "dateTime": 1664555444445, "trialdata": {"rt": 806, "stimulus": "<p id='stroop-text' class='stroop-red'>GREEN</p>", "response": "r", "stimulus-type": "incongruent", "word": "green", "color": "red", "correct_response": "r", "trial_id": "stroop-trial-1-incongruent-24", "trial_type": "html-keyboard-response", "trial_index": 179, "time_elapsed": 451361, "internal_node_id": "0.0-6.0-84.0"}}, {"uniqueid": "w97597657:a98950023", "current_trial": 180, "dateTime": 1664555445372, "trialdata": {"rt": 425, "stimulus": "<p id='stroop-text' class='stroop-red'>RED</p>", "response": "r", "stimulus-type": "congruent", "word": "red", "color": "red", "correct_response": "r", "trial_id": "stroop-trial-1-congruent-23", "trial_type": "html-keyboard-response", "trial_index": 180, "time_elapsed": 452288, "internal_node_id": "0.0-6.0-85.0"}}, {"uniqueid": "w97597657:a98950023", "current_trial": 181, "dateTime": 1664555446291, "trialdata": {"rt": 416, "stimulus": "<p id='stroop-text' class='stroop-red'>DOG</p>", "response": "r", "stimulus-type": "unrelated", "word": "DOG", "color": "red", "correct_response": "r", "trial_id": "stroop-trial-1-unrelated-10", "trial_type": "html-keyboard-response", "trial_index": 181, "time_elapsed": 453206, "internal_node_id": "0.0-6.0-86.0"}}, {"uniqueid": "w97597657:a98950023", "current_trial": 182, "dateTime": 1664555447379, "trialdata": {"rt": 585, "stimulus": "<p id='stroop-text' class='stroop-yellow'>RED</p>", "response": "y", "stimulus-type": "incongruent", "word": "red", "color": "yellow", "correct_response": "y", "trial_id": "stroop-trial-1-incongruent-30", "trial_type": "html-keyboard-response", "trial_index": 182, "time_elapsed": 454294, "internal_node_id": "0.0-6.0-87.0"}}, {"uniqueid": "w97597657:a98950023", "current_trial": 183, "dateTime": 1664555448569, "trialdata": {"rt": 688, "stimulus": "<p id='stroop-text' class='stroop-red'>RED</p>", "response": "r", "stimulus-type": "congruent", "word": "red", "color": "red", "correct_response": "r", "trial_id": "stroop-trial-1-congruent-24", "trial_type": "html-keyboard-response", "trial_index": 183, "time_elapsed": 455485, "internal_node_id": "0.0-6.0-88.0"}}, {"uniqueid": "w97597657:a98950023", "current_trial": 184, "dateTime": 1664555449650, "trialdata": {"rt": 579, "stimulus": "<p id='stroop-text' class='stroop-blue'>SHIP</p>", "response": "b", "stimulus-type": "unrelated", "word": "SHIP", "color": "blue", "correct_response": "b", "trial_id": "stroop-trial-1-unrelated-24", "trial_type": "html-keyboard-response", "trial_index": 184, "time_elapsed": 456566, "internal_node_id": "0.0-6.0-89.0"}}, {"uniqueid": "w97597657:a98950023", "current_trial": 185, "dateTime": 1664555531031, "trialdata": {"rt": 80878, "stimulus": "  <h1> End of block! </h1>\n\n  You have reached the end of the block 2/5. If you need a short break, feel free to take one now before moving on.\n\n  <br><br>\n  In the next block, you will complete another 90 rounds of this game.\n\n  <br><br>\n  <div style='text-align: center;'>Press <code>space</code> to begin.</div>\n  <br><br>\n<div style='text-align: center;'>(If the experiment doesn't continue, try clicking on the text and then pressing <code>space</code>.)</div>", "response": " ", "trial_id": "stroop_1_ready_3", "trial_type": "html-keyboard-response", "trial_index": 185, "time_elapsed": 537947, "internal_node_id": "0.0-7.0"}}, {"uniqueid": "w97597657:a98950023", "current_trial": 186, "dateTime": 1664555532369, "trialdata": {"rt": 1336, "stimulus": "<p id='stroop-text' class='stroop-green'>BLUE</p>", "response": "g", "stimulus-type": "incongruent", "word": "blue", "color": "green", "correct_response": "g", "trial_id": "stroop-trial-1-incongruent-9", "trial_type": "html-keyboard-response", "trial_index": 186, "time_elapsed": 539285, "internal_node_id": "0.0-8.0-0.0"}}, {"uniqueid": "w97597657:a98950023", "current_trial": 187, "dateTime": 1664555533743, "trialdata": {"rt": 872, "stimulus": "<p id='stroop-text' class='stroop-red'>YELLOW</p>", "response": "r", "stimulus-type": "incongruent", "word": "yellow", "color": "red", "correct_response": "r", "trial_id": "stroop-trial-1-incongruent-26", "trial_type": "html-keyboard-response", "trial_index": 187, "time_elapsed": 540658, "internal_node_id": "0.0-8.0-1.0"}}, {"uniqueid": "w97597657:a98950023", "current_trial": 188, "dateTime": 1664555534967, "trialdata": {"rt": 722, "stimulus": "<p id='stroop-text' class='stroop-yellow'>GREEN</p>", "response": "y", "stimulus-type": "incongruent", "word": "green", "color": "yellow", "correct_response": "y", "trial_id": "stroop-trial-1-incongruent-8", "trial_type": "html-keyboard-response", "trial_index": 188, "time_elapsed": 541883, "internal_node_id": "0.0-8.0-2.0"}}, {"uniqueid": "w97597657:a98950023", "current_trial": 189, "dateTime": 1664555536160, "trialdata": {"rt": 692, "stimulus": "<p id='stroop-text' class='stroop-green'>GREEN</p>", "response": "g", "stimulus-type": "congruent", "word": "green", "color": "green", "correct_response": "g", "trial_id": "stroop-trial-1-congruent-30", "trial_type": "html-keyboard-response", "trial_index": 189, "time_elapsed": 543076, "internal_node_id": "0.0-8.0-3.0"}}, {"uniqueid": "w97597657:a98950023", "current_trial": 190, "dateTime": 1664555537341, "trialdata": {"rt": 679, "stimulus": "<p id='stroop-text' class='stroop-yellow'>GREEN</p>", "response": "y", "stimulus-type": "incongruent", "word": "green", "color": "yellow", "correct_response": "y", "trial_id": "stroop-trial-1-incongruent-16", "trial_type": "html-keyboard-response", "trial_index": 190, "time_elapsed": 544257, "internal_node_id": "0.0-8.0-4.0"}}, {"uniqueid": "w97597657:a98950023", "current_trial": 191, "dateTime": 1664555538523, "trialdata": {"rt": 679, "stimulus": "<p id='stroop-text' class='stroop-blue'>BOAT</p>", "response": "b", "stimulus-type": "unrelated", "word": "BOAT", "color": "blue", "correct_response": "b", "trial_id": "stroop-trial-1-unrelated-14", "trial_type": "html-keyboard-response", "trial_index": 191, "time_elapsed": 545438, "internal_node_id": "0.0-8.0-5.0"}}, {"uniqueid": "w97597657:a98950023", "current_trial": 192, "dateTime": 1664555539535, "trialdata": {"rt": 510, "stimulus": "<p id='stroop-text' class='stroop-blue'>BLUE</p>", "response": "b", "stimulus-type": "congruent", "word": "blue", "color": "blue", "correct_response": "b", "trial_id": "stroop-trial-1-congruent-29", "trial_type": "html-keyboard-response", "trial_index": 192, "time_elapsed": 546451, "internal_node_id": "0.0-8.0-6.0"}}, {"uniqueid": "w97597657:a98950023", "current_trial": 193, "dateTime": 1664555540442, "trialdata": {"rt": 406, "stimulus": "<p id='stroop-text' class='stroop-blue'>BLUE</p>", "response": "b", "stimulus-type": "congruent", "word": "blue", "color": "blue", "correct_response": "b", "trial_id": "stroop-trial-1-congruent-22", "trial_type": "html-keyboard-response", "trial_index": 193, "time_elapsed": 547358, "internal_node_id": "0.0-8.0-7.0"}}, {"uniqueid": "w97597657:a98950023", "current_trial": 194, "dateTime": 1664555541691, "trialdata": {"rt": 747, "stimulus": "<p id='stroop-text' class='stroop-green'>DOG</p>", "response": "g", "stimulus-type": "unrelated", "word": "DOG", "color": "green", "correct_response": "g", "trial_id": "stroop-trial-1-unrelated-6", "trial_type": "html-keyboard-response", "trial_index": 194, "time_elapsed": 548607, "internal_node_id": "0.0-8.0-8.0"}}, {"uniqueid": "w97597657:a98950023", "current_trial": 195, "dateTime": 1664555543513, "trialdata": {"rt": 1319, "stimulus": "<p id='stroop-text' class='stroop-blue'>RED</p>", "response": "b", "stimulus-type": "incongruent", "word": "red", "color": "blue", "correct_response": "b", "trial_id": "stroop-trial-1-incongruent-12", "trial_type": "html-keyboard-response", "trial_index": 195, "time_elapsed": 550428, "internal_node_id": "0.0-8.0-9.0"}}, {"uniqueid": "w97597657:a98950023", "current_trial": 196, "dateTime": 1664555544927, "trialdata": {"rt": 912, "stimulus": "<p id='stroop-text' class='stroop-yellow'>YELLOW</p>", "response": "y", "stimulus-type": "congruent", "word": "yellow", "color": "yellow", "correct_response": "y", "trial_id": "stroop-trial-1-congruent-11", "trial_type": "html-keyboard-response", "trial_index": 196, "time_elapsed": 551843, "internal_node_id": "0.0-8.0-10.0"}}, {"uniqueid": "w97597657:a98950023", "current_trial": 197, "dateTime": 1664555545983, "trialdata": {"rt": 554, "stimulus": "<p id='stroop-text' class='stroop-red'>BRIDGE</p>", "response": "r", "stimulus-type": "unrelated", "word": "BRIDGE", "color": "red", "correct_response": "r", "trial_id": "stroop-trial-1-unrelated-27", "trial_type": "html-keyboard-response", "trial_index": 197, "time_elapsed": 552899, "internal_node_id": "0.0-8.0-11.0"}}, {"uniqueid": "w97597657:a98950023", "current_trial": 198, "dateTime": 1664555546896, "trialdata": {"rt": 412, "stimulus": "<p id='stroop-text' class='stroop-red'>BLUE</p>", "response": "r", "stimulus-type": "incongruent", "word": "blue", "color": "red", "correct_response": "r", "trial_id": "stroop-trial-1-incongruent-3", "trial_type": "html-keyboard-response", "trial_index": 198, "time_elapsed": 553812, "internal_node_id": "0.0-8.0-12.0"}}, {"uniqueid": "w97597657:a98950023", "current_trial": 199, "dateTime": 1664555548147, "trialdata": {"rt": 749, "stimulus": "<p id='stroop-text' class='stroop-yellow'>WINDOW</p>", "response": "y", "stimulus-type": "unrelated", "word": "WINDOW", "color": "yellow", "correct_response": "y", "trial_id": "stroop-trial-1-unrelated-28", "trial_type": "html-keyboard-response", "trial_index": 199, "time_elapsed": 555063, "internal_node_id": "0.0-8.0-13.0"}}, {"uniqueid": "w97597657:a98950023", "current_trial": 200, "dateTime": 1664555549565, "trialdata": {"rt": 915, "stimulus": "<p id='stroop-text' class='stroop-green'>BLUE</p>", "response": "g", "stimulus-type": "incongruent", "word": "blue", "color": "green", "correct_response": "g", "trial_id": "stroop-trial-1-incongruent-23", "trial_type": "html-keyboard-response", "trial_index": 200, "time_elapsed": 556480, "internal_node_id": "0.0-8.0-14.0"}}, {"uniqueid": "w97597657:a98950023", "current_trial": 201, "dateTime": 1664555550633, "trialdata": {"rt": 566, "stimulus": "<p id='stroop-text' class='stroop-blue'>BLUE</p>", "response": "b", "stimulus-type": "congruent", "word": "blue", "color": "blue", "correct_response": "b", "trial_id": "stroop-trial-1-congruent-27", "trial_type": "html-keyboard-response", "trial_index": 201, "time_elapsed": 557548, "internal_node_id": "0.0-8.0-15.0"}}, {"uniqueid": "w97597657:a98950023", "current_trial": 202, "dateTime": 1664555552115, "trialdata": {"rt": 980, "stimulus": "<p id='stroop-text' class='stroop-green'>BLUE</p>", "response": "g", "stimulus-type": "incongruent", "word": "blue", "color": "green", "correct_response": "g", "trial_id": "stroop-trial-1-incongruent-18", "trial_type": "html-keyboard-response", "trial_index": 202, "time_elapsed": 559030, "internal_node_id": "0.0-8.0-16.0"}}, {"uniqueid": "w97597657:a98950023", "current_trial": 203, "dateTime": 1664555553988, "trialdata": {"rt": 1371, "stimulus": "<p id='stroop-text' class='stroop-red'>CHAIR</p>", "response": "r", "stimulus-type": "unrelated", "word": "CHAIR", "color": "red", "correct_response": "r", "trial_id": "stroop-trial-1-unrelated-29", "trial_type": "html-keyboard-response", "trial_index": 203, "time_elapsed": 560904, "internal_node_id": "0.0-8.0-17.0"}}, {"uniqueid": "w97597657:a98950023", "current_trial": 204, "dateTime": 1664555555231, "trialdata": {"rt": 741, "stimulus": "<p id='stroop-text' class='stroop-yellow'>YELLOW</p>", "response": "y", "stimulus-type": "congruent", "word": "yellow", "color": "yellow", "correct_response": "y", "trial_id": "stroop-trial-1-congruent-21", "trial_type": "html-keyboard-response", "trial_index": 204, "time_elapsed": 562146, "internal_node_id": "0.0-8.0-18.0"}}, {"uniqueid": "w97597657:a98950023", "current_trial": 205, "dateTime": 1664555556415, "trialdata": {"rt": 682, "stimulus": "<p id='stroop-text' class='stroop-blue'>BLUE</p>", "response": "b", "stimulus-type": "congruent", "word": "blue", "color": "blue", "correct_response": "b", "trial_id": "stroop-trial-1-congruent-14", "trial_type": "html-keyboard-response", "trial_index": 205, "time_elapsed": 563331, "internal_node_id": "0.0-8.0-19.0"}}, {"uniqueid": "w97597657:a98950023", "current_trial": 206, "dateTime": 1664555557853, "trialdata": {"rt": 935, "stimulus": "<p id='stroop-text' class='stroop-red'>RED</p>", "response": "r", "stimulus-type": "congruent", "word": "red", "color": "red", "correct_response": "r", "trial_id": "stroop-trial-1-congruent-6", "trial_type": "html-keyboard-response", "trial_index": 206, "time_elapsed": 564769, "internal_node_id": "0.0-8.0-20.0"}}, {"uniqueid": "w97597657:a98950023", "current_trial": 207, "dateTime": 1664555558819, "trialdata": {"rt": 463, "stimulus": "<p id='stroop-text' class='stroop-red'>RED</p>", "response": "r", "stimulus-type": "congruent", "word": "red", "color": "red", "correct_response": "r", "trial_id": "stroop-trial-1-congruent-20", "trial_type": "html-keyboard-response", "trial_index": 207, "time_elapsed": 565734, "internal_node_id": "0.0-8.0-21.0"}}, {"uniqueid": "w97597657:a98950023", "current_trial": 208, "dateTime": 1664555560338, "trialdata": {"rt": 1018, "stimulus": "<p id='stroop-text' class='stroop-blue'>BLUE</p>", "response": "b", "stimulus-type": "congruent", "word": "blue", "color": "blue", "correct_response": "b", "trial_id": "stroop-trial-1-congruent-23", "trial_type": "html-keyboard-response", "trial_index": 208, "time_elapsed": 567254, "internal_node_id": "0.0-8.0-22.0"}}, {"uniqueid": "w97597657:a98950023", "current_trial": 209, "dateTime": 1664555561540, "trialdata": {"rt": 699, "stimulus": "<p id='stroop-text' class='stroop-yellow'>RED</p>", "response": "y", "stimulus-type": "incongruent", "word": "red", "color": "yellow", "correct_response": "y", "trial_id": "stroop-trial-1-incongruent-21", "trial_type": "html-keyboard-response", "trial_index": 209, "time_elapsed": 568456, "internal_node_id": "0.0-8.0-23.0"}}, {"uniqueid": "w97597657:a98950023", "current_trial": 210, "dateTime": 1664555563541, "trialdata": {"rt": 1485, "stimulus": "<p id='stroop-text' class='stroop-green'>DOG</p>", "response": "g", "stimulus-type": "unrelated", "word": "DOG", "color": "green", "correct_response": "g", "trial_id": "stroop-trial-1-unrelated-10", "trial_type": "html-keyboard-response", "trial_index": 210, "time_elapsed": 570457, "internal_node_id": "0.0-8.0-24.0"}}, {"uniqueid": "w97597657:a98950023", "current_trial": 211, "dateTime": 1664555564701, "trialdata": {"rt": 658, "stimulus": "<p id='stroop-text' class='stroop-green'>RED</p>", "response": "g", "stimulus-type": "incongruent", "word": "red", "color": "green", "correct_response": "g", "trial_id": "stroop-trial-1-incongruent-19", "trial_type": "html-keyboard-response", "trial_index": 211, "time_elapsed": 571617, "internal_node_id": "0.0-8.0-25.0"}}, {"uniqueid": "w97597657:a98950023", "current_trial": 212, "dateTime": 1664555565909, "trialdata": {"rt": 694, "stimulus": "<p id='stroop-text' class='stroop-yellow'>BOTTLE</p>", "response": "y", "stimulus-type": "unrelated", "word": "BOTTLE", "color": "yellow", "correct_response": "y", "trial_id": "stroop-trial-1-unrelated-19", "trial_type": "html-keyboard-response", "trial_index": 212, "time_elapsed": 572825, "internal_node_id": "0.0-8.0-26.0"}}, {"uniqueid": "w97597657:a98950023", "current_trial": 213, "dateTime": 1664555567667, "trialdata": {"rt": 1256, "stimulus": "<p id='stroop-text' class='stroop-blue'>BLUE</p>", "response": "b", "stimulus-type": "congruent", "word": "blue", "color": "blue", "correct_response": "b", "trial_id": "stroop-trial-1-congruent-28", "trial_type": "html-keyboard-response", "trial_index": 213, "time_elapsed": 574583, "internal_node_id": "0.0-8.0-27.0"}}, {"uniqueid": "w97597657:a98950023", "current_trial": 214, "dateTime": 1664555568983, "trialdata": {"rt": 813, "stimulus": "<p id='stroop-text' class='stroop-yellow'>WINDOW</p>", "response": "y", "stimulus-type": "unrelated", "word": "WINDOW", "color": "yellow", "correct_response": "y", "trial_id": "stroop-trial-1-unrelated-9", "trial_type": "html-keyboard-response", "trial_index": 214, "time_elapsed": 575899, "internal_node_id": "0.0-8.0-28.0"}}, {"uniqueid": "w97597657:a98950023", "current_trial": 215, "dateTime": 1664555570065, "trialdata": {"rt": 581, "stimulus": "<p id='stroop-text' class='stroop-blue'>BOAT</p>", "response": "b", "stimulus-type": "unrelated", "word": "BOAT", "color": "blue", "correct_response": "b", "trial_id": "stroop-trial-1-unrelated-16", "trial_type": "html-keyboard-response", "trial_index": 215, "time_elapsed": 576981, "internal_node_id": "0.0-8.0-29.0"}}, {"uniqueid": "w97597657:a98950023", "current_trial": 216, "dateTime": 1664555571043, "trialdata": {"rt": 477, "stimulus": "<p id='stroop-text' class='stroop-red'>SHIP</p>", "response": "r", "stimulus-type": "unrelated", "word": "SHIP", "color": "red", "correct_response": "r", "trial_id": "stroop-trial-1-unrelated-22", "trial_type": "html-keyboard-response", "trial_index": 216, "time_elapsed": 577959, "internal_node_id": "0.0-8.0-30.0"}}, {"uniqueid": "w97597657:a98950023", "current_trial": 217, "dateTime": 1664555572332, "trialdata": {"rt": 786, "stimulus": "<p id='stroop-text' class='stroop-green'>DOG</p>", "response": "g", "stimulus-type": "unrelated", "word": "DOG", "color": "green", "correct_response": "g", "trial_id": "stroop-trial-1-unrelated-18", "trial_type": "html-keyboard-response", "trial_index": 217, "time_elapsed": 579248, "internal_node_id": "0.0-8.0-31.0"}}, {"uniqueid": "w97597657:a98950023", "current_trial": 218, "dateTime": 1664555573622, "trialdata": {"rt": 788, "stimulus": "<p id='stroop-text' class='stroop-blue'>YELLOW</p>", "response": "b", "stimulus-type": "incongruent", "word": "yellow", "color": "blue", "correct_response": "b", "trial_id": "stroop-trial-1-incongruent-24", "trial_type": "html-keyboard-response", "trial_index": 218, "time_elapsed": 580538, "internal_node_id": "0.0-8.0-32.0"}}, {"uniqueid": "w97597657:a98950023", "current_trial": 219, "dateTime": 1664555574815, "trialdata": {"rt": 691, "stimulus": "<p id='stroop-text' class='stroop-red'>BLUE</p>", "response": "r", "stimulus-type": "incongruent", "word": "blue", "color": "red", "correct_response": "r", "trial_id": "stroop-trial-1-incongruent-28", "trial_type": "html-keyboard-response", "trial_index": 219, "time_elapsed": 581730, "internal_node_id": "0.0-8.0-33.0"}}, {"uniqueid": "w97597657:a98950023", "current_trial": 220, "dateTime": 1664555575897, "trialdata": {"rt": 581, "stimulus": "<p id='stroop-text' class='stroop-green'>GREEN</p>", "response": "g", "stimulus-type": "congruent", "word": "green", "color": "green", "correct_response": "g", "trial_id": "stroop-trial-1-congruent-3", "trial_type": "html-keyboard-response", "trial_index": 220, "time_elapsed": 582813, "internal_node_id": "0.0-8.0-34.0"}}, {"uniqueid": "w97597657:a98950023", "current_trial": 221, "dateTime": 1664555576814, "trialdata": {"rt": 414, "stimulus": "<p id='stroop-text' class='stroop-blue'>YELLOW</p>", "response": "b", "stimulus-type": "incongruent", "word": "yellow", "color": "blue", "correct_response": "b", "trial_id": "stroop-trial-1-incongruent-15", "trial_type": "html-keyboard-response", "trial_index": 221, "time_elapsed": 583729, "internal_node_id": "0.0-8.0-35.0"}}, {"uniqueid": "w97597657:a98950023", "current_trial": 222, "dateTime": 1664555577861, "trialdata": {"rt": 546, "stimulus": "<p id='stroop-text' class='stroop-blue'>RED</p>", "response": "b", "stimulus-type": "incongruent", "word": "red", "color": "blue", "correct_response": "b", "trial_id": "stroop-trial-1-incongruent-27", "trial_type": "html-ke