{"condition": 1, "counterbalance": 0, "assignmentId": "a97849231", "workerId": "w89499795", "hitId": "h74310814", "currenttrial": 143, "bonus": 0, "data": [{"uniqueid": "w89499795:a97849231", "current_trial": 0, "dateTime": 1664463990329, "trialdata": {"success": true, "trial_type": "fullscreen", "trial_index": 0, "time_elapsed": 6998, "internal_node_id": "0.0-0.0"}}, {"uniqueid": "w89499795:a97849231", "current_trial": 1, "dateTime": 1664464001945, "trialdata": {"view_history": [{"page_index": 0, "viewing_time": 11584}], "rt": 11588, "trial_id": "exp_instructions_no_distractor", "trial_type": "instructions", "trial_index": 1, "time_elapsed": 18617, "internal_node_id": "0.0-1.0"}}, {"uniqueid": "w89499795:a97849231", "current_trial": 2, "dateTime": 1664464006825, "trialdata": {"success": true, "trial_type": "fullscreen", "trial_index": 2, "time_elapsed": 23497, "internal_node_id": "0.0-2.0-0.0"}}, {"uniqueid": "w89499795:a97849231", "current_trial": 3, "dateTime": 1664464118460, "trialdata": {"view_history": [{"page_index": 0, "viewing_time": 47664}, {"page_index": 1, "viewing_time": 25336}, {"page_index": 2, "viewing_time": 10618}, {"page_index": 3, "viewing_time": 10742}, {"page_index": 4, "viewing_time": 17263}], "rt": 111624, "trial_id": "mouselab_instructions_1", "trial_type": "instructions", "trial_index": 3, "time_elapsed": 135132, "internal_node_id": "0.0-2.0-1.0"}}, {"uniqueid": "w89499795:a97849231", "current_trial": 4, "dateTime": 1664464145203, "trialdata": {"revealed_states": [], "num_clicks_accrued": [0, 0, 0, 0, 0, 0, 0, 0, 0, 0, 0, 0, 0], "stateRewards": ["", 10, -10, 10, 10, -10, -10, 10, -10, -10, -10, -10, 10], "withholdReward": false, "trial_id": "practice_1", "block": "test", "trialIndex": 0, "score": -8.25, "costs": -0.25, "simulationMode": [null, null, null], "rewards": [-10, -10, 10], "path": ["0", "0", "5", "6", "7"], "rt": [13664, 2097, 1145], "actions": ["right", "right", "up"], "actionTimes": [17362, 19961, 21626], "queries": {"click": {"state": {"target": ["5"], "time": [10271]}, "edge": {"target": [], "time": []}}, "mouseover": {"state": {"target": ["0", "5"], "time": [9405, 9759]}, "edge": {"target": [], "time": []}}, "mouseout": {"state": {"target": ["5", "0", "0", "5"], "time": [491, 3022, 9525, 11773]}, "edge": {"target": [], "time": []}}}, "displayed_time": "22.14", "trialTime": 25849, "trial_type": "mouselab-mdp", "trial_index": 4, "time_elapsed": 161872, "internal_node_id": "0.0-2.0-2.0-0.0"}}, {"uniqueid": "w89499795:a97849231", "current_trial": 5, "dateTime": 1664464168576, "trialdata": {"revealed_states": [], "num_clicks_accrued": [0, 0, 0, 0, 0, 0, 0, 0, 0, 0, 0, 0, 0], "stateRewards": ["", 10, -10, 10, -10, -10, 10, -10, -10, -10, 10, -10, -10], "withholdReward": false, "trial_id": "practice_2", "block": "test", "trialIndex": 1, "score": 11.5, "costs": -0.5, "simulationMode": [null, null, null], "rewards": [10, -10, 10], "path": ["0", "0", "1", "2", "3"], "rt": [10564, 861, 2683], "actions": ["up", "up", "right"], "actionTimes": [15713, 17079, 20286], "queries": {"click": {"state": {"target": ["9", "1"], "time": [9085, 13632]}, "edge": {"target": [], "time": []}}, "mouseover": {"state": {"target": ["9", "1", "0"], "time": [6499, 13014, 14217]}, "edge": {"target": [], "time": []}}, "mouseout": {"state": {"target": ["4", "2", "9", "1", "0"], "time": [3232, 3281, 12628, 14164, 14245]}, "edge": {"target": [], "time": []}}}, "displayed_time": "20.78", "trialTime": 23067, "trial_type": "mouselab-mdp", "trial_index": 5, "time_elapsed": 185248, "internal_node_id": "0.0-2.0-2.0-1.0"}}, {"uniqueid": "w89499795:a97849231", "current_trial": 6, "dateTime": 1664464229944, "trialdata": {"view_history": [{"page_index": 0, "viewing_time": 28453}, {"page_index": 1, "viewing_time": 20254}, {"page_index": 2, "viewing_time": 12639}], "rt": 61347, "trial_id": "mouselab_instructions_2_scarce", "trial_type": "instructions", "trial_index": 6, "time_elapsed": 246615, "internal_node_id": "0.0-2.0-3.0"}}, {"uniqueid": "w89499795:a97849231", "current_trial": 7, "dateTime": 1664464290206, "trialdata": {"rt": 60237, "response": {"Q0": "$-10 to $10", "Q1": "The cost is always $0.25.", "Q2": "The better I perform the higher my bonus will be.", "Q3": "No, the amount of cash at each node of the web may be different each time.", "Q4": "The values of the nodes walked through from start to finish.", "Q5": "Yes."}, "question_order": [0, 1, 2, 3, 4, 5], "correct": {"Q0": "$-48 to $48", "Q1": "The cost is always $0.25.", "Q2": "The better I perform the higher my bonus will be.", "Q3": "No, the amount of cash at each node of the web may be different each time.", "Q4": "The values of the nodes walked through from start to finish.", "Q5": "No, the spider might forget to count the money on some rounds."}, "trial_id": "mouselab_quiz_scarce", "trial_type": "survey-multi-choice", "trial_index": 7, "time_elapsed": 306877, "internal_node_id": "0.0-2.0-4.0"}}, {"uniqueid": "w89499795:a97849231", "current_trial": 8, "dateTime": 1664464299983, "trialdata": {"success": true, "trial_type": "fullscreen", "trial_index": 8, "time_elapsed": 316655, "internal_node_id": "0.0-2.1-0.1"}}, {"uniqueid": "w89499795:a97849231", "current_trial": 9, "dateTime": 1664464389717, "trialdata": {"view_history": [{"page_index": 0, "viewing_time": 30415}, {"page_index": 1, "viewing_time": 21232}, {"page_index": 2, "viewing_time": 8055}, {"page_index": 3, "viewing_time": 5033}, {"page_index": 4, "viewing_time": 24992}], "rt": 89727, "trial_id": "mouselab_instructions_1", "trial_type": "instructions", "trial_index": 9, "time_elapsed": 406389, "internal_node_id": "0.0-2.1-1.1"}}, {"uniqueid": "w89499795:a97849231", "current_trial": 10, "dateTime": 1664464404016, "trialdata": {"revealed_states": [], "num_clicks_accrued": [0, 0, 0, 0, 0, 0, 0, 0, 0, 0, 0, 0, 0], "stateRewards": ["", 10, -10, 10, 10, -10, -10, 10, -10, -10, -10, -10, 10], "withholdReward": false, "trial_id": "practice_1", "block": "test", "trialIndex": 2, "score": -8.25, "costs": -0.25, "simulationMode": [null, null, null], "rewards": [-10, -10, 10], "path": ["0", "0", "5", "6", "7"], "rt": [7320, 580, 1018], "actions": ["right", "right", "up"], "actionTimes": [10280, 11366, 12885], "queries": {"click": {"state": {"target": ["9"], "time": [6336]}, "edge": {"target": [], "time": []}}, "mouseover": {"state": {"target": ["9", "9"], "time": [5682, 5984]}, "edge": {"target": [], "time": []}}, "mouseout": {"state": {"target": ["5", "9", "9"], "time": [2247, 5715, 7613]}, "edge": {"target": [], "time": []}}}, "displayed_time": "13.39", "trialTime": 14050, "trial_type": "mouselab-mdp", "trial_index": 10, "time_elapsed": 420686, "internal_node_id": "0.0-2.1-2.1-0.1"}}, {"uniqueid": "w89499795:a97849231", "current_trial": 11, "dateTime": 1664464418945, "trialdata": {"revealed_states": [], "num_clicks_accrued": [0, 0, 0, 0, 0, 0, 0, 0, 0, 0, 0, 0, 0], "stateRewards": ["", 10, -10, 10, -10, -10, 10, -10, -10, -10, 10, -10, -10], "withholdReward": false, "trial_id": "practice_2", "block": "test", "trialIndex": 3, "score": -8.25, "costs": -0.25, "simulationMode": [null, null, null], "rewards": [-10, 10, -10], "path": ["0", "0", "5", "6", "8"], "rt": [6295, 1937, 447], "actions": ["right", "right", "down"], "actionTimes": [8833, 11283, 12227], "queries": {"click": {"state": {"target": ["1"], "time": [3983]}, "edge": {"target": [], "time": []}}, "mouseover": {"state": {"target": ["1", "0"], "time": [3443, 4392]}, "edge": {"target": [], "time": []}}, "mouseout": {"state": {"target": ["12", "5", "5", "9", "10", "9", "0", "1", "0"], "time": [898, 1025, 1141, 1191, 1341, 1825, 3251, 4331, 4425]}, "edge": {"target": [], "time": []}}}, "displayed_time": "12.73", "trialTime": 14626, "trial_type": "mouselab-mdp", "trial_index": 11, "time_elapsed": 435616, "internal_node_id": "0.0-2.1-2.1-1.1"}}, {"uniqueid": "w89499795:a97849231", "current_trial": 12, "dateTime": 1664464461143, "trialdata": {"view_history": [{"page_index": 0, "viewing_time": 30077}, {"page_index": 1, "viewing_time": 10511}, {"page_index": 2, "viewing_time": 1576}], "rt": 42165, "trial_id": "mouselab_instructions_2_scarce", "trial_type": "instructions", "trial_index": 12, "time_elapsed": 477814, "internal_node_id": "0.0-2.1-3.1"}}, {"uniqueid": "w89499795:a97849231", "current_trial": 13, "dateTime": 1664464519301, "trialdata": {"rt": 58137, "response": {"Q0": "$-48 to $48", "Q1": "The cost is always $0.25.", "Q2": "The better I perform the higher my bonus will be.", "Q3": "No, the amount of cash at each node of the web may be different each time.", "Q4": "The values of the nodes walked through from start to finish.", "Q5": "No, the spider might forget to count the money on some rounds."}, "question_order": [0, 1, 2, 3, 4, 5], "correct": {"Q0": "$-48 to $48", "Q1": "The cost is always $0.25.", "Q2": "The better I perform the higher my bonus will be.", "Q3": "No, the amount of cash at each node of the web may be different each time.", "Q4": "The values of the nodes walked through from start to finish.", "Q5": "No, the spider might forget to count the money on some rounds."}, "trial_id": "mouselab_quiz_scarce", "trial_type": "survey-multi-choice", "trial_index": 13, "time_elapsed": 535972, "internal_node_id": "0.0-2.1-4.1"}}, {"uniqueid": "w89499795:a97849231", "current_trial": 14, "dateTime": 1664464528984, "trialdata": {"rt": 9647, "stimulus": "\n<h1> Get ready to start the game! </h1>\n\nThank you for reading the instructions. Get ready start with the first of 4 block(s) of this game.\n<br><br>\nIn this first block, you will complete 30 rounds of this game before moving on.\n<br><br>\nRemember, the more money the spider gets, the bigger your bonus will be!\n<br><br>\n<div style='text-align: center;'>Press <code>space</code> to begin.</div>\n\n<br><br>\n(If, at any point, the <code>space</code> key does not take you to the next page, click once on the text and try again.)", "response": " ", "trial_id": "mdp_ready_1", "trial_type": "html-keyboard-response", "trial_index": 14, "time_elapsed": 545656, "internal_node_id": "0.0-4.0-0.0"}}, {"uniqueid": "w89499795:a97849231", "current_trial": 15, "dateTime": 1664464542377, "trialdata": {"revealed_states": [], "num_clicks_accrued": [0, 0, 0, 0, 0, 0, 0, 0, 0, 0, 0, 0, 0], "stateRewards": ["", -2, -8, -24, -24, 4, -4, -48, 48, 2, 8, 48, -48], "withholdReward": false, "trial_id": "mdp_498095124548", "block": "test1", "trialIndex": 4, "score": -33.25, "costs": -0.25, "simulationMode": [null, null, null], "rewards": [2, 8, -48], "path": ["0", "0", "9", "10", "12"], "rt": [4829, 419, 771], "actions": ["left", "left", "down"], "actionTimes": [6806, 7747, 9017], "queries": {"click": {"state": {"target": ["1"], "time": [4854]}, "edge": {"target": [], "time": []}}, "mouseover": {"state": {"target": ["0", "1", "0"], "time": [3878, 4190, 5257]}, "edge": {"target": [], "time": []}}, "mouseout": {"state": {"target": ["12", "0", "0", "1", "0"], "time": [1191, 2408, 3992, 5109, 5276]}, "edge": {"target": [], "time": []}}}, "displayed_time": "10.98", "trialTime": 12895, "trial_type": "mouselab-mdp", "trial_index": 15, "time_elapsed": 559047, "internal_node_id": "0.0-4.0-1.0-0.0"}}, {"uniqueid": "w89499795:a97849231", "current_trial": 16, "dateTime": 1664464557160, "trialdata": {"revealed_states": [], "num_clicks_accrued": [0, 0, 0, 0, 0, 0, 0, 0, 0, 0, 0, 0, 0], "stateRewards": ["", -4, 8, 24, -24, 4, 8, -24, -48, 2, 4, 24, -24], "withholdReward": true, "trial_id": "mdp_782187007008", "block": "test1", "trialIndex": 5, "score": 33, "costs": 0, "simulationMode": [null, null, null], "rewards": [-4, 8, 24], "path": ["0", "0", "1", "2", "3"], "rt": [2726, 406, 604], "actions": ["up", "up", "right"], "actionTimes": [5293, 6202, 7343], "queries": {"click": {"state": {"target": [], "time": []}, "edge": {"target": [], "time": []}}, "mouseover": {"state": {"target": [], "time": []}, "edge": {"target": [], "time": []}}, "mouseout": {"state": {"target": ["0"], "time": [3239]}, "edge": {"target": [], "time": []}}}, "displayed_time": "12.57", "trialTime": 14526, "trial_type": "mouselab-mdp", "trial_index": 16, "time_elapsed": 573831, "internal_node_id": "0.0-4.0-1.0-1.0"}}, {"uniqueid": "w89499795:a97849231", "current_trial": 17, "dateTime": 1664464571011, "trialdata": {"revealed_states": [], "num_clicks_accrued": [0, 0, 0, 0, 0, 0, 0, 0, 0, 0, 0, 0, 0], "stateRewards": ["", 4, -4, 24, 48, 4, 8, -24, -24, -2, 4, 48, 48], "withholdReward": true, "trial_id": "mdp_624998450453", "block": "test1", "trialIndex": 6, "score": -7, "costs": 0, "simulationMode": [null, null, null], "rewards": [4, 8, -24], "path": ["0", "0", "5", "6", "8"], "rt": [1692, 311, 806], "actions": ["right", "right", "down"], "actionTimes": [4343, 5161, 6473], "queries": {"click": {"state": {"target": [], "time": []}, "edge": {"target": [], "time": []}}, "mouseover": {"state": {"target": ["9"], "time": [2863]}, "edge": {"target": [], "time": []}}, "mouseout": {"state": {"target": ["12", "0", "9"], "time": [1983, 2027, 2912]}, "edge": {"target": [], "time": []}}}, "displayed_time": "12.65", "trialTime": 13486, "trial_type": "mouselab-mdp", "trial_index": 17, "time_elapsed": 587683, "internal_node_id": "0.0-4.0-1.0-2.0"}}, {"uniqueid": "w89499795:a97849231", "current_trial": 18, "dateTime": 1664464587508, "trialdata": {"revealed_states": [], "num_clicks_accrued": [0, 0, 0, 0, 0, 0, 0, 0, 0, 0, 0, 0, 0], "stateRewards": ["", -4, 8, -48, -48, -4, 4, -24, -48, 2, -4, -24, 24], "withholdReward": false, "trial_id": "mdp_183773275291", "block": "test1", "trialIndex": 7, "score": 26.25, "costs": -0.75, "simulationMode": [null, null, null], "rewards": [2, -4, 24], "path": ["0", "0", "9", "10", "12"], "rt": [5716, 409, 497], "actions": ["left", "left", "down"], "actionTimes": [8369, 9290, 10299], "queries": {"click": {"state": {"target": ["5", "1", "9"], "time": [3891, 5714, 6783]}, "edge": {"target": [], "time": []}}, "mouseover": {"state": {"target": ["0", "5", "0", "1", "9", "12"], "time": [3035, 3479, 4843, 5078, 6393, 7261]}, "edge": {"target": [], "time": []}}, "mouseout": {"state": {"target": ["12", "0", "5", "0", "1", "9", "12"], "time": [1726, 3461, 4477, 4879, 6061, 7078, 7294]}, "edge": {"target": [], "time": []}}}, "displayed_time": "12.65", "trialTime": 16131, "trial_type": "mouselab-mdp", "trial_index": 18, "time_elapsed": 604180, "internal_node_id": "0.0-4.0-1.0-3.0"}}, {"uniqueid": "w89499795:a97849231", "current_trial": 19, "dateTime": 1664464602253, "trialdata": {"revealed_states": [], "num_clicks_accrued": [0, 0, 0, 0, 0, 0, 0, 0, 0, 0, 0, 0, 0], "stateRewards": ["", -4, -8, 48, -48, 2, -4, 48, -24, 2, -8, -48, -48], "withholdReward": true, "trial_id": "mdp_624553692913", "block": "test1", "trialIndex": 8, "score": -49.25, "costs": -0.25, "simulationMode": [null, null, null], "rewards": [2, -8, -48], "path": ["0", "0", "9", "10", "11"], "rt": [2689, 397, 644], "actions": ["left", "left", "up"], "actionTimes": [5147, 6063, 7227], "queries": {"click": {"state": {"target": ["9"], "time": [3604]}, "edge": {"target": [], "time": []}}, "mouseover": {"state": {"target": ["0", "9"], "time": [3062, 3246]}, "edge": {"target": [], "time": []}}, "mouseout": {"state": {"target": ["7", "5", "0", "9"], "time": [1577, 1661, 3113, 4148]}, "edge": {"target": [], "time": []}}}, "displayed_time": "12.46", "trialTime": 14395, "trial_type": "mouselab-mdp", "trial_index": 19, "time_elapsed": 618924, "internal_node_id": "0.0-4.0-1.0-4.0"}}, {"uniqueid": "w89499795:a97849231", "current_trial": 20, "dateTime": 1664464612878, "trialdata": {"revealed_states": [], "num_clicks_accrued": [0, 0, 0, 0, 0, 0, 0, 0, 0, 0, 0, 0, 0], "stateRewards": ["", 4, -8, -48, 24, 4, 4, -24, -24, 2, 4, -48, 24], "withholdReward": true, "trial_id": "mdp_626971397185", "block": "test1", "trialIndex": 9, "score": 34.75, "costs": -0.25, "simulationMode": [null, null, null], "rewards": [2, 4, 24], "path": ["0", "0", "9", "10", "12"], "rt": [2457, 368, 412], "actions": ["left", "left", "down"], "actionTimes": [4760, 5629, 6542], "queries": {"click": {"state": {"target": ["9"], "time": [3372]}, "edge": {"target": [], "time": []}}, "mouseover": {"state": {"target": ["9"], "time": [3026]}, "edge": {"target": [], "time": []}}, "mouseout": {"state": {"target": ["7", "0", "9"], "time": [1574, 2508, 3791]}, "edge": {"target": [], "time": []}}}, "displayed_time": "9.30", "trialTime": 10266, "trial_type": "mouselab-mdp", "trial_index": 20, "time_elapsed": 629549, "internal_node_id": "0.0-4.0-1.0-5.0"}}, {"uniqueid": "w89499795:a97849231", "current_trial": 21, "dateTime": 1664464625694, "trialdata": {"revealed_states": [], "num_clicks_accrued": [0, 0, 0, 0, 0, 0, 0, 0, 0, 0, 0, 0, 0], "stateRewards": ["", 2, 4, -48, -24, -4, 4, -24, 24, -2, -8, -24, 24], "withholdReward": false, "trial_id": "mdp_640720803523", "block": "test1", "trialIndex": 10, "score": -37.5, "costs": -0.5, "simulationMode": [null, null, null], "rewards": [2, 4, -48], "path": ["0", "0", "1", "2", "3"], "rt": [3399, 448, 657], "actions": ["up", "up", "right"], "actionTimes": [5522, 6465, 7625], "queries": {"click": {"state": {"target": ["9", "1"], "time": [3037, 4128]}, "edge": {"target": [], "time": []}}, "mouseover": {"state": {"target": ["0", "9", "0", "1", "12"], "time": [2366, 2478, 3593, 3728, 4600]}, "edge": {"target": [], "time": []}}, "mouseout": {"state": {"target": ["12", "0", "0", "9", "0", "1", "9", "12"], "time": [1277, 1694, 2444, 3495, 3627, 4511, 4581, 4618]}, "edge": {"target": [], "time": []}}}, "displayed_time": "9.13", "trialTime": 12436, "trial_type": "mouselab-mdp", "trial_index": 21, "time_elapsed": 642364, "internal_node_id": "0.0-4.0-1.0-6.0"}}, {"uniqueid": "w89499795:a97849231", "current_trial": 22, "dateTime": 1664464638217, "trialdata": {"revealed_states": [], "num_clicks_accrued": [0, 0, 0, 0, 0, 0, 0, 0, 0, 0, 0, 0, 0], "stateRewards": ["", -4, -8, -48, -48, 4, -8, 48, 48, 2, 8, 48, 24], "withholdReward": true, "trial_id": "mdp_880437222492", "block": "test1", "trialIndex": 11, "score": 48.5, "costs": -0.5, "simulationMode": [null, null, null], "rewards": [4, -8, 48], "path": ["0", "0", "5", "6", "8"], "rt": [5136, 387, 676], "actions": ["right", "right", "down"], "actionTimes": [7358, 8244, 9434], "queries": {"click": {"state": {"target": ["1", "5"], "time": [4935, 5944]}, "edge": {"target": [], "time": []}}, "mouseover": {"state": {"target": ["1", "5", "0", "12"], "time": [4620, 5553, 6355, 6453]}, "edge": {"target": [], "time": []}}, "mouseout": {"state": {"target": ["8", "0", "1", "5", "0", "12"], "time": [1403, 4337, 5354, 6320, 6374, 6487]}, "edge": {"target": [], "time": []}}}, "displayed_time": "9.94", "trialTime": 12186, "trial_type": "mouselab-mdp", "trial_index": 22, "time_elapsed": 654888, "internal_node_id": "0.0-4.0-1.0-7.0"}}, {"uniqueid": "w89499795:a97849231", "current_trial": 23, "dateTime": 1664464650629, "trialdata": {"revealed_states": [], "num_clicks_accrued": [0, 0, 0, 0, 0, 0, 0, 0, 0, 0, 0, 0, 0], "stateRewards": ["", -2, -4, -24, -48, -4, -8, -48, 24, -4, -8, -24, -48], "withholdReward": true, "trial_id": "mdp_475782454549", "block": "test1", "trialIndex": 12, "score": -25.5, "costs": -0.5, "simulationMode": [null, null, null], "rewards": [-2, -4, -24], "path": ["0", "0", "1", "2", "3"], "rt": [4122, 299, 739], "actions": ["up", "up", "right"], "actionTimes": [7044, 7838, 9082], "queries": {"click": {"state": {"target": ["5", "9"], "time": [3924, 5052]}, "edge": {"target": [], "time": []}}, "mouseover": {"state": {"target": ["5", "0", "9", "1", "12"], "time": [3568, 4422, 4701, 5685, 6050]}, "edge": {"target": [], "time": []}}, "mouseout": {"state": {"target": ["11", "4", "9", "12", "9", "0", "5", "0", "9", "1", "12"], "time": [1218, 1237, 1784, 1950, 2221, 3434, 4385, 4553, 5389, 5985, 6070]}, "edge": {"target": [], "time": []}}}, "displayed_time": "10.92", "trialTime": 12015, "trial_type": "mouselab-mdp", "trial_index": 23, "time_elapsed": 667301, "internal_node_id": "0.0-4.0-1.0-8.0"}}, {"uniqueid": "w89499795:a97849231", "current_trial": 24, "dateTime": 1664464663618, "trialdata": {"revealed_states": [], "num_clicks_accrued": [0, 0, 0, 0, 0, 0, 0, 0, 0, 0, 0, 0, 0], "stateRewards": ["", 4, -8, 24, 48, 2, -4, 48, 48, 4, -8, 48, 48], "withholdReward": true, "trial_id": "mdp_962498334245", "block": "test1", "trialIndex": 13, "score": 48.5, "costs": -0.5, "simulationMode": [null, null, null], "rewards": [4, -8, 48], "path": ["0", "0", "1", "2", "4"], "rt": [5705, 233, 716], "actions": ["up", "up", "left"], "actionTimes": [8044, 8774, 9992], "queries": {"click": {"state": {"target": ["1", "4"], "time": [3377, 6495]}, "edge": {"target": [], "time": []}}, "mouseover": {"state": {"target": ["1", "10", "3", "4", "11"], "time": [2987, 4036, 5570, 6006, 6786]}, "edge": {"target": [], "time": []}}, "mouseout": {"state": {"target": ["9", "1", "10", "3", "4", "11"], "time": [1658, 3977, 4053, 5587, 6719, 6804]}, "edge": {"target": [], "time": []}}}, "displayed_time": "11.34", "trialTime": 12622, "trial_type": "mouselab-mdp", "trial_index": 24, "time_elapsed": 680289, "internal_node_id": "0.0-4.0-1.0-9.0"}}, {"uniqueid": "w89499795:a97849231", "current_trial": 25, "dateTime": 1664464675454, "trialdata": {"revealed_states": [], "num_clicks_accrued": [0, 0, 0, 0, 0, 0, 0, 0, 0, 0, 0, 0, 0], "stateRewards": ["", -4, 4, -24, 48, -2, 8, -48, 24, 2, 4, 48, -48], "withholdReward": true, "trial_id": "mdp_366632183904", "block": "test1", "trialIndex": 14, "score": 58.5, "costs": -0.5, "simulationMode": [null, null, null], "rewards": [2, 4, 48], "path": ["0", "0", "9", "10", "11"], "rt": [5166, 285, 589], "actions": ["left", "left", "up"], "actionTimes": [7432, 8218, 9309], "queries": {"click": {"state": {"target": ["1", "10"], "time": [3908, 5921]}, "edge": {"target": [], "time": []}}, "mouseover": {"state": {"target": ["1", "1", "9", "10", "9", "10", "9", "12"], "time": [2846, 3079, 4397, 4462, 4714, 5281, 6330, 6546]}, "edge": {"target": [], "time": []}}, "mouseout": {"state": {"target": ["0", "1", "1", "9", "10", "9", "10", "9", "12"], "time": [2734, 2865, 4346, 4418, 4685, 5230, 6312, 6495, 6563]}, "edge": {"target": [], "time": []}}}, "displayed_time": "10.27", "trialTime": 11435, "trial_type": "mouselab-mdp", "trial_index": 25, "time_elapsed": 692126, "internal_node_id": "0.0-4.0-1.0-10.0"}}, {"uniqueid": "w89499795:a97849231", "current_trial": 26, "dateTime": 1664464687663, "trialdata": {"revealed_states": [], "num_clicks_accrued": [0, 0, 0, 0, 0, 0, 0, 0, 0, 0, 0, 0, 0], "stateRewards": ["", -2, -8, 24, -24, 4, -8, 48, 48, -4, -8, -24, -48], "withholdReward": true, "trial_id": "mdp_286767261523", "block": "test1", "trialIndex": 15, "score": 48.25, "costs": -0.75, "simulationMode": [null, null, null], "rewards": [4, -8, 48], "path": ["0", "0", "5", "6", "8"], "rt": [6342, 264, 404], "actions": ["right", "right", "down"], "actionTimes": [8528, 9310, 10217], "queries": {"click": {"state": {"target": ["12", "3", "8"], "time": [3567, 5143, 6657]}, "edge": {"target": [], "time": []}}, "mouseover": {"state": {"target": ["9", "10", "12", "6", "3", "6", "8"], "time": [2607, 3064, 3314, 4158, 4690, 5726, 6041]}, "edge": {"target": [], "time": []}}, "mouseout": {"state": {"target": ["8", "5", "0", "9", "10", "12", "6", "3", "6", "8", "12"], "time": [1407, 1574, 1756, 2808, 3090, 4058, 4290, 5525, 5958, 7007, 7241]}, "edge": {"target": [], "time": []}}}, "displayed_time": "10.73", "trialTime": 11856, "trial_type": "mouselab-mdp", "trial_index": 26, "time_elapsed": 704335, "internal_node_id": "0.0-4.0-1.0-11.0"}}, {"uniqueid": "w89499795:a97849231", "current_trial": 27, "dateTime": 1664464700330, "trialdata": {"revealed_states": [], "num_clicks_accrued": [0, 0, 0, 0, 0, 0, 0, 0, 0, 0, 0, 0, 0], "stateRewards": ["", -4, 4, -24, 24, -2, -4, 48, 24, 2, 8, -48, 24], "withholdReward": true, "trial_id": "mdp_150340189492", "block": "test1", "trialIndex": 16, "score": 22.75, "costs": -0.25, "simulationMode": [null, null, null], "rewards": [-2, -4, 24], "path": ["0", "0", "5", "6", "8"], "rt": [3578, 311, 644], "actions": ["right", "right", "down"], "actionTimes": [5491, 6302, 7468], "queries": {"click": {"state": {"target": ["8"], "time": [3071]}, "edge": {"target": [], "time": []}}, "mouseover": {"state": {"target": ["0", "5", "8"], "time": [2337, 2372, 2652]}, "edge": {"target": [], "time": []}}, "mouseout": {"state": {"target": ["9", "0", "5", "8"], "time": [1236, 2356, 2392, 3491]}, "edge": {"target": [], "time": []}}}, "displayed_time": "10.91", "trialTime": 12268, "trial_type": "mouselab-mdp", "trial_index": 27, "time_elapsed": 717001, "internal_node_id": "0.0-4.0-1.0-12.0"}}, {"uniqueid": "w89499795:a97849231", "current_trial": 28, "dateTime": 1664464710584, "trialdata": {"revealed_states": [], "num_clicks_accrued": [0, 0, 0, 0, 0, 0, 0, 0, 0, 0, 0, 0, 0], "stateRewards": ["", -2, 4, 48, -24, 2, 8, 24, 48, 2, 4, -24, -48], "withholdReward": true, "trial_id": "mdp_892412058587", "block": "test1", "trialIndex": 17, "score": 54.75, "costs": -0.25, "simulationMode": [null, null, null], "rewards": [-2, 4, 48], "path": ["0", "0", "1", "2", "3"], "rt": [3366, 229, 247], "actions": ["up", "up", "right"], "actionTimes": [4777, 5521, 6288], "queries": {"click": {"state": {"target": ["3"], "time": [3187]}, "edge": {"target": [], "time": []}}, "mouseover": {"state": {"target": ["3", "9", "10"], "time": [2737, 3653, 3675]}, "edge": {"target": [], "time": []}}, "mouseout": {"state": {"target": ["12", "0", "3", "9", "10"], "time": [587, 2375, 3522, 3671, 3702]}, "edge": {"target": [], "time": []}}}, "displayed_time": "9.41", "trialTime": 9840, "trial_type": "mouselab-mdp", "trial_index": 28, "time_elapsed": 727256, "internal_node_id": "0.0-4.0-1.0-13.0"}}, {"uniqueid": "w89499795:a97849231", "current_trial": 29, "dateTime": 1664464724147, "trialdata": {"revealed_states": [], "num_clicks_accrued": [0, 0, 0, 0, 0, 0, 0, 0, 0, 0, 0, 0, 0], "stateRewards": ["", 2, -4, 24, -24, 2, -8, 48, 48, 4, -4, 24, 48], "withholdReward": false, "trial_id": "mdp_947836623875", "block": "test1", "trialIndex": 18, "score": 46.5, "costs": -0.5, "simulationMode": [null, null, null], "rewards": [2, -8, 48], "path": ["0", "0", "5", "6", "8"], "rt": [3825, 293, 395], "actions": ["right", "right", "down"], "actionTimes": [5632, 6431, 7363], "queries": {"click": {"state": {"target": ["4", "8"], "time": [2907, 4205]}, "edge": {"target": [], "time": []}}, "mouseover": {"state": {"target": ["1", "4", "1", "0", "8"], "time": [2367, 2534, 3418, 3470, 3666]}, "edge": {"target": [], "time": []}}, "mouseout": {"state": {"target": ["5", "0", "1", "4", "1", "0", "8"], "time": [1143, 1317, 2451, 3284, 3436, 3503, 4583]}, "edge": {"target": [], "time": []}}}, "displayed_time": "11.81", "trialTime": 13182, "trial_type": "mouselab-mdp", "trial_index": 29, "time_elapsed": 740818, "internal_node_id": "0.0-4.0-1.0-14.0"}}, {"uniqueid": "w89499795:a97849231", "current_trial": 30, "dateTime": 1664464738115, "trialdata": {"revealed_states": [], "num_clicks_accrued": [0, 0, 0, 0, 0, 0, 0, 0, 0, 0, 0, 0, 0], "stateRewards": ["", 2, -8, 24, 24, 2, 4, -48, -48, 4, 4, -24, 48], "withholdReward": true, "trial_id": "mdp_985707010949", "block": "test1", "trialIndex": 19, "score": 60, "costs": -1, "simulationMode": [null, null, null], "rewards": [4, 4, 48], "path": ["0", "0", "9", "10", "12"], "rt": [6868, 863, 899], "actions": ["left", "left", "down"], "actionTimes": [9108, 10488, 11907], "queries": {"click": {"state": {"target": ["8", "7", "3", "4"], "time": [3574, 4502, 5781, 6709]}, "edge": {"target": [], "time": []}}, "mouseover": {"state": {"target": ["5", "8", "7", "3", "2", "4", "10"], "time": [2852, 3151, 4151, 5185, 6217, 6335, 7335]}, "edge": {"target": [], "time": []}}, "mouseout": {"state": {"target": ["10", "9", "7", "0", "5", "8", "7", "3", "2", "4", "10"], "time": [752, 903, 1084, 2717, 3035, 4001, 4852, 6135, 6268, 7019, 7353]}, "edge": {"target": [], "time": []}}}, "displayed_time": "12.40", "trialTime": 13570, "trial_type": "mouselab-mdp", "trial_index": 30, "time_elapsed": 754786, "internal_node_id": "0.0-4.0-1.0-15.0"}}, {"uniqueid": "w89499795:a97849231", "current_trial": 31, "dateTime": 1664464752177, "trialdata": {"revealed_states": [], "num_clicks_accrued": [0, 0, 0, 0, 0, 0, 0, 0, 0, 0, 0, 0, 0], "stateRewards": ["", 2, 8, -24, -48, 2, 4, -24, 48, 2, -8, 48, -24], "withholdReward": true, "trial_id": "mdp_791659307216", "block": "test1", "trialIndex": 20, "score": 58.25, "costs": -0.75, "simulationMode": [null, null, null], "rewards": [2, 4, 48], "path": ["0", "0", "5", "6", "8"], "rt": [4856, 236, 423], "actions": ["right", "right", "down"], "actionTimes": [7258, 7993, 8916], "queries": {"click": {"state": {"target": ["12", "3", "8"], "time": [3369, 4623, 5838]}, "edge": {"target": [], "time": []}}, "mouseover": {"state": {"target": ["9", "10", "12", "2", "3", "6", "8"], "time": [2769, 2936, 3086, 4069, 4203, 5252, 5486]}, "edge": {"target": [], "time": []}}, "mouseout": {"state": {"target": ["10", "1", "9", "10", "12", "2", "3", "6", "8"], "time": [1187, 1418, 2869, 3035, 3778, 4119, 5051, 5336, 6208]}, "edge": {"target": [], "time": []}}}, "displayed_time": "12.40", "trialTime": 13635, "trial_type": "mouselab-mdp", "trial_index": 31, "time_elapsed": 768849, "internal_node_id": "0.0-4.0-1.0-16.0"}}, {"uniqueid": "w89499795:a97849231", "current_trial": 32, "dateTime": 1664464766685, "trialdata": {"revealed_states": [], "num_clicks_accrued": [0, 0, 0, 0, 0, 0, 0, 0, 0, 0, 0, 0, 0], "stateRewards": ["", -2, -8, -24, 48, -2, -8, -48, -48, 2, -8, -48, 24], "withholdReward": true, "trial_id": "mdp_288324580942", "block": "test1", "trialIndex": 21, "score": -49.75, "costs": -0.75, "simulationMode": [null, null, null], "rewards": [2, -8, -48], "path": ["0", "0", "9", "10", "11"], "rt": [4898, 196, 779], "actions": ["left", "left", "up"], "actionTimes": [7181, 7902, 9199], "queries": {"click": {"state": {"target": ["8", "3", "12"], "time": [3276, 4706, 5806]}, "edge": {"target": [], "time": []}}, "mouseover": {"state": {"target": ["5", "8", "6", "7", "3", "2", "11", "10", "12", "10"], "time": [2654, 2847, 3666, 4047, 4315, 5051, 5181, 5218, 5414, 6198]}, "edge": {"target": [], "time": []}}, "mouseout": {"state": {"target": ["5", "0", "5", "8", "6", "7", "3", "2", "11", "10", "12", "10"], "time": [1647, 2637, 2681, 3648, 3698, 4131, 5032, 5069, 5199, 5280, 6169, 6217]}, "edge": {"target": [], "time": []}}}, "displayed_time": "12.28", "trialTime": 14155, "trial_type": "mouselab-mdp", "trial_index": 32, "time_elapsed": 783356, "internal_node_id": "0.0-4.0-1.0-17.0"}}, {"uniqueid": "w89499795:a97849231", "current_trial": 33, "dateTime": 1664464783106, "trialdata": {"revealed_states": [], "num_clicks_accrued": [0, 0, 0, 0, 0, 0, 0, 0, 0, 0, 0, 0, 0], "stateRewards": ["", -2, -4, 48, -24, -4, -4, -24, -24, -2, 4, -48, -24], "withholdReward": false, "trial_id": "mdp_410467837196", "block": "test1", "trialIndex": 22, "score": 45.5, "costs": -1.5, "simulationMode": [null, null, null], "rewards": [-2, -4, 48], "path": ["0", "0", "1", "2", "3"], "rt": [10028, 151, 503], "actions": ["up", "up", "right"], "actionTimes": [12333, 12984, 13998], "queries": {"click": {"state": {"target": ["7", "4", "11", "12", "8", "3"], "time": [3940, 5106, 6951, 7931, 9850, 10864]}, "edge": {"target": [], "time": []}}, "mouseover": {"state": {"target": ["0", "5", "6", "7", "7", "2", "4", "11", "10", "12", "10", "11", "10", "12", "8", "6", "3", "1", "10"], "time": [2732, 2763, 2808, 3075, 3292, 4492, 4693, 5508, 5576, 6275, 6325, 6574, 7309, 7359, 8826, 10312, 10543, 11258, 11309]}, "edge": {"target": [], "time": []}}, "mouseout": {"state": {"target": ["8", "6", "1", "9", "0", "5", "6", "7", "7", "2", "4", "11", "10", "12", "10", "11", "10", "12", "8", "6", "3", "1", "10"], "time": [892, 1257, 1425, 1607, 2760, 2781, 3042, 3109, 4328, 4591, 5374, 5542, 5943, 6294, 6374, 7275, 7342, 8259, 10292, 10330, 11192, 11277, 11326]}, "edge": {"target": [], "time": []}}}, "displayed_time": "14.51", "trialTime": 16054, "trial_type": "mouselab-mdp", "trial_index": 33, "time_elapsed": 799778, "internal_node_id": "0.0-4.0-1.0-18.0"}}, {"uniqueid": "w89499795:a97849231", "current_trial": 34, "dateTime": 1664464797711, "trialdata": {"revealed_states": [], "num_clicks_accrued": [0, 0, 0, 0, 0, 0, 0, 0, 0, 0, 0, 0, 0], "stateRewards": ["", -4, -4, -24, -48, -4, 8, -24, -48, 4, -8, 24, -24], "withholdReward": true, "trial_id": "mdp_924927483179", "block": "test1", "trialIndex": 23, "score": 23.5, "costs": -1.5, "simulationMode": [null, null, null], "rewards": [4, -8, 24], "path": ["0", "0", "9", "10", "11"], "rt": [8016, 191, 726], "actions": ["left", "left", "up"], "actionTimes": [10562, 11257, 12506], "queries": {"click": {"state": {"target": ["3", "4", "11", "12", "7", "8"], "time": [3431, 4312, 5358, 6435, 7485, 8519]}, "edge": {"target": [], "time": []}}, "mouseover": {"state": {"target": ["3", "2", "4", "11", "10", "12", "12", "6", "7", "6", "8"], "time": [3144, 3861, 3977, 4761, 5728, 5779, 6057, 6877, 7077, 7812, 8145]}, "edge": {"target": [], "time": []}}, "mouseout": {"state": {"target": ["12", "0", "3", "2", "4", "11", "10", "12", "12", "6", "7", "6", "8"], "time": [1447, 2986, 3794, 3932, 4578, 5694, 5760, 5826, 6761, 6961, 7782, 7846, 8727]}, "edge": {"target": [], "time": []}}}, "displayed_time": "13.01", "trialTime": 14295, "trial_type": "mouselab-mdp", "trial_index": 34, "time_elapsed": 814383, "internal_node_id": "0.0-4.0-1.0-19.0"}}, {"uniqueid": "w89499795:a97849231", "current_trial": 35, "dateTime": 1664464810272, "trialdata": {"revealed_states": [], "num_clicks_accrued": [0, 0, 0, 0, 0, 0, 0, 0, 0, 0, 0, 0, 0], "stateRewards": ["", 2, 4, -48, -48, 4, 4, -48, -48, -2, -8, 48, -24], "withholdReward": false, "trial_id": "mdp_175327338412", "block": "test1", "trialIndex": 24, "score": 42.75, "costs": -0.25, "simulationMode": [null, null, null], "rewards": [-2, -8, 48], "path": ["0", "0", "9", "10", "11"], "rt": [2242, 213, 342], "actions": ["left", "left", "up"], "actionTimes": [4273, 4987, 5831], "queries": {"click": {"state": {"target": ["11"], "time": [2857]}, "edge": {"target": [], "time": []}}, "mouseover": {"state": {"target": ["0", "11"], "time": [2306, 2566]}, "edge": {"target": [], "time": []}}, "mouseout": {"state": {"target": ["11", "9", "0", "0", "11"], "time": [832, 1232, 1565, 2352, 3167]}, "edge": {"target": [], "time": []}}}, "displayed_time": "11.03", "trialTime": 12163, "trial_type": "mouselab-mdp", "trial_index": 35, "time_elapsed": 826943, "internal_node_id": "0.0-4.0-1.0-20.0"}}, {"uniqueid": "w89499795:a97849231", "current_trial": 36, "dateTime": 1664464825622, "trialdata": {"revealed_states": [], "num_clicks_accrued": [0, 0, 0, 0, 0, 0, 0, 0, 0, 0, 0, 0, 0], "stateRewards": ["", 4, 4, -24, -48, 2, 4, 24, -48, 2, 4, 24, 24], "withholdReward": false, "trial_id": "mdp_223558518218", "block": "test1", "trialIndex": 25, "score": 33.5, "costs": -1.5, "simulationMode": [null, null, null], "rewards": [2, 4, 24], "path": ["0", "0", "9", "10", "11"], "rt": [8802, 303, 778], "actions": ["left", "left", "up"], "actionTimes": [10357, 11172, 12447], "queries": {"click": {"state": {"target": ["11", "12", "7", "3", "4", "8"], "time": [2507, 3630, 4682, 5658, 6556, 8083]}, "edge": {"target": [], "time": []}}, "mouseover": {"state": {"target": ["9", "11", "10", "12", "6", "7", "3", "2", "4", "1", "8", "8"], "time": [1898, 2181, 3082, 3148, 4000, 4214, 5281, 5985, 6180, 6898, 7398, 7647]}, "edge": {"target": [], "time": []}}, "mouseout": {"state": {"target": ["5", "6", "9", "11", "10", "12", "6", "7", "3", "2", "4", "1", "8", "8", "12"], "time": [565, 797, 1917, 2948, 3101, 3949, 4021, 5048, 5965, 6049, 6849, 6965, 7447, 8336, 8584]}, "edge": {"target": [], "time": []}}}, "displayed_time": "12.95", "trialTime": 14978, "trial_type": "mouselab-mdp", "trial_index": 36, "time_elapsed": 842293, "internal_node_id": "0.0-4.0-1.0-21.0"}}, {"uniqueid": "w89499795:a97849231", "current_trial": 37, "dateTime": 1664464851575, "trialdata": {"revealed_states": [], "num_clicks_accrued": [0, 0, 0, 0, 0, 0, 0, 0, 0, 0, 0, 0, 0], "stateRewards": ["", -2, -4, -24, 48, -2, -8, -48, -24, 4, 8, 48, 24], "withholdReward": true, "trial_id": "mdp_625355871626", "block": "test1", "trialIndex": 26, "score": 64.5, "costs": -0.5, "simulationMode": [null, null, null], "rewards": [4, 8, 48], "path": ["0", "0", "9", "10", "11"], "rt": [4562, 88, 348], "actions": ["left", "left", "up"], "actionTimes": [21548, 22155, 22999], "queries": {"click": {"state": {"target": ["3", "11"], "time": [18388, 19602]}, "edge": {"target": [], "time": []}}, "mouseover": {"state": {"target": ["3", "11", "10"], "time": [18063, 19262, 20232]}, "edge": {"target": [], "time": []}}, "mouseout": {"state": {"target": ["12", "4", "9", "0", "3", "11", "11", "10"], "time": [15563, 15931, 16031, 16082, 18696, 19880, 20213, 20279]}, "edge": {"target": [], "time": []}}}, "displayed_time": "24.99", "trialTime": 25564, "trial_type": "mouselab-mdp", "trial_index": 37, "time_elapsed": 868246, "internal_node_id": "0.0-4.0-1.0-22.0"}}, {"uniqueid": "w89499795:a97849231", "current_trial": 38, "dateTime": 1664464880721, "trialdata": {"revealed_states": [], "num_clicks_accrued": [0, 0, 0, 0, 0, 0, 0, 0, 0, 0, 0, 0, 0], "stateRewards": ["", 2, -4, -24, -24, -2, -8, -48, 24, -4, -8, 24, 24], "withholdReward": true, "trial_id": "mdp_521351546461", "block": "test1", "trialIndex": 27, "score": 16, "costs": -3, "simulationMode": [null, null, null], "rewards": [-2, -8, 24], "path": ["0", "0", "5", "6", "8"], "rt": [20307, 2160, 389], "actions": ["right", "right", "down"], "actionTimes": [23790, 26447, 27342], "queries": {"click": {"state": {"target": ["11", "3", "4", "7", "8", "12", "10", "5", "6", "9", "2", "1"], "time": [4448, 5392, 6035, 6735, 7735, 8534, 9970, 10809, 12788, 13775, 21541, 22102]}, "edge": {"target": [], "time": []}}, "mouseover": {"state": {"target": ["9", "11", "2", "3", "2", "4", "1", "7", "6", "8", "12", "10", "9", "5", "6", "9", "9", "2", "2", "1"], "time": [3802, 4116, 4916, 5116, 5688, 5721, 6319, 6400, 7019, 7316, 8233, 9516, 10369, 10466, 11767, 13252, 13455, 20832, 21217, 21883]}, "edge": {"target": [], "time": []}}, "mouseout": {"state": {"target": ["6", "5", "0", "9", "11", "2", "3", "2", "4", "1", "7", "6", "8", "12", "10", "9", "5", "5", "6", "5", "9", "9", "12", "2", "2", "1"], "time": [2599, 2800, 3769, 3918, 4833, 4936, 5684, 5716, 6267, 6337, 6983, 7067, 7950, 9350, 10351, 10387, 11316, 11734, 13116, 13233, 13315, 14299, 14383, 20855, 21799, 22286]}, "edge": {"target": [], "time": []}}}, "displayed_time": "27.84", "trialTime": 28731, "trial_type": "mouselab-mdp", "trial_index": 38, "time_elapsed": 897392, "internal_node_id": "0.0-4.0-1.0-23.0"}}, {"uniqueid": "w89499795:a97849231", "current_trial": 39, "dateTime": 1664464892518, "trialdata": {"revealed_states": [], "num_clicks_accrued": [0, 0, 0, 0, 0, 0, 0, 0, 0, 0, 0, 0, 0], "stateRewards": ["", 2, 8, -48, 48, -4, -8, 24, 24, -2, -8, 24, -24], "withholdReward": true, "trial_id": "mdp_910248289075", "block": "test1", "trialIndex": 28, "score": 62.25, "costs": -0.75, "simulationMode": [null, null, null], "rewards": [2, 8, 48], "path": ["0", "0", "1", "2", "4"], "rt": [5341, 135, 463], "actions": ["up", "up", "left"], "actionTimes": [7148, 7791, 8769], "queries": {"click": {"state": {"target": ["7", "3", "4"], "time": [3194, 4692, 5633]}, "edge": {"target": [], "time": []}}, "mouseover": {"state": {"target": ["5", "6", "7", "6", "8", "5", "3", "2", "4", "11"], "time": [2221, 2486, 2871, 3503, 3571, 3904, 4414, 5035, 5104, 6051]}, "edge": {"target": [], "time": []}}, "mouseout": {"state": {"target": ["0", "5", "6", "7", "6", "8", "5", "3", "2", "4", "11"], "time": [2203, 2335, 2586, 3469, 3538, 3886, 3922, 4968, 5069, 5821, 6102]}, "edge": {"target": [], "time": []}}}, "displayed_time": "10.81", "trialTime": 11415, "trial_type": "mouselab-mdp", "trial_index": 39, "time_elapsed": 909189, "internal_node_id": "0.0-4.0-1.0-24.0"}}, {"uniqueid": "w89499795:a97849231", "current_trial": 40, "dateTime": 1664464904269, "trialdata": {"revealed_states": [], "num_clicks_accrued": [0, 0, 0, 0, 0, 0, 0, 0, 0, 0, 0, 0, 0], "stateRewards": ["", -4, 8, -24, 48, 2, -8, 24, 48, 2, -8, -24, -48], "withholdReward": true, "trial_id": "mdp_493778446445", "block": "test1", "trialIndex": 29, "score": 56.25, "costs": -0.75, "simulationMode": [null, null, null], "rewards": [-4, 8, 48], "path": ["0", "0", "1", "2", "4"], "rt": [4789, 168, 623], "actions": ["up", "up", "left"], "actionTimes": [6851, 7514, 8639], "queries": {"click": {"state": {"target": ["4", "1", "2"], "time": [3024, 4194, 5289]}, "edge": {"target": [], "time": []}}, "mouseover": {"state": {"target": ["1", "2", "4", "11", "1", "11", "11", "3", "2"], "time": [2510, 2611, 2759, 3576, 3811, 4475, 4626, 4726, 5010]}, "edge": {"target": [], "time": []}}, "mouseout": {"state": {"target": ["2", "1", "0", "0", "1", "2", "4", "11", "1", "11", "11", "3", "2"], "time": [1209, 1231, 1308, 1558, 2577, 2630, 3443, 3792, 4376, 4510, 4649, 4776, 5626]}, "edge": {"target": [], "time": []}}}, "displayed_time": "11.06", "trialTime": 11408, "trial_type": "mouselab-mdp", "trial_index": 40, "time_elapsed": 920941, "internal_node_id": "0.0-4.0-1.0-25.0"}}, {"uniqueid": "w89499795:a97849231", "current_trial": 41, "dateTime": 1664464924170, "trialdata": {"revealed_states": [], "num_clicks_accrued": [0, 0, 0, 0, 0, 0, 0, 0, 0, 0, 0, 0, 0], "stateRewards": ["", -2, -8, 24, -48, -4, 8, -48, -24, 4, 8, -24, 24], "withholdReward": true, "trial_id": "mdp_940444641142", "block": "test1", "trialIndex": 30, "score": 38.5, "costs": -2.5, "simulationMode": [null, null, null], "rewards": [4, 8, 24], "path": ["0", "0", "9", "10", "12"], "rt": [13420, 260, 465], "actions": ["left", "left", "down"], "actionTimes": [15950, 16713, 17700], "queries": {"click": {"state": {"target": ["3", "4", "7", "8", "11", "12", "9", "5", "1", "10"], "time": [3583, 4301, 5492, 6100, 7587, 8237, 9249, 10198, 11558, 14788]}, "edge": {"target": [], "time": []}}, "mouseover": {"state": {"target": ["1", "3", "2", "4", "1", "5", "6", "7", "6", "8", "0", "9", "10", "11", "10", "12", "9", "5", "0", "1", "2", "10"], "time": [2899, 3301, 3849, 4022, 4749, 4785, 4822, 5215, 5700, 5849, 6566, 6667, 6982, 7250, 7849, 7933, 8898, 9790, 10514, 10765, 12615, 14485]}, "edge": {"target": [], "time": []}}, "mouseout": {"state": {"target": ["3", "1", "0", "1", "3", "2", "4", "1", "5", "6", "7", "6", "8", "0", "9", "10", "11", "10", "12", "9", "5", "0", "1", "11", "2", "10"], "time": [1266, 1649, 2015, 3016, 3816, 3884, 4699, 4768, 4805, 5131, 5667, 5799, 6318, 6649, 6699, 7216, 7799, 7899, 8600, 9550, 10415, 10615, 11898, 12366, 14166, 14914]}, "edge": {"target": [], "time": []}}}, "displayed_time": "18.20", "trialTime": 19515, "trial_type": "mouselab-mdp", "trial_index": 41, "time_elapsed": 940842, "internal_node_id": "0.0-4.0-1.0-26.0"}}, {"uniqueid": "w89499795:a97849231", "current_trial": 42, "dateTime": 1664464938222, "trialdata": {"revealed_states": [], "num_clicks_accrued": [0, 0, 0, 0, 0, 0, 0, 0, 0, 0, 0, 0, 0], "stateRewards": ["", 2, -4, 48, 24, 2, 8, 24, 24, -2, 4, 24, 24], "withholdReward": false, "trial_id": "mdp_813974524300", "block": "test1", "trialIndex": 31, "score": 49.5, "costs": -1.5, "simulationMode": [null, null, null], "rewards": [2, -4, 48], "path": ["0", "0", "1", "2", "3"], "rt": [7772, 157, 139], "actions": ["up", "up", "right"], "actionTimes": [10081, 10754, 11417], "queries": {"click": {"state": {"target": ["11", "12", "7", "3", "2", "1"], "time": [3617, 4660, 6006, 6924, 8130, 8804]}, "edge": {"target": [], "time": []}}, "mouseover": {"state": {"target": ["9", "10", "11", "10", "12", "12", "6", "7", "3", "2", "2", "1"], "time": [2841, 2880, 3207, 3974, 4043, 4325, 5225, 5624, 6607, 7110, 7808, 8408]}, "edge": {"target": [], "time": []}}, "mouseout": {"state": {"target": ["9", "0", "9", "10", "11", "10", "12", "12", "6", "7", "3", "2", "2", "1"], "time": [1274, 1690, 2860, 3157, 3908, 4025, 4062, 5007, 5345, 6357, 7089, 7274, 8327, 9142]}, "edge": {"target": [], "time": []}}}, "displayed_time": "11.91", "trialTime": 13611, "trial_type": "mouselab-mdp", "trial_index": 42, "time_elapsed": 954894, "internal_node_id": "0.0-4.0-1.0-27.0"}}, {"uniqueid": "w89499795:a97849231", "current_trial": 43, "dateTime": 1664464950951, "trialdata": {"revealed_states": [], "num_clicks_accrued": [0, 0, 0, 0, 0, 0, 0, 0, 0, 0, 0, 0, 0], "stateRewards": ["", 2, -4, 24, 24, 4, -4, -24, 24, -4, -4, 48, 48], "withholdReward": true, "trial_id": "mdp_566306223773", "block": "test1", "trialIndex": 32, "score": 43.75, "costs": -1.25, "simulationMode": [null, null, null], "rewards": [-4, -4, 48], "path": ["0", "0", "9", "10", "11"], "rt": [7423, 161, 307], "actions": ["left", "left", "up"], "actionTimes": [9267, 9948, 10763], "queries": {"click": {"state": {"target": ["2", "3", "7", "8", "11"], "time": [2830, 3416, 4890, 5550, 6842]}, "edge": {"target": [], "time": []}}, "mouseover": {"state": {"target": ["1", "4", "2", "2", "3", "7", "7", "6", "7", "6", "8", "5", "1", "4", "11", "10", "10"], "time": [1889, 1966, 2102, 2484, 3150, 3817, 4185, 4366, 4634, 5102, 5202, 5900, 5950, 6217, 6549, 7117, 7502]}, "edge": {"target": [], "time": []}}, "mouseout": {"state": {"target": ["2", "1", "9", "0", "1", "4", "2", "2", "3", "7", "7", "6", "7", "6", "8", "5", "1", "2", "4", "11", "10", "10"], "time": [800, 866, 998, 1317, 1921, 2037, 2136, 3067, 3600, 3952, 4317, 4600, 5053, 5166, 5850, 5921, 5985, 6133, 6366, 7083, 7182, 8450]}, "edge": {"target": [], "time": []}}}, "displayed_time": "11.31", "trialTime": 12316, "trial_type": "mouselab-mdp", "trial_index": 43, "time_elapsed": 967623, "internal_node_id": "0.0-4.0-1.0-28.0"}}, {"uniqueid": "w89499795:a97849231", "current_trial": 44, "dateTime": 1664464960839, "trialdata": {"revealed_states": [], "num_clicks_accrued": [0, 0, 0, 0, 0, 0, 0, 0, 0, 0, 0, 0, 0], "stateRewards": ["", -2, -8, 48, 24, 2, 4, 24, -24, -2, -4, 48, -48], "withholdReward": true, "trial_id": "mdp_411152402386", "block": "test1", "trialIndex": 33, "score": 46.75, "costs": -0.25, "simulationMode": [null, null, null], "rewards": [-2, -4, 48], "path": ["0", "0", "9", "10", "11"], "rt": [2466, 184, 344], "actions": ["left", "left", "up"], "actionTimes": [4630, 5330, 6173], "queries": {"click": {"state": {"target": ["11"], "time": [3266]}, "edge": {"target": [], "time": []}}, "mouseover": {"state": {"target": ["11"], "time": [2776]}, "edge": {"target": [], "time": []}}, "mouseout": {"state": {"target": ["1", "0", "11"], "time": [1031, 2492, 3672]}, "edge": {"target": [], "time": []}}}, "displayed_time": "9.16", "trialTime": 9512, "trial_type": "mouselab-mdp", "trial_index": 44, "time_elapsed": 977510, "internal_node_id": "0.0-4.0-1.0-29.0"}}, {"uniqueid": "w89499795:a97849231", "current_trial": 45, "dateTime": 1664464966582, "trialdata": {"rt": 5720, "stimulus": "<h1> End of block! </h1>\n\nYou have reached the end of the block 1/4. If you need a short break, feel free to take one now before moving on.\n\n<br><br>\nIn the next block, you will complete another 30 rounds of this game.\n\n<br><br>\n<div style='text-align: center;'>Press <code>space</code> to begin.</div>\n<br><br>\n<div style='text-align: center;'>(If the experiment doesn't continue, try clicking on the text and then pressing <code>space</code>.)</div>", "response": " ", "trial_id": "mdp_ready_2", "trial_type": "html-keyboard-response", "trial_index": 45, "time_elapsed": 983253, "internal_node_id": "0.0-4.0-2.0"}}, {"uniqueid": "w89499795:a97849231", "current_trial": 46, "dateTime": 1664464991585, "trialdata": {"revealed_states": [], "num_clicks_accrued": [0, 0, 0, 0, 0, 0, 0, 0, 0, 0, 0, 0, 0], "stateRewards": ["", -4, 8, 24, 24, 2, 4, -48, 24, -2, -4, -24, -24], "withholdReward": true, "trial_id": "mdp_752328329546", "block": "test2", "trialIndex": 34, "score": 32, "costs": -3, "simulationMode": [null, null, null], "rewards": [2, 4, 24], "path": ["0", "0", "5", "6", "8"], "rt": [17211, 326, 381], "actions": ["right", "right", "down"], "actionTimes": [21401, 22245, 23134], "queries": {"click": {"state": {"target": ["3", "4", "11", "12", "7", "8", "5", "9", "10", "1", "2", "6"], "time": [5045, 5705, 6429, 7197, 7969, 8665, 9677, 10503, 11752, 12636, 13455, 16114]}, "edge": {"target": [], "time": []}}, "mouseover": {"state": {"target": ["3", "2", "4", "11", "10", "12", "5", "7", "6", "8", "0", "5", "0", "9", "10", "1", "2", "6", "0"], "time": [4782, 5333, 5451, 6165, 6751, 6948, 7531, 7731, 8299, 8448, 9228, 9381, 9965, 10214, 10931, 12315, 13080, 15566, 16465]}, "edge": {"target": [], "time": []}}, "mouseout": {"state": {"target": ["5", "3", "2", "4", "11", "10", "12", "5", "7", "6", "8", "0", "5", "0", "9", "10", "1", "2", "10", "5", "6", "5", "0", "10"], "time": [3581, 5314, 5413, 5881, 6731, 6782, 7448, 7565, 8266, 8333, 9015, 9245, 9898, 10132, 10831, 12100, 12933, 13665, 13948, 15532, 16314, 16430, 16500, 16564]}, "edge": {"target": [], "time": []}}}, "displayed_time": "23.65", "trialTime": 24566, "trial_type": "mouselab-mdp", "trial_index": 46, "time_elapsed": 1008257, "internal_node_id": "0.0-4.0-3.0-0.0"}}, {"uniqueid": "w89499795:a97849231", "current_trial": 47, "dateTime": 1664465014069, "trialdata": {"revealed_states": [], "num_clicks_accrued": [0, 0, 0, 0, 0, 0, 0, 0, 0, 0, 0, 0, 0], "stateRewards": ["", -2, -8, 24, -48, 4, 4, -24, -48, -2, -8, -48, 24], "withholdReward": true, "trial_id": "mdp_556006673466", "block": "test2", "trialIndex": 35, "score": 16.5, "costs": -2.5, "simulationMode": [null, null, null], "rewards": [-2, -8, 24], "path": ["0", "0", "9", "10", "12"], "rt": [16598, 151, 365], "actions": ["left", "left", "down"], "actionTimes": [18993, 19651, 20514], "queries": {"click": {"state": {"target": ["3", "7", "11", "12", "4", "8", "9", "1", "2", "10"], "time": [3671, 4731, 5775, 6467, 7464, 8608, 11170, 11886, 12967, 13886]}, "edge": {"target": [], "time": []}}, "mouseover": {"state": {"target": ["0", "1", "3", "4", "7", "5", "11", "10", "12", "10", "4", "1", "5", "8", "8", "0", "5", "2", "9", "1", "2", "10", "5"], "time": [2455, 2946, 3380, 4179, 4412, 5095, 5495, 6113, 6165, 6713, 7078, 7779, 7845, 8012, 8313, 9347, 9965, 10395, 10729, 11565, 12531, 13461, 15397]}, "edge": {"target": [], "time": []}}, "mouseout": {"state": {"target": ["7", "1", "0", "1", "3", "4", "7", "5", "11", "10", "12", "10", "4", "1", "5", "8", "8", "0", "5", "2", "9", "1", "1", "2", "9", "10", "5", "9"], "time": [1413, 1562, 2833, 3164, 4013, 4262, 4978, 5115, 6078, 6133, 6662, 6762, 7729, 7800, 7895, 8035, 8912, 9630, 10012, 10585, 11413, 12196, 12413, 13181, 13313, 14048, 15878, 16012]}, "edge": {"target": [], "time": []}}}, "displayed_time": "21.05", "trialTime": 22081, "trial_type": "mouselab-mdp", "trial_index": 47, "time_elapsed": 1030740, "internal_node_id": "0.0-4.0-3.0-1.0"}}, {"uniqueid": "w89499795:a97849231", "current_trial": 48, "dateTime": 1664465028062, "trialdata": {"revealed_states": [], "num_clicks_accrued": [0, 0, 0, 0, 0, 0, 0, 0, 0, 0, 0, 0, 0], "stateRewards": ["", 4, 8, -24, 48, -2, -4, 24, -24, -2, 4, 24, 24], "withholdReward": true, "trial_id": "mdp_948713805479", "block": "test2", "trialIndex": 36, "score": 63.75, "costs": -1.25, "simulationMode": [null, null, null], "rewards": [4, 8, 48], "path": ["0", "0", "1", "2", "4"], "rt": [7724, 274, 457], "actions": ["up", "up", "left"], "actionTimes": [10196, 10994, 11976], "queries": {"click": {"state": {"target": ["3", "7", "11", "12", "4"], "time": [3960, 4642, 6097, 7105, 7895]}, "edge": {"target": [], "time": []}}, "mouseover": {"state": {"target": ["3", "3", "7", "6", "8", "9", "10", "10", "11", "10", "12", "10", "4", "1", "2"], "time": [3346, 3628, 4381, 4996, 5062, 5396, 5465, 5679, 5762, 6481, 6880, 7347, 7563, 8200, 8816]}, "edge": {"target": [], "time": []}}, "mouseout": {"state": {"target": ["6", "5", "9", "3", "3", "7", "6", "8", "9", "10", "10", "11", "10", "12", "10", "4", "1", "2", "4"], "time": [1546, 1565, 1762, 3396, 4296, 4896, 5016, 5330, 5432, 5546, 5731, 6446, 6515, 7312, 7395, 8177, 8262, 8981, 9015]}, "edge": {"target": [], "time": []}}}, "displayed_time": "12.51", "trialTime": 13193, "trial_type": "mouselab-mdp", "trial_index": 48, "time_elapsed": 1044734, "internal_node_id": "0.0-4.0-3.0-2.0"}}, {"uniqueid": "w89499795:a97849231", "current_trial": 49, "dateTime": 1664465042011, "trialdata": {"revealed_states": [], "num_clicks_accrued": [0, 0, 0, 0, 0, 0, 0, 0, 0, 0, 0, 0, 0], "stateRewards": ["", 2, -8, 24, 24, 2, 4, -48, -48, 4, 4, -24, 48], "withholdReward": false, "trial_id": "mdp_985707010949", "block": "test2", "trialIndex": 37, "score": 59.5, "costs": -1.5, "simulationMode": [null, null, null], "rewards": [4, 4, 48], "path": ["0", "0", "9", "10", "12"], "rt": [8572, 86, 476], "actions": ["left", "left", "down"], "actionTimes": [10386, 10991, 11982], "queries": {"click": {"state": {"target": ["4", "8", "11", "3", "7", "12"], "time": [2816, 3972, 5275, 6517, 7441, 8631]}, "edge": {"target": [], "time": []}}, "mouseover": {"state": {"target": ["1", "2", "4", "1", "5", "8", "0", "9", "10", "11", "1", "3", "7", "5", "0", "9", "12"], "time": [2169, 2268, 2450, 3218, 3336, 3690, 4418, 4536, 4751, 4884, 5636, 6221, 6887, 7785, 7839, 7917, 8233]}, "edge": {"target": [], "time": []}}, "mouseout": {"state": {"target": ["5", "1", "2", "4", "1", "5", "8", "0", "9", "10", "11", "1", "3", "7", "5", "0", "9", "12"], "time": [784, 2218, 2301, 3185, 3238, 3467, 4302, 4517, 4585, 4770, 5584, 5658, 6850, 7734, 7821, 7884, 7971, 9168]}, "edge": {"target": [], "time": []}}}, "displayed_time": "12.49", "trialTime": 13532, "trial_type": "mouselab-mdp", "trial_index": 49, "time_elapsed": 1058682, "internal_node_id": "0.0-4.0-3.0-3.0"}}, {"uniqueid": "w89499795:a97849231", "current_trial": 50, "dateTime": 1664465052771, "trialdata": {"revealed_states": [], "num_clicks_accrued": [0, 0, 0, 0, 0, 0, 0, 0, 0, 0, 0, 0, 0], "stateRewards": ["", -4, -4, 24, -24, 4, 4, 24, 48, 4, -4, 48, -48], "withholdReward": true, "trial_id": "mdp_522385334882", "block": "test2", "trialIndex": 38, "score": 52.75, "costs": -0.25, "simulationMode": [null, null, null], "rewards": [4, -4, 48], "path": ["0", "0", "9", "10", "11"], "rt": [2557, 287, 394], "actions": ["left", "left", "up"], "actionTimes": [4454, 5238, 6129], "queries": {"click": {"state": {"target": ["11"], "time": [2913]}, "edge": {"target": [], "time": []}}, "mouseover": {"state": {"target": ["11", "10"], "time": [2647, 3396]}, "edge": {"target": [], "time": []}}, "mouseout": {"state": {"target": ["5", "0", "11", "10"], "time": [1063, 1163, 3263, 3451]}, "edge": {"target": [], "time": []}}}, "displayed_time": "9.90", "trialTime": 10338, "trial_type": "mouselab-mdp", "trial_index": 50, "time_elapsed": 1069442, "internal_node_id": "0.0-4.0-3.0-4.0"}}, {"uniqueid": "w89499795:a97849231", "current_trial": 51, "dateTime": 1664465063243, "trialdata": {"revealed_states": [], "num_clicks_accrued": [0, 0, 0, 0, 0, 0, 0, 0, 0, 0, 0, 0, 0], "stateRewards": ["", -4, 4, 24, 24, 4, -8, 48, -48, -2, -8, 24, 24], "withholdReward": true, "trial_id": "mdp_395264223239", "block": "test2", "trialIndex": 39, "score": 48.25, "costs": -0.75, "simulationMode": [null, null, null], "rewards": [4, -8, 48], "path": ["0", "0", "5", "6", "7"], "rt": [4663, 106, 211], "actions": ["right", "right", "up"], "actionTimes": [6455, 7081, 7802], "queries": {"click": {"state": {"target": ["4", "11", "7"], "time": [2754, 3769, 5126]}, "edge": {"target": [], "time": []}}, "mouseover": {"state": {"target": ["1", "4", "11", "10", "12", "8", "6", "7", "6"], "time": [2156, 2454, 3371, 4141, 4204, 4420, 4621, 4788, 5420]}, "edge": {"target": [], "time": []}}, "mouseout": {"state": {"target": ["10", "9", "0", "1", "4", "11", "10", "12", "8", "6", "7", "6"], "time": [836, 887, 1337, 2272, 3171, 4121, 4171, 4247, 4455, 4687, 5392, 5538]}, "edge": {"target": [], "time": []}}}, "displayed_time": "9.79", "trialTime": 10117, "trial_type": "mouselab-mdp", "trial_index": 51, "time_elapsed": 1079914, "internal_node_id": "0.0-4.0-3.0-5.0"}}, {"uniqueid": "w89499795:a97849231", "current_trial": 52, "dateTime": 1664465074941, "trialdata": {"revealed_states": [], "num_clicks_accrued": [0, 0, 0, 0, 0, 0, 0, 0, 0, 0, 0, 0, 0], "stateRewards": ["", -2, -8, 48, -24, 2, -4, -48, -24, -2, -4, -48, 48], "withholdReward": true, "trial_id": "mdp_143798438087", "block": "test2", "trialIndex": 40, "score": 42.5, "costs": -0.5, "simulationMode": [null, null, null], "rewards": [-2, -8, 48], "path": ["0", "0", "1", "2", "3"], "rt": [3647, 119, 235], "actions": ["up", "up", "right"], "actionTimes": [5489, 6115, 6843], "queries": {"click": {"state": {"target": ["7", "3"], "time": [3078, 4168]}, "edge": {"target": [], "time": []}}, "mouseover": {"state": {"target": ["7", "3", "2"], "time": [2503, 3736, 4452]}, "edge": {"target": [], "time": []}}, "mouseout": {"state": {"target": ["11", "9", "7", "3", "2"], "time": [586, 1084, 3436, 4419, 4552]}, "edge": {"target": [], "time": []}}}, "displayed_time": "10.84", "trialTime": 11247, "trial_type": "mouselab-mdp", "trial_index": 52, "time_elapsed": 1091613, "internal_node_id": "0.0-4.0-3.0-6.0"}}, {"uniqueid": "w89499795:a97849231", "current_trial": 53, "dateTime": 1664465086751, "trialdata": {"revealed_states": [], "num_clicks_accrued": [0, 0, 0, 0, 0, 0, 0, 0, 0, 0, 0, 0, 0], "stateRewards": ["", 2, 8, 48, -24, -4, 4, 48, 24, -2, 8, 24, 24], "withholdReward": false, "trial_id": "mdp_123436106791", "block": "test2", "trialIndex": 41, "score": 62.75, "costs": -0.25, "simulationMode": [null, null, null], "rewards": [2, 8, 48], "path": ["0", "0", "1", "2", "3"], "rt": [2355, 54, 79], "actions": ["up", "up", "right"], "actionTimes": [4439, 5007, 5615], "queries": {"click": {"state": {"target": ["3"], "time": [3123]}, "edge": {"target": [], "time": []}}, "mouseover": {"state": {"target": ["1", "3", "11"], "time": [2416, 2766, 3649]}, "edge": {"target": [], "time": []}}, "mouseout": {"state": {"target": ["11", "0", "5", "0", "0", "1", "3", "11"], "time": [866, 949, 1215, 1299, 2170, 2438, 3500, 3683]}, "edge": {"target": [], "time": []}}}, "displayed_time": "11.09", "trialTime": 11421, "trial_type": "mouselab-mdp", "trial_index": 53, "time_elapsed": 1103422, "internal_node_id": "0.0-4.0-3.0-7.0"}}, {"uniqueid": "w89499795:a97849231", "current_trial": 54, "dateTime": 1664465098457, "trialdata": {"revealed_states": [], "num_clicks_accrued": [0, 0, 0, 0, 0, 0, 0, 0, 0, 0, 0, 0, 0], "stateRewards": ["", 2, 4, -48, -48, 4, 4, -48, -48, -2, -8, 48, -24], "withholdReward": true, "trial_id": "mdp_175327338412", "block": "test2", "trialIndex": 42, "score": 42.25, "costs": -0.75, "simulationMode": [null, null, null], "rewards": [-2, -8, 48], "path": ["0", "0", "9", "10", "11"], "rt": [5228, 91, 384], "actions": ["left", "left", "up"], "actionTimes": [7034, 7625, 8538], "queries": {"click": {"state": {"target": ["3", "8", "11"], "time": [2993, 4146, 5643]}, "edge": {"target": [], "time": []}}, "mouseover": {"state": {"target": ["3", "8", "0", "11"], "time": [2667, 3696, 4498, 4830]}, "edge": {"target": [], "time": []}}, "mouseout": {"state": {"target": ["11", "0", "3", "8", "0", "11"], "time": [980, 1980, 3329, 4462, 4522, 6012]}, "edge": {"target": [], "time": []}}}, "displayed_time": "10.81", "trialTime": 11324, "trial_type": "mouselab-mdp", "trial_index": 54, "time_elapsed": 1115128, "internal_node_id": "0.0-4.0-3.0-8.0"}}, {"uniqueid": "w89499795:a97849231", "current_trial": 55, "dateTime": 1664465110607, "trialdata": {"revealed_states": [], "num_clicks_accrued": [0, 0, 0, 0, 0, 0, 0, 0, 0, 0, 0, 0, 0], "stateRewards": ["", 4, -4, 48, -48, 2, 8, -48, 24, -2, -4, -24, 48], "withholdReward": true, "trial_id": "mdp_937564992306", "block": "test2", "trialIndex": 43, "score": 51.75, "costs": -1.25, "simulationMode": [null, null, null], "rewards": [4, -4, 48], "path": ["0", "0", "1", "2", "3"], "rt": [7283, 36, 90], "actions": ["up", "up", "right"], "actionTimes": [9204, 9769, 10394], "queries": {"click": {"state": {"target": ["4", "11", "8", "7", "3"], "time": [3968, 4974, 6134, 7117, 7909]}, "edge": {"target": [], "time": []}}, "mouseover": {"state": {"target": ["5", "3", "4", "4", "11", "9", "8", "8", "6", "7", "3", "10"], "time": [3082, 3199, 3459, 3666, 4666, 5307, 5416, 5782, 6533, 6749, 7633, 8366]}, "edge": {"target": [], "time": []}}, "mouseout": {"state": {"target": ["3", "2", "5", "3", "4", "4", "11", "9", "8", "8", "6", "7", "3", "10"], "time": [949, 982, 3116, 3221, 3485, 4269, 5284, 5331, 5535, 6498, 6556, 7399, 8168, 8385]}, "edge": {"target": [], "time": []}}}, "displayed_time": "10.90", "trialTime": 11728, "trial_type": "mouselab-mdp", "trial_index": 55, "time_elapsed": 1127278, "internal_node_id": "0.0-4.0-3.0-9.0"}}, {"uniqueid": "w89499795:a97849231", "current_trial": 56, "dateTime": 1664465120479, "trialdata": {"revealed_states": [], "num_clicks_accrued": [0, 0, 0, 0, 0, 0, 0, 0, 0, 0, 0, 0, 0], "stateRewards": ["", -2, -4, -24, 48, -4, 8, 48, 48, 2, 8, -48, -24], "withholdReward": false, "trial_id": "mdp_136376573354", "block": "test2", "trialIndex": 44, "score": 56.5, "costs": -0.5, "simulationMode": [null, null, null], "rewards": [-4, 8, 48], "path": ["0", "0", "5", "6", "7"], "rt": [3024, 810, 289], "actions": ["right", "right", "up"], "actionTimes": [4921, 6243, 7038], "queries": {"click": {"state": {"target": ["3", "7"], "time": [2815, 3505]}, "edge": {"target": [], "time": []}}, "mouseover": {"state": {"target": ["1", "3", "7", "10"], "time": [2213, 2479, 3195, 4046]}, "edge": {"target": [], "time": []}}, "mouseout": {"state": {"target": ["0", "5", "1", "3", "7", "10"], "time": [929, 1128, 2312, 3146, 3762, 4067]}, "edge": {"target": [], "time": []}}}, "displayed_time": "8.90", "trialTime": 9297, "trial_type": "mouselab-mdp", "trial_index": 56, "time_elapsed": 1137150, "internal_node_id": "0.0-4.0-3.0-10.0"}}, {"uniqueid": "w89499795:a97849231", "current_trial": 57, "dateTime": 1664465132814, "trialdata": {"revealed_states": [], "num_clicks_accrued": [0, 0, 0, 0, 0, 0, 0, 0, 0, 0, 0, 0, 0], "stateRewards": ["", -4, -8, 24, 48, 2, -4, -24, 24, -4, 8, 48, 48], "withholdReward": true, "trial_id": "mdp_496672670022", "block": "test2", "trialIndex": 45, "score": 40.25, "costs": -0.75, "simulationMode": [null, null, null], "rewards": [-4, -8, 48], "path": ["0", "0", "1", "2", "4"], "rt": [4806, 599, 693], "actions": ["up", "up", "left"], "actionTimes": [7313, 8414, 9609], "queries": {"click": {"state": {"target": ["7", "3", "4"], "time": [3476, 4868, 6045]}, "edge": {"target": [], "time": []}}, "mouseover": {"state": {"target": ["5", "7", "7", "6", "3", "2", "4", "4", "11"], "time": [2798, 3028, 3191, 3828, 4596, 5127, 5250, 5649, 6428]}, "edge": {"target": [], "time": []}}, "mouseout": {"state": {"target": ["8", "5", "0", "5", "7", "7", "6", "3", "2", "4", "4", "11"], "time": [1361, 1527, 2785, 2828, 3050, 3779, 4013, 5079, 5228, 5363, 6245, 6448]}, "edge": {"target": [], "time": []}}}, "displayed_time": "11.51", "trialTime": 11932, "trial_type": "mouselab-mdp", "trial_index": 57, "time_elapsed": 1149486, "internal_node_id": "0.0-4.0-3.0-11.0"}}, {"uniqueid": "w89499795:a97849231", "current_trial": 58, "dateTime": 1664465144662, "trialdata": {"revealed_states": [], "num_clicks_accrued": [0, 0, 0, 0, 0, 0, 0, 0, 0, 0, 0, 0, 0], "stateRewards": ["", -4, -4, 48, 24, -4, -4, -24, -48, -4, 4, 48, -24], "withholdReward": true, "trial_id": "mdp_896503755738", "block": "test2", "trialIndex": 46, "score": 44.75, "costs": -0.25, "simulationMode": [null, null, null], "rewards": [-4, -4, 48], "path": ["0", "0", "1", "2", "3"], "rt": [2367, 129, 99], "actions": ["up", "up", "right"], "actionTimes": [4379, 5006, 5614], "queries": {"click": {"state": {"target": ["3"], "time": [3129]}, "edge": {"target": [], "time": []}}, "mouseover": {"state": {"target": ["7", "3", "2", "4"], "time": [2357, 2790, 3523, 3574]}, "edge": {"target": [], "time": []}}, "mouseout": {"state": {"target": ["6", "7", "3", "2", "4"], "time": [1094, 2524, 3440, 3545, 3639]}, "edge": {"target": [], "time": []}}}, "displayed_time": "11.01", "trialTime": 11460, "trial_type": "mouselab-mdp", "trial_index": 58, "time_elapsed": 1161334, "internal_node_id": "0.0-4.0-3.0-12.0"}}, {"uniqueid": "w89499795:a97849231", "current_trial": 59, "dateTime": 1664465157434, "trialdata": {"revealed_states": [], "num_clicks_accrued": [0, 0, 0, 0, 0, 0, 0, 0, 0, 0, 0, 0, 0], "stateRewards": ["", 4, 4, -24, -48, -4, 4, -48, 24, 4, -8, -48, 48], "withholdReward": true, "trial_id": "mdp_566768794366", "block": "test2", "trialIndex": 47, "score": 48, "costs": -1, "simulationMode": [null, null, null], "rewards": [4, -8, 48], "path": ["0", "0", "9", "10", "12"], "rt": [5131, 121, 460], "actions": ["left", "left", "down"], "actionTimes": [7823, 8459, 9431], "queries": {"click": {"state": {"target": ["3", "4", "11", "12"], "time": [3786, 4504, 5575, 6434]}, "edge": {"target": [], "time": []}}, "mouseover": {"state": {"target": ["5", "3", "4", "11", "11", "10", "12", "9"], "time": [3074, 3305, 4149, 4850, 5087, 5924, 6088, 7000]}, "edge": {"target": [], "time": []}}, "mouseout": {"state": {"target": ["1", "0", "5", "3", "4", "11", "11", "10", "12", "9"], "time": [1651, 3051, 3102, 4122, 4749, 4871, 5888, 5970, 6717, 7050]}, "edge": {"target": [], "time": []}}}, "displayed_time": "11.69", "trialTime": 12342, "trial_type": "mouselab-mdp", "trial_index": 59, "time_elapsed": 1174105, "internal_node_id": "0.0-4.0-3.0-13.0"}}, {"uniqueid": "w89499795:a97849231", "current_trial": 60, "dateTime": 1664465169160, "trialdata": {"revealed_states": [], "num_clicks_accrued": [0, 0, 0, 0, 0, 0, 0, 0, 0, 0, 0, 0, 0], "stateRewards": ["", -4, 8, -24, -48, 2, 8, -48, -24, -2, -4, 48, -48], "withholdReward": false, "trial_id": "mdp_599927291428", "block": "test2", "trialIndex": 48, "score": 46.75, "costs": -0.25, "simulationMode": [null, null, null], "rewards": [-2, -4, 48], "path": ["0", "0", "9", "10", "11"], "rt": [2184, 210, 350], "actions": ["left", "left", "up"], "actionTimes": [4081, 4804, 5663], "queries": {"click": {"state": {"target": ["11"], "time": [2745]}, "edge": {"target": [], "time": []}}, "mouseover": {"state": {"target": ["11"], "time": [2456]}, "edge": {"target": [], "time": []}}, "mouseout": {"state": {"target": ["9", "0", "5", "11"], "time": [679, 714, 921, 3156]}, "edge": {"target": [], "time": []}}}, "displayed_time": "10.90", "trialTime": 11340, "trial_type": "mouselab-mdp", "trial_index": 60, "time_elapsed": 1185832, "internal_node_id": "0.0-4.0-3.0-14.0"}}, {"uniqueid": "w89499795:a97849231", "current_trial": 61, "dateTime": 1664465181180, "trialdata": {"revealed_states": [], "num_clicks_accrued": [0, 0, 0, 0, 0, 0, 0, 0, 0, 0, 0, 0, 0], "stateRewards": ["", 2, 4, -48, -48, 2, 4, 48, -24, -2, 8, 48, -48], "withholdReward": true, "trial_id": "mdp_258528916140", "block": "test2", "trialIndex": 49, "score": 58.25, "costs": -0.75, "simulationMode": [null, null, null], "rewards": [-2, 8, 48], "path": ["0", "0", "9", "10", "11"], "rt": [4017, 182, 293], "actions": ["left", "left", "up"], "actionTimes": [6095, 6811, 7635], "queries": {"click": {"state": {"target": ["3", "4", "11"], "time": [3222, 4021, 4813]}, "edge": {"target": [], "time": []}}, "mouseover": {"state": {"target": ["5", "2", "3", "2", "4", "11"], "time": [2457, 2822, 2922, 3560, 3739, 4538]}, "edge": {"target": [], "time": []}}, "mouseout": {"state": {"target": ["8", "6", "0", "5", "2", "3", "2", "4", "11"], "time": [1071, 1136, 2421, 2477, 2845, 3539, 3672, 4271, 5104]}, "edge": {"target": [], "time": []}}}, "displayed_time": "11.08", "trialTime": 11610, "trial_type": "mouselab-mdp", "trial_index": 61, "time_elapsed": 1197852, "internal_node_id": "0.0-4.0-3.0-15.0"}}, {"uniqueid": "w89499795:a97849231", "current_trial": 62, "dateTime": 1664465192234, "trialdata": {"revealed_states": [], "num_clicks_accrued": [0, 0, 0, 0, 0, 0, 0, 0, 0, 0, 0, 0, 0], "stateRewards": ["", 4, 4, 48, -24, -4, -8, 24, -24, 2, -8, -24, 24], "withholdReward": false, "trial_id": "mdp_933201675789", "block": "test2", "trialIndex": 50, "score": 60.75, "costs": -0.25, "simulationMode": [null, null, null], "rewards": [4, 4, 48], "path": ["0", "0", "1", "2", "3"], "rt": [2803, 153, 97], "actions": ["up", "up", "right"], "actionTimes": [4567, 5218, 5811], "queries": {"click": {"state": {"target": ["3"], "time": [3018]}, "edge": {"target": [], "time": []}}, "mouseover": {"state": {"target": ["1", "3", "2", "4"], "time": [2013, 2567, 3395, 3447]}, "edge": {"target": [], "time": []}}, "mouseout": {"state": {"target": ["8", "1", "3", "2", "4"], "time": [943, 2345, 3294, 3443, 3477]}, "edge": {"target": [], "time": []}}}, "displayed_time": "9.76", "trialTime": 10615, "trial_type": "mouselab-mdp", "trial_index": 62, "time_elapsed": 1208903, "internal_node_id": "0.0-4.0-3.0-16.0"}}, {"uniqueid": "w89499795:a97849231", "current_trial": 63, "dateTime": 1664465203902, "trialdata": {"revealed_states": [], "num_clicks_accrued": [0, 0, 0, 0, 0, 0, 0, 0, 0, 0, 0, 0, 0], "stateRewards": ["", 2, 4, -24, -24, 4, 8, -48, 48, 2, 4, -24, -48], "withholdReward": true, "trial_id": "mdp_565165082781", "block": "test2", "trialIndex": 51, "score": 63.75, "costs": -1.25, "simulationMode": [null, null, null], "rewards": [4, 8, 48], "path": ["0", "0", "5", "6", "8"], "rt": [5398, 193, 972], "actions": ["right", "right", "down"], "actionTimes": [6951, 7647, 9142], "queries": {"click": {"state": {"target": ["3", "4", "11", "7", "8"], "time": [2370, 3100, 3661, 4691, 5659]}, "edge": {"target": [], "time": []}}, "mouseover": {"state": {"target": ["3", "2", "4", "11", "9", "0", "7", "6", "8", "9", "10"], "time": [2133, 2699, 2849, 3582, 3982, 4009, 4281, 5016, 5216, 6065, 6096]}, "edge": {"target": [], "time": []}}, "mouseout": {"state": {"target": ["11", "4", "0", "3", "2", "4", "11", "9", "0", "7", "6", "8", "9", "10"], "time": [704, 880, 1637, 2667, 2768, 3282, 3933, 4005, 4034, 4967, 5039, 5865, 6088, 6119]}, "edge": {"target": [], "time": []}}}, "displayed_time": "9.63", "trialTime": 10495, "trial_type": "mouselab-mdp", "trial_index": 63, "time_elapsed": 1220574, "internal_node_id": "0.0-4.0-3.0-17.0"}}, {"uniqueid": "w89499795:a97849231", "current_trial": 64, "dateTime": 1664465217166, "trialdata": {"revealed_states": [], "num_clicks_accrued": [0, 0, 0, 0, 0, 0, 0, 0, 0, 0, 0, 0, 0], "stateRewards": ["", 2, 8, 24, -48, 4, 8, 24, 24, 4, -8, 48, 48], "withholdReward": true, "trial_id": "mdp_646103824875", "block": "test2", "trialIndex": 52, "score": 47.75, "costs": -1.25, "simulationMode": [null, null, null], "rewards": [4, -8, 48], "path": ["0", "0", "9", "10", "11"], "rt": [6323, 577, 350], "actions": ["left", "left", "up"], "actionTimes": [8932, 10026, 10884], "queries": {"click": {"state": {"target": ["8", "7", "3", "4", "11"], "time": [3766, 4750, 5949, 6765, 7549]}, "edge": {"target": [], "time": []}}, "mouseover": {"state": {"target": ["0", "8", "8", "6", "7", "3", "3", "2", "4", "11"], "time": [2945, 3177, 3479, 4150, 4412, 5279, 5479, 6317, 6378, 7262]}, "edge": {"target": [], "time": []}}, "mouseout": {"state": {"target": ["3", "0", "8", "8", "6", "7", "3", "3", "2", "4", "11"], "time": [1479, 2968, 3231, 4146, 4172, 5062, 5301, 6296, 6345, 7062, 7846]}, "edge": {"target": [], "time": []}}}, "displayed_time": "11.40", "trialTime": 12838, "trial_type": "mouselab-mdp", "trial_index": 64, "time_elapsed": 1233838, "internal_node_id": "0.0-4.0-3.0-18.0"}}, {"uniqueid": "w89499795:a97849231", "current_trial": 65, "dateTime": 1664465239791, "trialdata": {"revealed_states": [], "num_clicks_accrued": [0, 0, 0, 0, 0, 0, 0, 0, 0, 0, 0, 0, 0], "stateRewards": ["", 2, 8, -48, -24, 2, -4, -48, 24, 2, -4, -24, -24], "withholdReward": true, "trial_id": "mdp_954659099093", "block": "test2", "trialIndex": 53, "score": 24, "costs": -3, "simulationMode": [null, null, null], "rewards": [2, -4, 24], "path": ["0", "0", "5", "6", "8"], "rt": [15685, 194, 888], "actions": ["right", "right", "down"], "actionTimes": [19070, 19762, 21178], "queries": {"click": {"state": {"target": ["8", "11", "12", "7", "3", "4", "5", "6", "10", "9", "1", "2"], "time": [4184, 5281, 6055, 7087, 7833, 8567, 10664, 11537, 12654, 13222, 14005, 14726]}, "edge": {"target": [], "time": []}}, "mouseover": {"state": {"target": ["0", "8", "11", "11", "10", "12", "0", "7", "3", "2", "4", "9", "5", "6", "0", "9", "10", "9", "0", "1", "2"], "time": [3664, 3918, 4698, 5015, 5615, 5780, 6363, 6865, 7415, 8121, 8265, 9132, 10331, 11164, 11919, 12130, 12430, 12983, 13580, 13683, 14399]}, "edge": {"target": [], "time": []}}, "mouseout": {"state": {"target": ["0", "0", "8", "11", "11", "10", "12", "0", "7", "3", "2", "4", "9", "5", "6", "5", "0", "9", "10", "9", "0", "1", "2"], "time": [2930, 3686, 4536, 4733, 5547, 5731, 6246, 6415, 7364, 8099, 8148, 8831, 9248, 10948, 11831, 11888, 11994, 12281, 12915, 13431, 13615, 14247, 14885]}, "edge": {"target": [], "time": []}}}, "displayed_time": "21.68", "trialTime": 22234, "trial_type": "mouselab-mdp", "trial_index": 65, "time_elapsed": 1256463, "internal_node_id": "0.0-4.0-3.0-19.0"}}, {"uniqueid": "w89499795:a97849231", "current_trial": 66, "dateTime": 1664465250325, "trialdata": {"revealed_states": [], "num_clicks_accrued": [0, 0, 0, 0, 0, 0, 0, 0, 0, 0, 0, 0, 0], "stateRewards": ["", 4, 4, 48, -48, -2, -8, -48, -24, 2, 4, -24, -48], "withholdReward": true, "trial_id": "mdp_239929662917", "block": "test2", "trialIndex": 54, "score": 60.25, "costs": -0.75, "simulationMode": [null, null, null], "rewards": [4, 4, 48], "path": ["0", "0", "1", "2", "3"], "rt": [5058, 128, 238], "actions": ["up", "up", "right"], "actionTimes": [6873, 7515, 8256], "queries": {"click": {"state": {"target": ["8", "4", "3"], "time": [2943, 4300, 5629]}, "edge": {"target": [], "time": []}}, "mouseover": {"state": {"target": ["5", "6", "8", "5", "1", "2", "4", "11", "1", "3", "3", "1", "11"], "time": [2198, 2529, 2681, 3330, 3547, 3680, 3896, 4780, 5030, 5100, 5381, 5997, 6036]}, "edge": {"target": [], "time": []}}, "mouseout": {"state": {"target": ["11", "1", "5", "6", "8", "5", "1", "2", "4", "11", "1", "3", "3", "1", "11"], "time": [847, 1065, 2381, 2561, 3281, 3352, 3569, 3764, 4597, 4931, 5053, 5231, 5930, 6031, 6065]}, "edge": {"target": [], "time": []}}}, "displayed_time": "9.81", "trialTime": 10101, "trial_type": "mouselab-mdp", "trial_index": 66, "time_elapsed": 1266996, "internal_node_id": "0.0-4.0-3.0-20.0"}}, {"uniqueid": "w89499795:a97849231", "current_trial": 67, "dateTime": 1664465261141, "trialdata": {"revealed_states": [], "num_clicks_accrued": [0, 0, 0, 0, 0, 0, 0, 0, 0, 0, 0, 0, 0], "stateRewards": ["", -2, 8, 48, -48, 4, -8, 24, 24, 4, 4, -48, -24], "withholdReward": true, "trial_id": "mdp_746937869927", "block": "test2", "trialIndex": 55, "score": 58.75, "costs": -0.25, "simulationMode": [null, null, null], "rewards": [-2, 8, 48], "path": ["0", "0", "1", "2", "3"], "rt": [2148, 162, 87], "actions": ["up", "up", "right"], "actionTimes": [4272, 4931, 5522], "queries": {"click": {"state": {"target": ["3"], "time": [2933]}, "edge": {"target": [], "time": []}}, "mouseover": {"state": {"target": ["3", "2"], "time": [2600, 3282]}, "edge": {"target": [], "time": []}}, "mouseout": {"state": {"target": ["7", "0", "3", "2"], "time": [1282, 1647, 3214, 3315]}, "edge": {"target": [], "time": []}}}, "displayed_time": "10.12", "trialTime": 10402, "trial_type": "mouselab-mdp", "trial_index": 67, "time_elapsed": 1277813, "internal_node_id": "0.0-4.0-3.0-21.0"}}, {"uniqueid": "w89499795:a97849231", "current_trial": 68, "dateTime": 1664465271808, "trialdata": {"revealed_states": [], "num_clicks_accrued": [0, 0, 0, 0, 0, 0, 0, 0, 0, 0, 0, 0, 0], "stateRewards": ["", 2, 8, 48, 24, -4, 4, -48, 24, 2, 8, 48, 48], "withholdReward": true, "trial_id": "mdp_367344599162", "block": "test2", "trialIndex": 56, "score": 62.75, "costs": -0.25, "simulationMode": [null, null, null], "rewards": [2, 8, 48], "path": ["0", "0", "1", "2", "3"], "rt": [2326, 212, 151], "actions": ["up", "up", "right"], "actionTimes": [4149, 4878, 5548], "queries": {"click": {"state": {"target": ["3"], "time": [2642]}, "edge": {"target": [], "time": []}}, "mouseover": {"state": {"target": ["3", "2"], "time": [2392, 3026]}, "edge": {"target": [], "time": []}}, "mouseout": {"state": {"target": ["7", "3", "2"], "time": [1008, 2992, 3047]}, "edge": {"target": [], "time": []}}}, "displayed_time": "9.82", "trialTime": 10247, "trial_type": "mouselab-mdp", "trial_index": 68, "time_elapsed": 1288479, "internal_node_id": "0.0-4.0-3.0-22.0"}}, {"uniqueid": "w89499795:a97849231", "current_trial": 69, "dateTime": 1664465281396, "trialdata": {"revealed_states": [], "num_clicks_accrued": [0, 0, 0, 0, 0, 0, 0, 0, 0, 0, 0, 0, 0], "stateRewards": ["", 2, -8, -24, -48, -2, -4, 48, 48, 4, 8, 48, 48], "withholdReward": true, "trial_id": "mdp_347285045422", "block": "test2", "trialIndex": 57, "score": 64.5, "costs": -0.5, "simulationMode": [null, null, null], "rewards": [4, 8, 48], "path": ["0", "0", "9", "10", "11"], "rt": [3384, 142, 488], "actions": ["left", "left", "up"], "actionTimes": [5181, 5834, 6849], "queries": {"click": {"state": {"target": ["3", "11"], "time": [2473, 3710]}, "edge": {"target": [], "time": []}}, "mouseover": {"state": {"target": ["3", "2", "4", "11", "10", "12"], "time": [2169, 2810, 2917, 3369, 3989, 4218]}, "edge": {"target": [], "time": []}}, "mouseout": {"state": {"target": ["2", "6", "5", "0", "3", "2", "4", "11", "10", "12"], "time": [634, 951, 1167, 1840, 2787, 2852, 3274, 3968, 4051, 4286]}, "edge": {"target": [], "time": []}}}, "displayed_time": "8.80", "trialTime": 9143, "trial_type": "mouselab-mdp", "trial_index": 69, "time_elapsed": 1298067, "internal_node_id": "0.0-4.0-3.0-23.0"}}, {"uniqueid": "w89499795:a97849231", "current_trial": 70, "dateTime": 1664465294655, "trialdata": {"revealed_states": [], "num_clicks_accrued": [0, 0, 0, 0, 0, 0, 0, 0, 0, 0, 0, 0, 0], "stateRewards": ["", -2, -8, -24, -48, 4, -8, 48, 24, 2, 4, -48, -48], "withholdReward": false, "trial_id": "mdp_898082967464", "block": "test2", "trialIndex": 58, "score": 47.5, "costs": -1.5, "simulationMode": [null, null, null], "rewards": [4, -8, 48], "path": ["0", "0", "5", "6", "7"], "rt": [7505, 257, 694], "actions": ["right", "right", "up"], "actionTimes": [9785, 10561, 11779], "queries": {"click": {"state": {"target": ["11", "12", "8", "3", "4", "7"], "time": [3528, 4296, 5639, 6917, 7633, 8553]}, "edge": {"target": [], "time": []}}, "mouseover": {"state": {"target": ["0", "9", "10", "11", "10", "12", "8", "6", "8", "8", "6", "7", "3", "2", "4", "7", "1"], "time": [2435, 2665, 2712, 3065, 3866, 4033, 4665, 4981, 5099, 5399, 5964, 6165, 6615, 7236, 7416, 8315, 8848]}, "edge": {"target": [], "time": []}}, "mouseout": {"state": {"target": ["12", "2", "5", "5", "0", "0", "9", "10", "11", "10", "12", "8", "6", "8", "8", "6", "7", "3", "2", "4", "7", "1", "11"], "time": [519, 1265, 1347, 1531, 1780, 2514, 2686, 2948, 3839, 3917, 4599, 4798, 5048, 5148, 5932, 5987, 6416, 7206, 7265, 7865, 8799, 8871, 8915]}, "edge": {"target": [], "time": []}}}, "displayed_time": "12.28", "trialTime": 12834, "trial_type": "mouselab-mdp", "trial_index": 70, "time_elapsed": 1311326, "internal_node_id": "0.0-4.0-3.0-24.0"}}, {"uniqueid": "w89499795:a97849231", "current_trial": 71, "dateTime": 1664465306780, "trialdata": {"revealed_states": [], "num_clicks_accrued": [0, 0, 0, 0, 0, 0, 0, 0, 0, 0, 0, 0, 0], "stateRewards": ["", -4, 8, -24, 48, 2, -8, 24, 48, 2, -8, -24, -48], "withholdReward": false, "trial_id": "mdp_493778446445", "block": "test2", "trialIndex": 59, "score": 46, "costs": -1, "simulationMode": [null, null, null], "rewards": [2, -8, 48], "path": ["0", "0", "5", "6", "8"], "rt": [6334, 119, 825], "actions": ["right", "right", "down"], "actionTimes": [8334, 8964, 10287], "queries": {"click": {"state": {"target": ["7", "3", "11", "8"], "time": [3382, 4487, 5732, 7034]}, "edge": {"target": [], "time": []}}, "mouseover": {"state": {"target": ["0", "5", "6", "7", "7", "3", "2", "4", "11", "10", "8", "10"], "time": [2256, 2374, 2431, 2525, 2965, 4242, 4808, 4974, 5374, 6057, 6709, 7491]}, "edge": {"target": [], "time": []}}, "mouseout": {"state": {"target": ["4", "9", "0", "0", "5", "6", "7", "7", "3", "2", "4", "11", "10", "8", "10"], "time": [1145, 1227, 1489, 2280, 2408, 2474, 2690, 3725, 4774, 4841, 5110, 5974, 6108, 7358, 7512]}, "edge": {"target": [], "time": []}}}, "displayed_time": "10.80", "trialTime": 11653, "trial_type": "mouselab-mdp", "trial_index": 71, "time_elapsed": 1323452, "internal_node_id": "0.0-4.0-3.0-25.0"}}, {"uniqueid": "w89499795:a97849231", "current_trial": 72, "dateTime": 1664465320202, "trialdata": {"revealed_states": [], "num_clicks_accrued": [0, 0, 0, 0, 0, 0, 0, 0, 0, 0, 0, 0, 0], "stateRewards": ["", 4, -8, -24, 24, 2, -4, 24, 24, 2, -4, 48, 48], "withholdReward": false, "trial_id": "mdp_457607480918", "block": "test2", "trialIndex": 60, "score": 50.25, "costs": -0.75, "simulationMode": [null, null, null], "rewards": [2, -4, 48], "path": ["0", "0", "9", "10", "11"], "rt": [4995, 54, 528], "actions": ["left", "left", "up"], "actionTimes": [6895, 7443, 8502], "queries": {"click": {"state": {"target": ["8", "3", "11"], "time": [2811, 4172, 5321]}, "edge": {"target": [], "time": []}}, "mouseover": {"state": {"target": ["5", "8", "3", "2", "4", "11", "10"], "time": [2257, 2502, 3736, 4452, 4619, 4918, 5702]}, "edge": {"target": [], "time": []}}, "mouseout": {"state": {"target": ["11", "5", "8", "3", "2", "4", "11", "10"], "time": [904, 2286, 3103, 4419, 4503, 4719, 5585, 5752]}, "edge": {"target": [], "time": []}}}, "displayed_time": "11.90", "trialTime": 12969, "trial_type": "mouselab-mdp", "trial_index": 72, "time_elapsed": 1336873, "internal_node_id": "0.0-4.0-3.0-26.0"}}, {"uniqueid": "w89499795:a97849231", "current_trial": 73, "dateTime": 1664465332303, "trialdata": {"revealed_states": [], "num_clicks_accrued": [0, 0, 0, 0, 0, 0, 0, 0, 0, 0, 0, 0, 0], "stateRewards": ["", 4, -8, 48, 48, 2, 4, 48, -48, 4, -4, -48, 48], "withholdReward": true, "trial_id": "mdp_519605841135", "block": "test2", "trialIndex": 61, "score": 48.5, "costs": -0.5, "simulationMode": [null, null, null], "rewards": [4, -8, 48], "path": ["0", "0", "1", "2", "3"], "rt": [3519, 191, 105], "actions": ["up", "up", "right"], "actionTimes": [5910, 6605, 7226], "queries": {"click": {"state": {"target": ["11", "3"], "time": [3417, 4665]}, "edge": {"target": [], "time": []}}, "mouseover": {"state": {"target": ["9", "11", "7", "7", "3"], "time": [2741, 3405, 3808, 4044, 4396]}, "edge": {"target": [], "time": []}}, "mouseout": {"state": {"target": ["5", "7", "6", "5", "9", "11", "7", "7", "3", "11"], "time": [1141, 1424, 1490, 1557, 3400, 3765, 3951, 4117, 4974, 5057]}, "edge": {"target": [], "time": []}}}, "displayed_time": "11.39", "trialTime": 11676, "trial_type": "mouselab-mdp", "trial_index": 73, "time_elapsed": 1348974, "internal_node_id": "0.0-4.0-3.0-27.0"}}, {"uniqueid": "w89499795:a97849231", "current_trial": 74, "dateTime": 1664465343147, "trialdata": {"revealed_states": [], "num_clicks_accrued": [0, 0, 0, 0, 0, 0, 0, 0, 0, 0, 0, 0, 0], "stateRewards": ["", -2, -8, -24, -24, 4, -4, -48, 48, 2, 8, 48, -48], "withholdReward": true, "trial_id": "mdp_498095124548", "block": "test2", "trialIndex": 62, "score": 62.5, "costs": -0.5, "simulationMode": [null, null, null], "rewards": [2, 8, 48], "path": ["0", "0", "9", "10", "11"], "rt": [3700, 204, 267], "actions": ["left", "left", "up"], "actionTimes": [5632, 6343, 7107], "queries": {"click": {"state": {"target": ["3", "11"], "time": [2916, 4152]}, "edge": {"target": [], "time": []}}, "mouseover": {"state": {"target": ["3", "4", "11", "11", "9"], "time": [2618, 3302, 3569, 3700, 4586]}, "edge": {"target": [], "time": []}}, "mouseout": {"state": {"target": ["0", "3", "4", "11", "11", "9"], "time": [1977, 3261, 3368, 3637, 4435, 4651]}, "edge": {"target": [], "time": []}}}, "displayed_time": "9.93", "trialTime": 10414, "trial_type": "mouselab-mdp", "trial_index": 74, "time_elapsed": 1359818, "internal_node_id": "0.0-4.0-3.0-28.0"}}, {"uniqueid": "w89499795:a97849231", "current_trial": 75, "dateTime": 1664465354489, "trialdata": {"revealed_states": [], "num_clicks_accrued": [0, 0, 0, 0, 0, 0, 0, 0, 0, 0, 0, 0, 0], "stateRewards": ["", -2, 8, 48, 24, 2, -4, 48, -48, 2, 8, 24, -24], "withholdReward": true, "trial_id": "mdp_176207245985", "block": "test2", "trialIndex": 63, "score": 50.5, "costs": -0.5, "simulationMode": [null, null, null], "rewards": [2, -4, 48], "path": ["0", "0", "5", "6", "7"], "rt": [3395, 156, 345], "actions": ["right", "right", "up"], "actionTimes": [5811, 6471, 7323], "queries": {"click": {"state": {"target": ["11", "7"], "time": [3307, 4420]}, "edge": {"target": [], "time": []}}, "mouseover": {"state": {"target": ["11", "5", "6", "7", "2"], "time": [3058, 3696, 3724, 4006, 4876]}, "edge": {"target": [], "time": []}}, "mouseout": {"state": {"target": ["6", "1", "11", "5", "6", "7", "2"], "time": [1389, 1689, 3664, 3721, 3748, 4824, 4900]}, "edge": {"target": [], "time": []}}}, "displayed_time": "10.42", "trialTime": 10812, "trial_type": "mouselab-mdp", "trial_index": 75, "time_elapsed": 1371160, "internal_node_id": "0.0-4.0-3.0-29.0"}}, {"uniqueid": "w89499795:a97849231", "current_trial": 76, "dateTime": 1664465361165, "trialdata": {"rt": 6648, "stimulus": "<h1> End of block! </h1>\n\nYou have reached the end of the block 2/4. If you need a short break, feel free to take one now before moving on.\n\n<br><br>\nIn the next block, you will complete another 30 rounds of this game.\n\n<br><br>\n<div style='text-align: center;'>Press <code>space</code> to begin.</div>\n<br><br>\n<div style='text-align: center;'>(If the experiment doesn't continue, try clicking on the text and then pressing <code>space</code>.)</div>", "response": " ", "trial_id": "mdp_ready_3", "trial_type": "html-keyboard-response", "trial_index": 76, "time_elapsed": 1377837, "internal_node_id": "0.0-4.0-4.0"}}, {"uniqueid": "w89499795:a97849231", "current_trial": 77, "dateTime": 1664465381692, "trialdata": {"revealed_states": [], "num_clicks_accrued": [0, 0, 0, 0, 0, 0, 0, 0, 0, 0, 0, 0, 0], "stateRewards": ["", -4, -4, 24, -48, -2, 8, -24, -48, -4, 4, 24, -48], "withholdReward": true, "trial_id": "mdp_934626330092", "block": "test3", "trialIndex": 64, "score": 26.5, "costs": -2.5, "simulationMode": [null, null, null], "rewards": [-4, 4, 24], "path": ["0", "0", "9", "10", "11"], "rt": [14092, 196, 437], "actions": ["left", "left", "up"], "actionTimes": [16557, 17275, 18214], "queries": {"click": {"state": {"target": ["12", "11", "3", "7", "8", "4", "2", "10", "9", "1"], "time": [3799, 5205, 6044, 6789, 7484, 8399, 11977, 13231, 14108, 15132]}, "edge": {"target": [], "time": []}}, "mouseover": {"state": {"target": ["0", "9", "10", "12", "2", "4", "11", "11", "3", "3", "7", "6", "8", "5", "2", "4", "9", "10", "9", "1", "2", "2", "1", "10", "9", "5", "1"], "time": [2658, 2891, 3016, 3513, 4359, 4395, 4666, 4760, 5625, 5791, 6474, 7094, 7258, 7742, 7992, 8192, 9159, 9625, 9774, 9890, 10025, 10742, 12408, 12943, 13807, 14577, 14774]}, "edge": {"target": [], "time": []}}, "mouseout": {"state": {"target": ["7", "0", "9", "10", "12", "2", "4", "11", "11", "3", "3", "7", "6", "8", "5", "2", "4", "9", "10", "9", "1", "2", "2", "1", "11", "10", "9", "9", "5", "1", "11"], "time": [1125, 2842, 2991, 3192, 4074, 4392, 4625, 4697, 5525, 5658, 6409, 7025, 7125, 7695, 7792, 8025, 8643, 9409, 9707, 9808, 9976, 10307, 12324, 12441, 12842, 13558, 14358, 14543, 14625, 15358, 15507]}, "edge": {"target": [], "time": []}}}, "displayed_time": "18.71", "trialTime": 20100, "trial_type": "mouselab-mdp", "trial_index": 77, "time_elapsed": 1398363, "internal_node_id": "0.0-4.0-5.0-0.0"}}, {"uniqueid": "w89499795:a97849231", "current_trial": 78, "dateTime": 1664465392272, "trialdata": {"revealed_states": [], "num_clicks_accrued": [0, 0, 0, 0, 0, 0, 0, 0, 0, 0, 0, 0, 0], "stateRewards": ["", -4, -4, -24, 48, 2, 4, -24, -48, -2, 4, 24, 24], "withholdReward": true, "trial_id": "mdp_360934723192", "block": "test3", "trialIndex": 65, "score": 44.5, "costs": -0.5, "simulationMode": [null, null, null], "rewards": [-4, -4, 48], "path": ["0", "0", "1", "2", "4"], "rt": [3387, 135, 149], "actions": ["up", "up", "left"], "actionTimes": [5093, 5725, 6375], "queries": {"click": {"state": {"target": ["7", "4"], "time": [2606, 3603]}, "edge": {"target": [], "time": []}}, "mouseover": {"state": {"target": ["7", "3", "2", "4"], "time": [2336, 3020, 3087, 3287]}, "edge": {"target": [], "time": []}}, "mouseout": {"state": {"target": ["0", "7", "3", "2", "4"], "time": [1086, 2953, 3054, 3221, 3891]}, "edge": {"target": [], "time": []}}}, "displayed_time": "9.71", "trialTime": 10127, "trial_type": "mouselab-mdp", "trial_index": 78, "time_elapsed": 1408943, "internal_node_id": "0.0-4.0-5.0-1.0"}}, {"uniqueid": "w89499795:a97849231", "current_trial": 79, "dateTime": 1664465404107, "trialdata": {"revealed_states": [], "num_clicks_accrued": [0, 0, 0, 0, 0, 0, 0, 0, 0, 0, 0, 0, 0], "stateRewards": ["", 2, 4, -48, -24, 2, 8, 24, 48, -2, 4, 48, -48], "withholdReward": true, "trial_id": "mdp_551894842204", "block": "test3", "trialIndex": 66, "score": 62.5, "costs": -0.5, "simulationMode": [null, null, null], "rewards": [2, 8, 48], "path": ["0", "0", "5", "6", "8"], "rt": [3250, 139, 131], "actions": ["right", "right", "down"], "actionTimes": [5298, 5945, 6589], "queries": {"click": {"state": {"target": ["4", "8"], "time": [2874, 4048]}, "edge": {"target": [], "time": []}}, "mouseover": {"state": {"target": ["4", "5", "8"], "time": [2554, 3467, 3732]}, "edge": {"target": [], "time": []}}, "mouseout": {"state": {"target": ["5", "9", "9", "4", "5", "8"], "time": [772, 965, 1357, 3182, 3515, 4249]}, "edge": {"target": [], "time": []}}}, "displayed_time": "11.05", "trialTime": 11407, "trial_type": "mouselab-mdp", "trial_index": 79, "time_elapsed": 1420778, "internal_node_id": "0.0-4.0-5.0-2.0"}}, {"uniqueid": "w89499795:a97849231", "current_trial": 80, "dateTime": 1664465415913, "trialdata": {"revealed_states": [], "num_clicks_accrued": [0, 0, 0, 0, 0, 0, 0, 0, 0, 0, 0, 0, 0], "stateRewards": ["", 4, -8, 48, -24, -4, 4, 24, 24, -2, -4, 24, 24], "withholdReward": true, "trial_id": "mdp_542168715839", "block": "test3", "trialIndex": 67, "score": 48.25, "costs": -0.75, "simulationMode": [null, null, null], "rewards": [4, -8, 48], "path": ["0", "0", "1", "2", "3"], "rt": [4675, 52, 87], "actions": ["up", "up", "right"], "actionTimes": [6727, 7302, 7951], "queries": {"click": {"state": {"target": ["8", "11", "3"], "time": [3033, 4080, 5456]}, "edge": {"target": [], "time": []}}, "mouseover": {"state": {"target": ["8", "1", "11", "10", "9", "1", "3", "2", "4"], "time": [2764, 3579, 3815, 4463, 4596, 4650, 5189, 5783, 5820]}, "edge": {"target": [], "time": []}}, "mouseout": {"state": {"target": ["10", "0", "8", "1", "11", "10", "9", "1", "3", "2", "4"], "time": [1132, 2198, 3430, 3602, 4396, 4564, 4620, 4671, 5755, 5817, 5846]}, "edge": {"target": [], "time": []}}}, "displayed_time": "11.05", "trialTime": 11397, "trial_type": "mouselab-mdp", "trial_index": 80, "time_elapsed": 1432585, "internal_node_id": "0.0-4.0-5.0-3.0"}}, {"uniqueid": "w89499795:a97849231", "current_trial": 81, "dateTime": 1664465439812, "trialdata": {"revealed_states": [], "num_clicks_accrued": [0, 0, 0, 0, 0, 0, 0, 0, 0, 0, 0, 0, 0], "stateRewards": ["", -4, -4, 24, -48, 2, 4, -24, -48, -2, -8, -24, 24], "withholdReward": true, "trial_id": "mdp_565569130486", "block": "test3", "trialIndex": 68, "score": 18.5, "costs": -2.5, "simulationMode": [null, null, null], "rewards": [-4, -4, 24], "path": ["0", "0", "1", "2", "3"], "rt": [17868, 73, 101], "actions": ["up", "up", "right"], "actionTimes": [20665, 21239, 21846], "queries": {"click": {"state": {"target": ["3", "11", "8", "7", "4", "12", "1", "9", "2", "10"], "time": [3731, 4831, 5776, 6648, 7597, 8583, 12309, 13056, 16694, 17673]}, "edge": {"target": [], "time": []}}, "mouseover": {"state": {"target": ["5", "3", "2", "4", "11", "10", "8", "8", "7", "2", "4", "10", "12", "0", "1", "2", "1", "9", "2", "2", "10"], "time": [3142, 3491, 4106, 4258, 4474, 5176, 5257, 5457, 6400, 7158, 7391, 8043, 8291, 10458, 10674, 10795, 11774, 12740, 16107, 16331, 17307]}, "edge": {"target": [], "time": []}}, "mouseout": {"state": {"target": ["6", "5", "5", "3", "2", "4", "11", "10", "8", "8", "7", "2", "4", "10", "12", "0", "1", "2", "1", "9", "9", "1", "3", "2", "2", "10"], "time": [1023, 1045, 3176, 4058, 4149, 4391, 5107, 5203, 5281, 6115, 6958, 7258, 7874, 8157, 9040, 10491, 10740, 11558, 12507, 14507, 15824, 15857, 16074, 16139, 16878, 17880]}, "edge": {"target": [], "time": []}}}, "displayed_time": "22.34", "trialTime": 23406, "trial_type": "mouselab-mdp", "trial_index": 81, "time_elapsed": 1456483, "internal_node_id": "0.0-4.0-5.0-4.0"}}, {"uniqueid": "w89499795:a97849231", "current_trial": 82, "dateTime": 1664465450712, "trialdata": {"revealed_states": [], "num_clicks_accrued": [0, 0, 0, 0, 0, 0, 0, 0, 0, 0, 0, 0, 0], "stateRewards": ["", -4, 4, 48, 24, -4, 4, -24, 48, -2, -8, 24, -48], "withholdReward": true, "trial_id": "mdp_261501605436", "block": "test3", "trialIndex": 69, "score": 52, "costs": -1, "simulationMode": [null, null, null], "rewards": [-4, 4, 48], "path": ["0", "0", "5", "6", "8"], "rt": [6021, 68, 313], "actions": ["right", "right", "down"], "actionTimes": [7739, 8321, 9130], "queries": {"click": {"state": {"target": ["7", "4", "11", "8"], "time": [2733, 3482, 4586, 6247]}, "edge": {"target": [], "time": []}}, "mouseover": {"state": {"target": ["5", "7", "2", "4", "11", "11", "10", "12", "8", "9"], "time": [2230, 2430, 3096, 3214, 3862, 4298, 4781, 4946, 5946, 6713]}, "edge": {"target": [], "time": []}}, "mouseout": {"state": {"target": ["12", "0", "5", "7", "2", "4", "11", "11", "10", "12", "8", "9", "11"], "time": [731, 2195, 2263, 2897, 3146, 3714, 4014, 4749, 4913, 5597, 6388, 6738, 6846]}, "edge": {"target": [], "time": []}}}, "displayed_time": "9.72", "trialTime": 10413, "trial_type": "mouselab-mdp", "trial_index": 82, "time_elapsed": 1467384, "internal_node_id": "0.0-4.0-5.0-5.0"}}, {"uniqueid": "w89499795:a97849231", "current_trial": 83, "dateTime": 1664465461281, "trialdata": {"revealed_states": [], "num_clicks_accrued": [0, 0, 0, 0, 0, 0, 0, 0, 0, 0, 0, 0, 0], "stateRewards": ["", -4, -8, 48, -24, 4, -8, 48, 48, -2, 4, -48, -24], "withholdReward": false, "trial_id": "mdp_925905402462", "block": "test3", "trialIndex": 70, "score": 48.75, "costs": -0.25, "simulationMode": [null, null, null], "rewards": [4, -8, 48], "path": ["0", "0", "5", "6", "8"], "rt": [2256, 127, 98], "actions": ["right", "right", "down"], "actionTimes": [4058, 4695, 5298], "queries": {"click": {"state": {"target": ["8"], "time": [2821]}, "edge": {"target": [], "time": []}}, "mouseover": {"state": {"target": ["8", "0"], "time": [2496, 3328]}, "edge": {"target": [], "time": []}}, "mouseout": {"state": {"target": ["9", "0", "8", "0"], "time": [994, 2163, 3209, 3389]}, "edge": {"target": [], "time": []}}}, "displayed_time": "9.80", "trialTime": 10098, "trial_type": "mouselab-mdp", "trial_index": 83, "time_elapsed": 1477952, "internal_node_id": "0.0-4.0-5.0-6.0"}}, {"uniqueid": "w89499795:a97849231", "current_trial": 84, "dateTime": 1664465472965, "trialdata": {"revealed_states": [], "num_clicks_accrued": [0, 0, 0, 0, 0, 0, 0, 0, 0, 0, 0, 0, 0], "stateRewards": ["", 4, 4, 48, -48, -2, -8, -48, -24, 2, 4, -24, -48], "withholdReward": true, "trial_id": "mdp_239929662917", "block": "test3", "trialIndex": 71, "score": 60.25, "costs": -0.75, "simulationMode": [null, null, null], "rewards": [4, 4, 48], "path": ["0", "0", "1", "2", "3"], "rt": [4848, 11, 1449], "actions": ["up", "up", "right"], "actionTimes": [6650, 7159, 9197], "queries": {"click": {"state": {"target": ["8", "4", "3"], "time": [2792, 4308, 5414]}, "edge": {"target": [], "time": []}}, "mouseover": {"state": {"target": ["5", "8", "2", "4", "4", "2", "3"], "time": [2226, 2441, 3491, 3774, 4030, 5057, 5115]}, "edge": {"target": [], "time": []}}, "mouseout": {"state": {"target": ["6", "7", "5", "8", "2", "4", "4", "2", "3", "3"], "time": [656, 906, 2258, 3142, 3543, 3809, 4725, 5091, 5607, 5775]}, "edge": {"target": [], "time": []}}}, "displayed_time": "9.80", "trialTime": 11245, "trial_type": "mouselab-mdp", "trial_index": 84, "time_elapsed": 1489636, "internal_node_id": "0.0-4.0-5.0-7.0"}}, {"uniqueid": "w89499795:a97849231", "current_trial": 85, "dateTime": 1664465493755, "trialdata": {"revealed_states": [], "num_clicks_accrued": [0, 0, 0, 0, 0, 0, 0, 0, 0, 0, 0, 0, 0], "stateRewards": ["", 2, 4, -48, -24, -4, 4, -24, 24, -2, -8, -24, 24], "withholdReward": true, "trial_id": "mdp_640720803523", "block": "test3", "trialIndex": 72, "score": 26.5, "costs": -2.5, "simulationMode": [null, null, null], "rewards": [-4, 4, 24], "path": ["0", "0", "5", "6", "8"], "rt": [14294, 179, 511], "actions": ["right", "right", "down"], "actionTimes": [16628, 17298, 18480], "queries": {"click": {"state": {"target": ["3", "4", "11", "7", "8", "12", "5", "9", "10", "6"], "time": [3464, 4665, 5734, 6966, 7737, 8740, 11656, 12628, 13605, 14466]}, "edge": {"target": [], "time": []}}, "mouseover": {"state": {"target": ["1", "3", "11", "11", "2", "4", "11", "10", "12", "5", "7", "6", "8", "12", "5", "9", "10", "6"], "time": [2866, 3132, 3799, 4005, 4058, 4281, 5516, 6032, 6282, 6433, 6698, 7265, 7498, 8434, 10878, 12314, 13317, 14148]}, "edge": {"target": [], "time": []}}, "mouseout": {"state": {"target": ["11", "1", "1", "3", "11", "11", "2", "4", "11", "10", "12", "5", "7", "6", "8", "12", "5", "9", "10", "6"], "time": [1181, 1216, 2983, 3750, 3832, 4034, 4249, 4932, 5952, 6115, 6365, 6457, 7165, 7332, 7949, 10616, 12016, 12851, 13898, 14633]}, "edge": {"target": [], "time": []}}}, "displayed_time": "19.08", "trialTime": 20043, "trial_type": "mouselab-mdp", "trial_index": 85, "time_elapsed": 1510426, "internal_node_id": "0.0-4.0-5.0-8.0"}}, {"uniqueid": "w89499795:a97849231", "current_trial": 86, "dateTime": 1664465504689, "trialdata": {"revealed_states": [], "num_clicks_accrued": [0, 0, 0, 0, 0, 0, 0, 0, 0, 0, 0, 0, 0], "stateRewards": ["", -2, 8, 48, 48, 4, -8, -48, 48, 2, -4, -48, 48], "withholdReward": true, "trial_id": "mdp_132958048709", "block": "test3", "trialIndex": 73, "score": 48.75, "costs": -0.25, "simulationMode": [null, null, null], "rewards": [4, -8, 48], "path": ["0", "0", "5", "6", "8"], "rt": [2693, 213, 116], "actions": ["right", "right", "down"], "actionTimes": [4820, 5540, 6160], "queries": {"click": {"state": {"target": ["8"], "time": [3515]}, "edge": {"target": [], "time": []}}, "mouseover": {"state": {"target": ["8", "5", "0", "10"], "time": [3240, 3790, 3894, 3948]}, "edge": {"target": [], "time": []}}, "mouseout": {"state": {"target": ["0", "8", "5", "0", "10"], "time": [3024, 3741, 3891, 3922, 3975]}, "edge": {"target": [], "time": []}}}, "displayed_time": "10.13", "trialTime": 10486, "trial_type": "mouselab-mdp", "trial_index": 86, "time_elapsed": 1521360, "internal_node_id": "0.0-4.0-5.0-9.0"}}, {"uniqueid": "w89499795:a97849231", "current_trial": 87, "dateTime": 1664465516362, "trialdata": {"revealed_states": [], "num_clicks_accrued": [0, 0, 0, 0, 0, 0, 0, 0, 0, 0, 0, 0, 0], "stateRewards": ["", 2, 4, -24, -24, 4, 8, -48, 48, 2, 4, -24, -48], "withholdReward": false, "trial_id": "mdp_565165082781", "block": "test3", "trialIndex": 74, "score": 64.75, "costs": -0.25, "simulationMode": [null, null, null], "rewards": [4, 8, 48], "path": ["0", "0", "5", "6", "8"], "rt": [1950, 100, 113], "actions": ["right", "right", "down"], "actionTimes": [3844, 4463, 5093], "queries": {"click": {"state": {"target": ["8"], "time": [2652]}, "edge": {"target": [], "time": []}}, "mouseover": {"state": {"target": ["8"], "time": [2410]}, "edge": {"target": [], "time": []}}, "mouseout": 