{"condition": 0, "counterbalance": 0, "assignmentId": "a24117977", "workerId": "w97077823", "hitId": "h74869943", "currenttrial": 958, "bonus": 0, "data": [{"uniqueid": "w97077823:a24117977", "current_trial": 0, "dateTime": 1664368320222, "trialdata": {"success": true, "trial_type": "fullscreen", "trial_index": 0, "time_elapsed": 5521, "internal_node_id": "0.0-0.0"}}, {"uniqueid": "w97077823:a24117977", "current_trial": 1, "dateTime": 1664368336366, "trialdata": {"view_history": [{"page_index": 0, "viewing_time": 16139}], "rt": 16140, "trial_id": "exp_instructions_distractor", "trial_type": "instructions", "trial_index": 1, "time_elapsed": 21665, "internal_node_id": "0.0-1.0"}}, {"uniqueid": "w97077823:a24117977", "current_trial": 2, "dateTime": 1664368417944, "trialdata": {"view_history": [{"page_index": 0, "viewing_time": 81576}], "rt": 81577, "trial_id": "color_game_instructions", "trial_type": "instructions", "trial_index": 2, "time_elapsed": 103243, "internal_node_id": "0.0-2.0"}}, {"uniqueid": "w97077823:a24117977", "current_trial": 3, "dateTime": 1664368434899, "trialdata": {"rt": 16954, "stimulus": "<h1> Get ready to start the game! </h1>\n\nThank you for reading the instructions. Get ready start with the first of 5 block(s) of this game.\n<br><br>\nIn this first block, you will complete 90 rounds of this game before moving on.\n<br><br>\nRemember, the better you perform, the bigger your bonus will be!\n<br><br>\n<div style='text-align: center;'>Press <code>space</code> to begin.</div>", "response": " ", "trial_id": "stroop_1_ready_1", "trial_type": "html-keyboard-response", "trial_index": 3, "time_elapsed": 120198, "internal_node_id": "0.0-3.0"}}, {"uniqueid": "w97077823:a24117977", "current_trial": 4, "dateTime": 1664368436599, "trialdata": {"rt": 1696, "stimulus": "<p id='stroop-text' class='stroop-blue'>BOAT</p>", "response": "b", "stimulus-type": "unrelated", "word": "BOAT", "color": "blue", "correct_response": "b", "trial_id": "stroop-trial-1-unrelated-10", "trial_type": "html-keyboard-response", "trial_index": 4, "time_elapsed": 121897, "internal_node_id": "0.0-4.0-0.0"}}, {"uniqueid": "w97077823:a24117977", "current_trial": 5, "dateTime": 1664368438613, "trialdata": {"rt": 1511, "stimulus": "<p id='stroop-text' class='stroop-green'>GREEN</p>", "response": "g", "stimulus-type": "congruent", "word": "green", "color": "green", "correct_response": "g", "trial_id": "stroop-trial-1-congruent-27", "trial_type": "html-keyboard-response", "trial_index": 5, "time_elapsed": 123911, "internal_node_id": "0.0-4.0-1.0"}}, {"uniqueid": "w97077823:a24117977", "current_trial": 6, "dateTime": 1664368440272, "trialdata": {"rt": 1156, "stimulus": "<p id='stroop-text' class='stroop-red'>RED</p>", "response": "r", "stimulus-type": "congruent", "word": "red", "color": "red", "correct_response": "r", "trial_id": "stroop-trial-1-congruent-12", "trial_type": "html-keyboard-response", "trial_index": 6, "time_elapsed": 125570, "internal_node_id": "0.0-4.0-2.0"}}, {"uniqueid": "w97077823:a24117977", "current_trial": 7, "dateTime": 1664368442158, "trialdata": {"rt": 1384, "stimulus": "<p id='stroop-text' class='stroop-green'>GREEN</p>", "response": "g", "stimulus-type": "congruent", "word": "green", "color": "green", "correct_response": "g", "trial_id": "stroop-trial-1-congruent-9", "trial_type": "html-keyboard-response", "trial_index": 7, "time_elapsed": 127457, "internal_node_id": "0.0-4.0-3.0"}}, {"uniqueid": "w97077823:a24117977", "current_trial": 8, "dateTime": 1664368444496, "trialdata": {"rt": 1835, "stimulus": "<p id='stroop-text' class='stroop-blue'>YELLOW</p>", "response": "b", "stimulus-type": "incongruent", "word": "yellow", "color": "blue", "correct_response": "b", "trial_id": "stroop-trial-1-incongruent-4", "trial_type": "html-keyboard-response", "trial_index": 8, "time_elapsed": 129794, "internal_node_id": "0.0-4.0-4.0"}}, {"uniqueid": "w97077823:a24117977", "current_trial": 9, "dateTime": 1664368446270, "trialdata": {"rt": 1271, "stimulus": "<p id='stroop-text' class='stroop-green'>BOAT</p>", "response": "g", "stimulus-type": "unrelated", "word": "BOAT", "color": "green", "correct_response": "g", "trial_id": "stroop-trial-1-unrelated-3", "trial_type": "html-keyboard-response", "trial_index": 9, "time_elapsed": 131568, "internal_node_id": "0.0-4.0-5.0"}}, {"uniqueid": "w97077823:a24117977", "current_trial": 10, "dateTime": 1664368448136, "trialdata": {"rt": 1363, "stimulus": "<p id='stroop-text' class='stroop-red'>YELLOW</p>", "response": "r", "stimulus-type": "incongruent", "word": "yellow", "color": "red", "correct_response": "r", "trial_id": "stroop-trial-1-incongruent-2", "trial_type": "html-keyboard-response", "trial_index": 10, "time_elapsed": 133435, "internal_node_id": "0.0-4.0-6.0"}}, {"uniqueid": "w97077823:a24117977", "current_trial": 11, "dateTime": 1664368449643, "trialdata": {"rt": 1003, "stimulus": "<p id='stroop-text' class='stroop-red'>BRIDGE</p>", "response": "r", "stimulus-type": "unrelated", "word": "BRIDGE", "color": "red", "correct_response": "r", "trial_id": "stroop-trial-1-unrelated-9", "trial_type": "html-keyboard-response", "trial_index": 11, "time_elapsed": 134941, "internal_node_id": "0.0-4.0-7.0"}}, {"uniqueid": "w97077823:a24117977", "current_trial": 12, "dateTime": 1664368451626, "trialdata": {"rt": 1481, "stimulus": "<p id='stroop-text' class='stroop-green'>BOTTLE</p>", "response": "g", "stimulus-type": "unrelated", "word": "BOTTLE", "color": "green", "correct_response": "g", "trial_id": "stroop-trial-1-unrelated-2", "trial_type": "html-keyboard-response", "trial_index": 12, "time_elapsed": 136925, "internal_node_id": "0.0-4.0-8.0"}}, {"uniqueid": "w97077823:a24117977", "current_trial": 13, "dateTime": 1664368453149, "trialdata": {"rt": 1021, "stimulus": "<p id='stroop-text' class='stroop-yellow'>YELLOW</p>", "response": "y", "stimulus-type": "congruent", "word": "yellow", "color": "yellow", "correct_response": "y", "trial_id": "stroop-trial-1-congruent-1", "trial_type": "html-keyboard-response", "trial_index": 13, "time_elapsed": 138448, "internal_node_id": "0.0-4.0-9.0"}}, {"uniqueid": "w97077823:a24117977", "current_trial": 14, "dateTime": 1664368454737, "trialdata": {"rt": 1085, "stimulus": "<p id='stroop-text' class='stroop-yellow'>RED</p>", "response": "y", "stimulus-type": "incongruent", "word": "red", "color": "yellow", "correct_response": "y", "trial_id": "stroop-trial-1-incongruent-26", "trial_type": "html-keyboard-response", "trial_index": 14, "time_elapsed": 140036, "internal_node_id": "0.0-4.0-10.0"}}, {"uniqueid": "w97077823:a24117977", "current_trial": 15, "dateTime": 1664368456405, "trialdata": {"rt": 1164, "stimulus": "<p id='stroop-text' class='stroop-blue'>GREEN</p>", "response": "b", "stimulus-type": "incongruent", "word": "green", "color": "blue", "correct_response": "b", "trial_id": "stroop-trial-1-incongruent-25", "trial_type": "html-keyboard-response", "trial_index": 15, "time_elapsed": 141704, "internal_node_id": "0.0-4.0-11.0"}}, {"uniqueid": "w97077823:a24117977", "current_trial": 16, "dateTime": 1664368457613, "trialdata": {"rt": 706, "stimulus": "<p id='stroop-text' class='stroop-blue'>BOTTLE</p>", "response": "b", "stimulus-type": "unrelated", "word": "BOTTLE", "color": "blue", "correct_response": "b", "trial_id": "stroop-trial-1-unrelated-4", "trial_type": "html-keyboard-response", "trial_index": 16, "time_elapsed": 142912, "internal_node_id": "0.0-4.0-12.0"}}, {"uniqueid": "w97077823:a24117977", "current_trial": 17, "dateTime": 1664368458970, "trialdata": {"rt": 855, "stimulus": "<p id='stroop-text' class='stroop-yellow'>YELLOW</p>", "response": "y", "stimulus-type": "congruent", "word": "yellow", "color": "yellow", "correct_response": "y", "trial_id": "stroop-trial-1-congruent-4", "trial_type": "html-keyboard-response", "trial_index": 17, "time_elapsed": 144269, "internal_node_id": "0.0-4.0-13.0"}}, {"uniqueid": "w97077823:a24117977", "current_trial": 18, "dateTime": 1664368460556, "trialdata": {"rt": 1085, "stimulus": "<p id='stroop-text' class='stroop-blue'>FORK</p>", "response": "b", "stimulus-type": "unrelated", "word": "FORK", "color": "blue", "correct_response": "b", "trial_id": "stroop-trial-1-unrelated-7", "trial_type": "html-keyboard-response", "trial_index": 18, "time_elapsed": 145855, "internal_node_id": "0.0-4.0-14.0"}}, {"uniqueid": "w97077823:a24117977", "current_trial": 19, "dateTime": 1664368461653, "trialdata": {"rt": 595, "stimulus": "<p id='stroop-text' class='stroop-blue'>BRAIN</p>", "response": "b", "stimulus-type": "unrelated", "word": "BRAIN", "color": "blue", "correct_response": "b", "trial_id": "stroop-trial-1-unrelated-14", "trial_type": "html-keyboard-response", "trial_index": 19, "time_elapsed": 146952, "internal_node_id": "0.0-4.0-15.0"}}, {"uniqueid": "w97077823:a24117977", "current_trial": 20, "dateTime": 1664368463004, "trialdata": {"rt": 847, "stimulus": "<p id='stroop-text' class='stroop-yellow'>YELLOW</p>", "response": "y", "stimulus-type": "congruent", "word": "yellow", "color": "yellow", "correct_response": "y", "trial_id": "stroop-trial-1-congruent-26", "trial_type": "html-keyboard-response", "trial_index": 20, "time_elapsed": 148302, "internal_node_id": "0.0-4.0-16.0"}}, {"uniqueid": "w97077823:a24117977", "current_trial": 21, "dateTime": 1664368464390, "trialdata": {"rt": 884, "stimulus": "<p id='stroop-text' class='stroop-green'>BRIDGE</p>", "response": "b", "stimulus-type": "unrelated", "word": "BRIDGE", "color": "green", "correct_response": "g", "trial_id": "stroop-trial-1-unrelated-11", "trial_type": "html-keyboard-response", "trial_index": 21, "time_elapsed": 149689, "internal_node_id": "0.0-4.0-17.0"}}, {"uniqueid": "w97077823:a24117977", "current_trial": 22, "dateTime": 1664368466737, "trialdata": {"rt": 1843, "stimulus": "<p id='stroop-text' class='stroop-green'>RED</p>", "response": "b", "stimulus-type": "incongruent", "word": "red", "color": "green", "correct_response": "g", "trial_id": "stroop-trial-1-incongruent-3", "trial_type": "html-keyboard-response", "trial_index": 22, "time_elapsed": 152035, "internal_node_id": "0.0-4.0-18.0"}}, {"uniqueid": "w97077823:a24117977", "current_trial": 23, "dateTime": 1664368468556, "trialdata": {"rt": 1317, "stimulus": "<p id='stroop-text' class='stroop-blue'>DOG</p>", "response": "b", "stimulus-type": "unrelated", "word": "DOG", "color": "blue", "correct_response": "b", "trial_id": "stroop-trial-1-unrelated-8", "trial_type": "html-keyboard-response", "trial_index": 23, "time_elapsed": 153854, "internal_node_id": "0.0-4.0-19.0"}}, {"uniqueid": "w97077823:a24117977", "current_trial": 24, "dateTime": 1664368469763, "trialdata": {"rt": 704, "stimulus": "<p id='stroop-text' class='stroop-blue'>DOG</p>", "response": "b", "stimulus-type": "unrelated", "word": "DOG", "color": "blue", "correct_response": "b", "trial_id": "stroop-trial-1-unrelated-12", "trial_type": "html-keyboard-response", "trial_index": 24, "time_elapsed": 155062, "internal_node_id": "0.0-4.0-20.0"}}, {"uniqueid": "w97077823:a24117977", "current_trial": 25, "dateTime": 1664368471265, "trialdata": {"rt": 1000, "stimulus": "<p id='stroop-text' class='stroop-green'>GREEN</p>", "response": "g", "stimulus-type": "congruent", "word": "green", "color": "green", "correct_response": "g", "trial_id": "stroop-trial-1-congruent-20", "trial_type": "html-keyboard-response", "trial_index": 25, "time_elapsed": 156564, "internal_node_id": "0.0-4.0-21.0"}}, {"uniqueid": "w97077823:a24117977", "current_trial": 26, "dateTime": 1664368474251, "trialdata": {"rt": 2484, "stimulus": "<p id='stroop-text' class='stroop-red'>RED</p>", "response": "r", "stimulus-type": "congruent", "word": "red", "color": "red", "correct_response": "r", "trial_id": "stroop-trial-1-congruent-6", "trial_type": "html-keyboard-response", "trial_index": 26, "time_elapsed": 159550, "internal_node_id": "0.0-4.0-22.0"}}, {"uniqueid": "w97077823:a24117977", "current_trial": 27, "dateTime": 1664368475713, "trialdata": {"rt": 960, "stimulus": "<p id='stroop-text' class='stroop-yellow'>BOTTLE</p>", "response": "y", "stimulus-type": "unrelated", "word": "BOTTLE", "color": "yellow", "correct_response": "y", "trial_id": "stroop-trial-1-unrelated-22", "trial_type": "html-keyboard-response", "trial_index": 27, "time_elapsed": 161012, "internal_node_id": "0.0-4.0-23.0"}}, {"uniqueid": "w97077823:a24117977", "current_trial": 28, "dateTime": 1664368477283, "trialdata": {"rt": 1067, "stimulus": "<p id='stroop-text' class='stroop-yellow'>BLUE</p>", "response": "y", "stimulus-type": "incongruent", "word": "blue", "color": "yellow", "correct_response": "y", "trial_id": "stroop-trial-1-incongruent-29", "trial_type": "html-keyboard-response", "trial_index": 28, "time_elapsed": 162582, "internal_node_id": "0.0-4.0-24.0"}}, {"uniqueid": "w97077823:a24117977", "current_trial": 29, "dateTime": 1664368478650, "trialdata": {"rt": 864, "stimulus": "<p id='stroop-text' class='stroop-blue'>BRAIN</p>", "response": "b", "stimulus-type": "unrelated", "word": "BRAIN", "color": "blue", "correct_response": "b", "trial_id": "stroop-trial-1-unrelated-6", "trial_type": "html-keyboard-response", "trial_index": 29, "time_elapsed": 163948, "internal_node_id": "0.0-4.0-25.0"}}, {"uniqueid": "w97077823:a24117977", "current_trial": 30, "dateTime": 1664368479981, "trialdata": {"rt": 829, "stimulus": "<p id='stroop-text' class='stroop-red'>BLUE</p>", "response": "r", "stimulus-type": "incongruent", "word": "blue", "color": "red", "correct_response": "r", "trial_id": "stroop-trial-1-incongruent-30", "trial_type": "html-keyboard-response", "trial_index": 30, "time_elapsed": 165280, "internal_node_id": "0.0-4.0-26.0"}}, {"uniqueid": "w97077823:a24117977", "current_trial": 31, "dateTime": 1664368481323, "trialdata": {"rt": 840, "stimulus": "<p id='stroop-text' class='stroop-green'>YELLOW</p>", "response": "y", "stimulus-type": "incongruent", "word": "yellow", "color": "green", "correct_response": "g", "trial_id": "stroop-trial-1-incongruent-8", "trial_type": "html-keyboard-response", "trial_index": 31, "time_elapsed": 166621, "internal_node_id": "0.0-4.0-27.0"}}, {"uniqueid": "w97077823:a24117977", "current_trial": 32, "dateTime": 1664368483633, "trialdata": {"rt": 1808, "stimulus": "<p id='stroop-text' class='stroop-green'>GREEN</p>", "response": "g", "stimulus-type": "congruent", "word": "green", "color": "green", "correct_response": "g", "trial_id": "stroop-trial-1-congruent-28", "trial_type": "html-keyboard-response", "trial_index": 32, "time_elapsed": 168932, "internal_node_id": "0.0-4.0-28.0"}}, {"uniqueid": "w97077823:a24117977", "current_trial": 33, "dateTime": 1664368485009, "trialdata": {"rt": 873, "stimulus": "<p id='stroop-text' class='stroop-yellow'>YELLOW</p>", "response": "y", "stimulus-type": "congruent", "word": "yellow", "color": "yellow", "correct_response": "y", "trial_id": "stroop-trial-1-congruent-15", "trial_type": "html-keyboard-response", "trial_index": 33, "time_elapsed": 170308, "internal_node_id": "0.0-4.0-29.0"}}, {"uniqueid": "w97077823:a24117977", "current_trial": 34, "dateTime": 1664368486133, "trialdata": {"rt": 621, "stimulus": "<p id='stroop-text' class='stroop-yellow'>YELLOW</p>", "response": "y", "stimulus-type": "congruent", "word": "yellow", "color": "yellow", "correct_response": "y", "trial_id": "stroop-trial-1-congruent-19", "trial_type": "html-keyboard-response", "trial_index": 34, "time_elapsed": 171431, "internal_node_id": "0.0-4.0-30.0"}}, {"uniqueid": "w97077823:a24117977", "current_trial": 35, "dateTime": 1664368488337, "trialdata": {"rt": 1701, "stimulus": "<p id='stroop-text' class='stroop-red'>BLUE</p>", "response": "r", "stimulus-type": "incongruent", "word": "blue", "color": "red", "correct_response": "r", "trial_id": "stroop-trial-1-incongruent-13", "trial_type": "html-keyboard-response", "trial_index": 35, "time_elapsed": 173636, "internal_node_id": "0.0-4.0-31.0"}}, {"uniqueid": "w97077823:a24117977", "current_trial": 36, "dateTime": 1664368489868, "trialdata": {"rt": 1016, "stimulus": "<p id='stroop-text' class='stroop-yellow'>STONE</p>", "response": "y", "stimulus-type": "unrelated", "word": "STONE", "color": "yellow", "correct_response": "y", "trial_id": "stroop-trial-1-unrelated-27", "trial_type": "html-keyboard-response", "trial_index": 36, "time_elapsed": 175167, "internal_node_id": "0.0-4.0-32.0"}}, {"uniqueid": "w97077823:a24117977", "current_trial": 37, "dateTime": 1664368491742, "trialdata": {"rt": 1372, "stimulus": "<p id='stroop-text' class='stroop-blue'>RED</p>", "response": "b", "stimulus-type": "incongruent", "word": "red", "color": "blue", "correct_response": "b", "trial_id": "stroop-trial-1-incongruent-10", "trial_type": "html-keyboard-response", "trial_index": 37, "time_elapsed": 177041, "internal_node_id": "0.0-4.0-33.0"}}, {"uniqueid": "w97077823:a24117977", "current_trial": 38, "dateTime": 1664368493446, "trialdata": {"rt": 1202, "stimulus": "<p id='stroop-text' class='stroop-yellow'>GREEN</p>", "response": "g", "stimulus-type": "incongruent", "word": "green", "color": "yellow", "correct_response": "y", "trial_id": "stroop-trial-1-incongruent-18", "trial_type": "html-keyboard-response", "trial_index": 38, "time_elapsed": 178745, "internal_node_id": "0.0-4.0-34.0"}}, {"uniqueid": "w97077823:a24117977", "current_trial": 39, "dateTime": 1664368495089, "trialdata": {"rt": 1140, "stimulus": "<p id='stroop-text' class='stroop-blue'>YELLOW</p>", "response": "b", "stimulus-type": "incongruent", "word": "yellow", "color": "blue", "correct_response": "b", "trial_id": "stroop-trial-1-incongruent-22", "trial_type": "html-keyboard-response", "trial_index": 39, "time_elapsed": 180387, "internal_node_id": "0.0-4.0-35.0"}}, {"uniqueid": "w97077823:a24117977", "current_trial": 40, "dateTime": 1664368496476, "trialdata": {"rt": 884, "stimulus": "<p id='stroop-text' class='stroop-red'>CHAIR</p>", "response": "r", "stimulus-type": "unrelated", "word": "CHAIR", "color": "red", "correct_response": "r", "trial_id": "stroop-trial-1-unrelated-13", "trial_type": "html-keyboard-response", "trial_index": 40, "time_elapsed": 181775, "internal_node_id": "0.0-4.0-36.0"}}, {"uniqueid": "w97077823:a24117977", "current_trial": 41, "dateTime": 1664368498968, "trialdata": {"rt": 1988, "stimulus": "<p id='stroop-text' class='stroop-yellow'>STONE</p>", "response": "y", "stimulus-type": "unrelated", "word": "STONE", "color": "yellow", "correct_response": "y", "trial_id": "stroop-trial-1-unrelated-18", "trial_type": "html-keyboard-response", "trial_index": 41, "time_elapsed": 184267, "internal_node_id": "0.0-4.0-37.0"}}, {"uniqueid": "w97077823:a24117977", "current_trial": 42, "dateTime": 1664368500785, "trialdata": {"rt": 1314, "stimulus": "<p id='stroop-text' class='stroop-red'>RED</p>", "response": "r", "stimulus-type": "congruent", "word": "red", "color": "red", "correct_response": "r", "trial_id": "stroop-trial-1-congruent-2", "trial_type": "html-keyboard-response", "trial_index": 42, "time_elapsed": 186084, "internal_node_id": "0.0-4.0-38.0"}}, {"uniqueid": "w97077823:a24117977", "current_trial": 43, "dateTime": 1664368502409, "trialdata": {"rt": 1122, "stimulus": "<p id='stroop-text' class='stroop-green'>RED</p>", "response": "g", "stimulus-type": "incongruent", "word": "red", "color": "green", "correct_response": "g", "trial_id": "stroop-trial-1-incongruent-15", "trial_type": "html-keyboard-response", "trial_index": 43, "time_elapsed": 187708, "internal_node_id": "0.0-4.0-39.0"}}, {"uniqueid": "w97077823:a24117977", "current_trial": 44, "dateTime": 1664368504067, "trialdata": {"rt": 1155, "stimulus": "<p id='stroop-text' class='stroop-blue'>BOTTLE</p>", "response": "b", "stimulus-type": "unrelated", "word": "BOTTLE", "color": "blue", "correct_response": "b", "trial_id": "stroop-trial-1-unrelated-26", "trial_type": "html-keyboard-response", "trial_index": 44, "time_elapsed": 189365, "internal_node_id": "0.0-4.0-40.0"}}, {"uniqueid": "w97077823:a24117977", "current_trial": 45, "dateTime": 1664368505983, "trialdata": {"rt": 1413, "stimulus": "<p id='stroop-text' class='stroop-blue'>RED</p>", "response": "r", "stimulus-type": "incongruent", "word": "red", "color": "blue", "correct_response": "b", "trial_id": "stroop-trial-1-incongruent-28", "trial_type": "html-keyboard-response", "trial_index": 45, "time_elapsed": 191282, "internal_node_id": "0.0-4.0-41.0"}}, {"uniqueid": "w97077823:a24117977", "current_trial": 46, "dateTime": 1664368510081, "trialdata": {"rt": 3580, "stimulus": "<p id='stroop-text' class='stroop-blue'>BLUE</p>", "response": "y", "stimulus-type": "congruent", "word": "blue", "color": "blue", "correct_response": "b", "trial_id": "stroop-trial-1-congruent-3", "trial_type": "html-keyboard-response", "trial_index": 46, "time_elapsed": 195379, "internal_node_id": "0.0-4.0-42.0"}}, {"uniqueid": "w97077823:a24117977", "current_trial": 47, "dateTime": 1664368512600, "trialdata": {"rt": 2016, "stimulus": "<p id='stroop-text' class='stroop-red'>YELLOW</p>", "response": "r", "stimulus-type": "incongruent", "word": "yellow", "color": "red", "correct_response": "r", "trial_id": "stroop-trial-1-incongruent-6", "trial_type": "html-keyboard-response", "trial_index": 47, "time_elapsed": 197899, "internal_node_id": "0.0-4.0-43.0"}}, {"uniqueid": "w97077823:a24117977", "current_trial": 48, "dateTime": 1664368514185, "trialdata": {"rt": 1083, "stimulus": "<p id='stroop-text' class='stroop-green'>GREEN</p>", "response": "g", "stimulus-type": "congruent", "word": "green", "color": "green", "correct_response": "g", "trial_id": "stroop-trial-1-congruent-7", "trial_type": "html-keyboard-response", "trial_index": 48, "time_elapsed": 199484, "internal_node_id": "0.0-4.0-44.0"}}, {"uniqueid": "w97077823:a24117977", "current_trial": 49, "dateTime": 1664368515581, "trialdata": {"rt": 892, "stimulus": "<p id='stroop-text' class='stroop-blue'>BLUE</p>", "response": "b", "stimulus-type": "congruent", "word": "blue", "color": "blue", "correct_response": "b", "trial_id": "stroop-trial-1-congruent-5", "trial_type": "html-keyboard-response", "trial_index": 49, "time_elapsed": 200879, "internal_node_id": "0.0-4.0-45.0"}}, {"uniqueid": "w97077823:a24117977", "current_trial": 50, "dateTime": 1664368517747, "trialdata": {"rt": 1663, "stimulus": "<p id='stroop-text' class='stroop-yellow'>GREEN</p>", "response": "y", "stimulus-type": "incongruent", "word": "green", "color": "yellow", "correct_response": "y", "trial_id": "stroop-trial-1-incongruent-9", "trial_type": "html-keyboard-response", "trial_index": 50, "time_elapsed": 203045, "internal_node_id": "0.0-4.0-46.0"}}, {"uniqueid": "w97077823:a24117977", "current_trial": 51, "dateTime": 1664368518986, "trialdata": {"rt": 736, "stimulus": "<p id='stroop-text' class='stroop-red'>RED</p>", "response": "r", "stimulus-type": "congruent", "word": "red", "color": "red", "correct_response": "r", "trial_id": "stroop-trial-1-congruent-13", "trial_type": "html-keyboard-response", "trial_index": 51, "time_elapsed": 204284, "internal_node_id": "0.0-4.0-47.0"}}, {"uniqueid": "w97077823:a24117977", "current_trial": 52, "dateTime": 1664368520122, "trialdata": {"rt": 622, "stimulus": "<p id='stroop-text' class='stroop-yellow'>BOAT</p>", "response": "y", "stimulus-type": "unrelated", "word": "BOAT", "color": "yellow", "correct_response": "y", "trial_id": "stroop-trial-1-unrelated-28", "trial_type": "html-keyboard-response", "trial_index": 52, "time_elapsed": 205421, "internal_node_id": "0.0-4.0-48.0"}}, {"uniqueid": "w97077823:a24117977", "current_trial": 53, "dateTime": 1664368521287, "trialdata": {"rt": 662, "stimulus": "<p id='stroop-text' class='stroop-yellow'>BRAIN</p>", "response": "y", "stimulus-type": "unrelated", "word": "BRAIN", "color": "yellow", "correct_response": "y", "trial_id": "stroop-trial-1-unrelated-1", "trial_type": "html-keyboard-response", "trial_index": 53, "time_elapsed": 206585, "internal_node_id": "0.0-4.0-49.0"}}, {"uniqueid": "w97077823:a24117977", "current_trial": 54, "dateTime": 1664368523125, "trialdata": {"rt": 1336, "stimulus": "<p id='stroop-text' class='stroop-red'>BLUE</p>", "response": "r", "stimulus-type": "incongruent", "word": "blue", "color": "red", "correct_response": "r", "trial_id": "stroop-trial-1-incongruent-17", "trial_type": "html-keyboard-response", "trial_index": 54, "time_elapsed": 208424, "internal_node_id": "0.0-4.0-50.0"}}, {"uniqueid": "w97077823:a24117977", "current_trial": 55, "dateTime": 1664368524825, "trialdata": {"rt": 1198, "stimulus": "<p id='stroop-text' class='stroop-blue'>WINDOW</p>", "response": "b", "stimulus-type": "unrelated", "word": "WINDOW", "color": "blue", "correct_response": "b", "trial_id": "stroop-trial-1-unrelated-29", "trial_type": "html-keyboard-response", "trial_index": 55, "time_elapsed": 210124, "internal_node_id": "0.0-4.0-51.0"}}, {"uniqueid": "w97077823:a24117977", "current_trial": 56, "dateTime": 1664368526243, "trialdata": {"rt": 914, "stimulus": "<p id='stroop-text' class='stroop-green'>GREEN</p>", "response": "g", "stimulus-type": "congruent", "word": "green", "color": "green", "correct_response": "g", "trial_id": "stroop-trial-1-congruent-16", "trial_type": "html-keyboard-response", "trial_index": 56, "time_elapsed": 211541, "internal_node_id": "0.0-4.0-52.0"}}, {"uniqueid": "w97077823:a24117977", "current_trial": 57, "dateTime": 1664368527404, "trialdata": {"rt": 657, "stimulus": "<p id='stroop-text' class='stroop-green'>BOAT</p>", "response": "g", "stimulus-type": "unrelated", "word": "BOAT", "color": "green", "correct_response": "g", "trial_id": "stroop-trial-1-unrelated-15", "trial_type": "html-keyboard-response", "trial_index": 57, "time_elapsed": 212702, "internal_node_id": "0.0-4.0-53.0"}}, {"uniqueid": "w97077823:a24117977", "current_trial": 58, "dateTime": 1664368528658, "trialdata": {"rt": 752, "stimulus": "<p id='stroop-text' class='stroop-red'>SHIP</p>", "response": "r", "stimulus-type": "unrelated", "word": "SHIP", "color": "red", "correct_response": "r", "trial_id": "stroop-trial-1-unrelated-17", "trial_type": "html-keyboard-response", "trial_index": 58, "time_elapsed": 213957, "internal_node_id": "0.0-4.0-54.0"}}, {"uniqueid": "w97077823:a24117977", "current_trial": 59, "dateTime": 1664368530623, "trialdata": {"rt": 1462, "stimulus": "<p id='stroop-text' class='stroop-yellow'>BLUE</p>", "response": "y", "stimulus-type": "incongruent", "word": "blue", "color": "yellow", "correct_response": "y", "trial_id": "stroop-trial-1-incongruent-20", "trial_type": "html-keyboard-response", "trial_index": 59, "time_elapsed": 215921, "internal_node_id": "0.0-4.0-55.0"}}, {"uniqueid": "w97077823:a24117977", "current_trial": 60, "dateTime": 1664368531726, "trialdata": {"rt": 600, "stimulus": "<p id='stroop-text' class='stroop-yellow'>YELLOW</p>", "response": "y", "stimulus-type": "congruent", "word": "yellow", "color": "yellow", "correct_response": "y", "trial_id": "stroop-trial-1-congruent-8", "trial_type": "html-keyboard-response", "trial_index": 60, "time_elapsed": 217025, "internal_node_id": "0.0-4.0-56.0"}}, {"uniqueid": "w97077823:a24117977", "current_trial": 61, "dateTime": 1664368533173, "trialdata": {"rt": 945, "stimulus": "<p id='stroop-text' class='stroop-green'>BOAT</p>", "response": "b", "stimulus-type": "unrelated", "word": "BOAT", "color": "green", "correct_response": "g", "trial_id": "stroop-trial-1-unrelated-20", "trial_type": "html-keyboard-response", "trial_index": 61, "time_elapsed": 218472, "internal_node_id": "0.0-4.0-57.0"}}, {"uniqueid": "w97077823:a24117977", "current_trial": 62, "dateTime": 1664368534879, "trialdata": {"rt": 1202, "stimulus": "<p id='stroop-text' class='stroop-yellow'>YELLOW</p>", "response": "y", "stimulus-type": "congruent", "word": "yellow", "color": "yellow", "correct_response": "y", "trial_id": "stroop-trial-1-congruent-17", "trial_type": "html-keyboard-response", "trial_index": 62, "time_elapsed": 220178, "internal_node_id": "0.0-4.0-58.0"}}, {"uniqueid": "w97077823:a24117977", "current_trial": 63, "dateTime": 1664368535933, "trialdata": {"rt": 551, "stimulus": "<p id='stroop-text' class='stroop-red'>RED</p>", "response": "r", "stimulus-type": "congruent", "word": "red", "color": "red", "correct_response": "r", "trial_id": "stroop-trial-1-congruent-14", "trial_type": "html-keyboard-response", "trial_index": 63, "time_elapsed": 221232, "internal_node_id": "0.0-4.0-59.0"}}, {"uniqueid": "w97077823:a24117977", "current_trial": 64, "dateTime": 1664368537812, "trialdata": {"rt": 1376, "stimulus": "<p id='stroop-text' class='stroop-yellow'>BLUE</p>", "response": "b", "stimulus-type": "incongruent", "word": "blue", "color": "yellow", "correct_response": "y", "trial_id": "stroop-trial-1-incongruent-11", "trial_type": "html-keyboard-response", "trial_index": 64, "time_elapsed": 223111, "internal_node_id": "0.0-4.0-60.0"}}, {"uniqueid": "w97077823:a24117977", "current_trial": 65, "dateTime": 1664368539461, "trialdata": {"rt": 1146, "stimulus": "<p id='stroop-text' class='stroop-yellow'>YELLOW</p>", "response": "y", "stimulus-type": "congruent", "word": "yellow", "color": "yellow", "correct_response": "y", "trial_id": "stroop-trial-1-congruent-18", "trial_type": "html-keyboard-response", "trial_index": 65, "time_elapsed": 224760, "internal_node_id": "0.0-4.0-61.0"}}, {"uniqueid": "w97077823:a24117977", "current_trial": 66, "dateTime": 1664368540553, "trialdata": {"rt": 590, "stimulus": "<p id='stroop-text' class='stroop-red'>BLUE</p>", "response": "r", "stimulus-type": "incongruent", "word": "blue", "color": "red", "correct_response": "r", "trial_id": "stroop-trial-1-incongruent-5", "trial_type": "html-keyboard-response", "trial_index": 66, "time_elapsed": 225852, "internal_node_id": "0.0-4.0-62.0"}}, {"uniqueid": "w97077823:a24117977", "current_trial": 67, "dateTime": 1664368542514, "trialdata": {"rt": 1458, "stimulus": "<p id='stroop-text' class='stroop-blue'>BLUE</p>", "response": "b", "stimulus-type": "congruent", "word": "blue", "color": "blue", "correct_response": "b", "trial_id": "stroop-trial-1-congruent-10", "trial_type": "html-keyboard-response", "trial_index": 67, "time_elapsed": 227812, "internal_node_id": "0.0-4.0-63.0"}}, {"uniqueid": "w97077823:a24117977", "current_trial": 68, "dateTime": 1664368543781, "trialdata": {"rt": 764, "stimulus": "<p id='stroop-text' class='stroop-red'>FORK</p>", "response": "r", "stimulus-type": "unrelated", "word": "FORK", "color": "red", "correct_response": "r", "trial_id": "stroop-trial-1-unrelated-25", "trial_type": "html-keyboard-response", "trial_index": 68, "time_elapsed": 229079, "internal_node_id": "0.0-4.0-64.0"}}, {"uniqueid": "w97077823:a24117977", "current_trial": 69, "dateTime": 1664368545009, "trialdata": {"rt": 725, "stimulus": "<p id='stroop-text' class='stroop-yellow'>BLUE</p>", "response": "y", "stimulus-type": "incongruent", "word": "blue", "color": "yellow", "correct_response": "y", "trial_id": "stroop-trial-1-incongruent-1", "trial_type": "html-keyboard-response", "trial_index": 69, "time_elapsed": 230308, "internal_node_id": "0.0-4.0-65.0"}}, {"uniqueid": "w97077823:a24117977", "current_trial": 70, "dateTime": 1664368546149, "trialdata": {"rt": 637, "stimulus": "<p id='stroop-text' class='stroop-blue'>BOAT</p>", "response": "b", "stimulus-type": "unrelated", "word": "BOAT", "color": "blue", "correct_response": "b", "trial_id": "stroop-trial-1-unrelated-21", "trial_type": "html-keyboard-response", "trial_index": 70, "time_elapsed": 231448, "internal_node_id": "0.0-4.0-66.0"}}, {"uniqueid": "w97077823:a24117977", "current_trial": 71, "dateTime": 1664368547753, "trialdata": {"rt": 1101, "stimulus": "<p id='stroop-text' class='stroop-yellow'>RED</p>", "response": "y", "stimulus-type": "incongruent", "word": "red", "color": "yellow", "correct_response": "y", "trial_id": "stroop-trial-1-incongruent-27", "trial_type": "html-keyboard-response", "trial_index": 71, "time_elapsed": 233052, "internal_node_id": "0.0-4.0-67.0"}}, {"uniqueid": "w97077823:a24117977", "current_trial": 72, "dateTime": 1664368550190, "trialdata": {"rt": 1934, "stimulus": "<p id='stroop-text' class='stroop-red'>STONE</p>", "response": "b", "stimulus-type": "unrelated", "word": "STONE", "color": "red", "correct_response": "r", "trial_id": "stroop-trial-1-unrelated-19", "trial_type": "html-keyboard-response", "trial_index": 72, "time_elapsed": 235489, "internal_node_id": "0.0-4.0-68.0"}}, {"uniqueid": "w97077823:a24117977", "current_trial": 73, "dateTime": 1664368551651, "trialdata": {"rt": 958, "stimulus": "<p id='stroop-text' class='stroop-green'>GREEN</p>", "response": "g", "stimulus-type": "congruent", "word": "green", "color": "green", "correct_response": "g", "trial_id": "stroop-trial-1-congruent-23", "trial_type": "html-keyboard-response", "trial_index": 73, "time_elapsed": 236950, "internal_node_id": "0.0-4.0-69.0"}}, {"uniqueid": "w97077823:a24117977", "current_trial": 74, "dateTime": 1664368553944, "trialdata": {"rt": 1790, "stimulus": "<p id='stroop-text' class='stroop-red'>BOTTLE</p>", "response": "r", "stimulus-type": "unrelated", "word": "BOTTLE", "color": "red", "correct_response": "r", "trial_id": "stroop-trial-1-unrelated-30", "trial_type": "html-keyboard-response", "trial_index": 74, "time_elapsed": 239242, "internal_node_id": "0.0-4.0-70.0"}}, {"uniqueid": "w97077823:a24117977", "current_trial": 75, "dateTime": 1664368555526, "trialdata": {"rt": 1079, "stimulus": "<p id='stroop-text' class='stroop-red'>YELLOW</p>", "response": "r", "stimulus-type": "incongruent", "word": "yellow", "color": "red", "correct_response": "r", "trial_id": "stroop-trial-1-incongruent-14", "trial_type": "html-keyboard-response", "trial_index": 75, "time_elapsed": 240824, "internal_node_id": "0.0-4.0-71.0"}}, {"uniqueid": "w97077823:a24117977", "current_trial": 76, "dateTime": 1664368557041, "trialdata": {"rt": 1012, "stimulus": "<p id='stroop-text' class='stroop-blue'>BLUE</p>", "response": "b", "stimulus-type": "congruent", "word": "blue", "color": "blue", "correct_response": "b", "trial_id": "stroop-trial-1-congruent-30", "trial_type": "html-keyboard-response", "trial_index": 76, "time_elapsed": 242340, "internal_node_id": "0.0-4.0-72.0"}}, {"uniqueid": "w97077823:a24117977", "current_trial": 77, "dateTime": 1664368558301, "trialdata": {"rt": 758, "stimulus": "<p id='stroop-text' class='stroop-green'>YELLOW</p>", "response": "y", "stimulus-type": "incongruent", "word": "yellow", "color": "green", "correct_response": "g", "trial_id": "stroop-trial-1-incongruent-23", "trial_type": "html-keyboard-response", "trial_index": 77, "time_elapsed": 243600, "internal_node_id": "0.0-4.0-73.0"}}, {"uniqueid": "w97077823:a24117977", "current_trial": 78, "dateTime": 1664368560604, "trialdata": {"rt": 1800, "stimulus": "<p id='stroop-text' class='stroop-yellow'>MONKEY</p>", "response": "g", "stimulus-type": "unrelated", "word": "MONKEY", "color": "yellow", "correct_response": "y", "trial_id": "stroop-trial-1-unrelated-23", "trial_type": "html-keyboard-response", "trial_index": 78, "time_elapsed": 245903, "internal_node_id": "0.0-4.0-74.0"}}, {"uniqueid": "w97077823:a24117977", "current_trial": 79, "dateTime": 1664368562516, "trialdata": {"rt": 1399, "stimulus": "<p id='stroop-text' class='stroop-green'>GREEN</p>", "response": "g", "stimulus-type": "congruent", "word": "green", "color": "green", "correct_response": "g", "trial_id": "stroop-trial-1-congruent-25", "trial_type": "html-keyboard-response", "trial_index": 79, "time_elapsed": 247815, "internal_node_id": "0.0-4.0-75.0"}}, {"uniqueid": "w97077823:a24117977", "current_trial": 80, "dateTime": 1664368564105, "trialdata": {"rt": 1087, "stimulus": "<p id='stroop-text' class='stroop-yellow'>YELLOW</p>", "response": "y", "stimulus-type": "congruent", "word": "yellow", "color": "yellow", "correct_response": "y", "trial_id": "stroop-trial-1-congruent-24", "trial_type": "html-keyboard-response", "trial_index": 80, "time_elapsed": 249404, "internal_node_id": "0.0-4.0-76.0"}}, {"uniqueid": "w97077823:a24117977", "current_trial": 81, "dateTime": 1664368566328, "trialdata": {"rt": 1720, "stimulus": "<p id='stroop-text' class='stroop-red'>YELLOW</p>", "response": "r", "stimulus-type": "incongruent", "word": "yellow", "color": "red", "correct_response": "r", "trial_id": "stroop-trial-1-incongruent-12", "trial_type": "html-keyboard-response", "trial_index": 81, "time_elapsed": 251627, "internal_node_id": "0.0-4.0-77.0"}}, {"uniqueid": "w97077823:a24117977", "current_trial": 82, "dateTime": 1664368567652, "trialdata": {"rt": 822, "stimulus": "<p id='stroop-text' class='stroop-yellow'>YELLOW</p>", "response": "y", "stimulus-type": "congruent", "word": "yellow", "color": "yellow", "correct_response": "y", "trial_id": "stroop-trial-1-congruent-22", "trial_type": "html-keyboard-response", "trial_index": 82, "time_elapsed": 252951, "internal_node_id": "0.0-4.0-78.0"}}, {"uniqueid": "w97077823:a24117977", "current_trial": 83, "dateTime": 1664368571146, "trialdata": {"rt": 2992, "stimulus": "<p id='stroop-text' class='stroop-blue'>RED</p>", "response": "b", "stimulus-type": "incongruent", "word": "red", "color": "blue", "correct_response": "b", "trial_id": "stroop-trial-1-incongruent-24", "trial_type": "html-keyboard-response", "trial_index": 83, "time_elapsed": 256445, "internal_node_id": "0.0-4.0-79.0"}}, {"uniqueid": "w97077823:a24117977", "current_trial": 84, "dateTime": 1664368573129, "trialdata": {"rt": 1477, "stimulus": "<p id='stroop-text' class='stroop-red'>GREEN</p>", "response": "r", "stimulus-type": "incongruent", "word": "green", "color": "red", "correct_response": "r", "trial_id": "stroop-trial-1-incongruent-16", "trial_type": "html-keyboard-response", "trial_index": 84, "time_elapsed": 258428, "internal_node_id": "0.0-4.0-80.0"}}, {"uniqueid": "w97077823:a24117977", "current_trial": 85, "dateTime": 1664368574296, "trialdata": {"rt": 663, "stimulus": "<p id='stroop-text' class='stroop-yellow'>YELLOW</p>", "response": "y", "stimulus-type": "congruent", "word": "yellow", "color": "yellow", "correct_response": "y", "trial_id": "stroop-trial-1-congruent-29", "trial_type": "html-keyboard-response", "trial_index": 85, "time_elapsed": 259594, "internal_node_id": "0.0-4.0-81.0"}}, {"uniqueid": "w97077823:a24117977", "current_trial": 86, "dateTime": 1664368575785, "trialdata": {"rt": 986, "stimulus": "<p id='stroop-text' class='stroop-red'>BOAT</p>", "response": "b", "stimulus-type": "unrelated", "word": "BOAT", "color": "red", "correct_response": "r", "trial_id": "stroop-trial-1-unrelated-24", "trial_type": "html-keyboard-response", "trial_index": 86, "time_elapsed": 261083, "internal_node_id": "0.0-4.0-82.0"}}, {"uniqueid": "w97077823:a24117977", "current_trial": 87, "dateTime": 1664368577348, "trialdata": {"rt": 1059, "stimulus": "<p id='stroop-text' class='stroop-blue'>BLUE</p>", "response": "r", "stimulus-type": "congruent", "word": "blue", "color": "blue", "correct_response": "b", "trial_id": "stroop-trial-1-congruent-11", "trial_type": "html-keyboard-response", "trial_index": 87, "time_elapsed": 262647, "internal_node_id": "0.0-4.0-83.0"}}, {"uniqueid": "w97077823:a24117977", "current_trial": 88, "dateTime": 1664368579814, "trialdata": {"rt": 1963, "stimulus": "<p id='stroop-text' class='stroop-red'>YELLOW</p>", "response": "r", "stimulus-type": "incongruent", "word": "yellow", "color": "red", "correct_response": "r", "trial_id": "stroop-trial-1-incongruent-19", "trial_type": "html-keyboard-response", "trial_index": 88, "time_elapsed": 265113, "internal_node_id": "0.0-4.0-84.0"}}, {"uniqueid": "w97077823:a24117977", "current_trial": 89, "dateTime": 1664368581151, "trialdata": {"rt": 835, "stimulus": "<p id='stroop-text' class='stroop-red'>BRAIN</p>", "response": "r", "stimulus-type": "unrelated", "word": "BRAIN", "color": "red", "correct_response": "r", "trial_id": "stroop-trial-1-unrelated-5", "trial_type": "html-keyboard-response", "trial_index": 89, "time_elapsed": 266450, "internal_node_id": "0.0-4.0-85.0"}}, {"uniqueid": "w97077823:a24117977", "current_trial": 90, "dateTime": 1664368582699, "trialdata": {"rt": 1045, "stimulus": "<p id='stroop-text' class='stroop-yellow'>BRIDGE</p>", "response": "b", "stimulus-type": "unrelated", "word": "BRIDGE", "color": "yellow", "correct_response": "y", "trial_id": "stroop-trial-1-unrelated-16", "trial_type": "html-keyboard-response", "trial_index": 90, "time_elapsed": 267998, "internal_node_id": "0.0-4.0-86.0"}}, {"uniqueid": "w97077823:a24117977", "current_trial": 91, "dateTime": 1664368585489, "trialdata": {"rt": 2287, "stimulus": "<p id='stroop-text' class='stroop-red'>BLUE</p>", "response": "r", "stimulus-type": "incongruent", "word": "blue", "color": "red", "correct_response": "r", "trial_id": "stroop-trial-1-incongruent-21", "trial_type": "html-keyboard-response", "trial_index": 91, "time_elapsed": 270788, "internal_node_id": "0.0-4.0-87.0"}}, {"uniqueid": "w97077823:a24117977", "current_trial": 92, "dateTime": 1664368587124, "trialdata": {"rt": 1133, "stimulus": "<p id='stroop-text' class='stroop-red'>RED</p>", "response": "r", "stimulus-type": "congruent", "word": "red", "color": "red", "correct_response": "r", "trial_id": "stroop-trial-1-congruent-21", "trial_type": "html-keyboard-response", "trial_index": 92, "time_elapsed": 272423, "internal_node_id": "0.0-4.0-88.0"}}, {"uniqueid": "w97077823:a24117977", "current_trial": 93, "dateTime": 1664368588696, "trialdata": {"rt": 1068, "stimulus": "<p id='stroop-text' class='stroop-red'>YELLOW</p>", "response": "r", "stimulus-type": "incongruent", "word": "yellow", "color": "red", "correct_response": "r", "trial_id": "stroop-trial-1-incongruent-7", "trial_type": "html-keyboard-response", "trial_index": 93, "time_elapsed": 273995, "internal_node_id": "0.0-4.0-89.0"}}, {"uniqueid": "w97077823:a24117977", "current_trial": 94, "dateTime": 1664368662809, "trialdata": {"rt": 73610, "stimulus": "  <h1> End of block! </h1>\n\n  You have reached the end of the block 1/5. If you need a short break, feel free to take one now before moving on.\n\n  <br><br>\n  In the next block, you will complete another 90 rounds of this game.\n\n  <br><br>\n  <div style='text-align: center;'>Press <code>space</code> to begin.</div>\n  <br><br>\n<div style='text-align: center;'>(If the experiment doesn't continue, try clicking on the text and then pressing <code>space</code>.)</div>", "response": " ", "trial_id": "stroop_1_ready_2", "trial_type": "html-keyboard-response", "trial_index": 94, "time_elapsed": 348108, "internal_node_id": "0.0-5.0"}}, {"uniqueid": "w97077823:a24117977", "current_trial": 95, "dateTime": 1664368664372, "trialdata": {"rt": 1561, "stimulus": "<p id='stroop-text' class='stroop-yellow'>BLUE</p>", "response": "y", "stimulus-type": "incongruent", "word": "blue", "color": "yellow", "correct_response": "y", "trial_id": "stroop-trial-1-incongruent-25", "trial_type": "html-keyboard-response", "trial_index": 95, "time_elapsed": 349671, "internal_node_id": "0.0-6.0-0.0"}}, {"uniqueid": "w97077823:a24117977", "current_trial": 96, "dateTime": 1664368666390, "trialdata": {"rt": 1516, "stimulus": "<p id='stroop-text' class='stroop-blue'>GREEN</p>", "response": "g", "stimulus-type": "incongruent", "word": "green", "color": "blue", "correct_response": "b", "trial_id": "stroop-trial-1-incongruent-13", "trial_type": "html-keyboard-response", "trial_index": 96, "time_elapsed": 351688, "internal_node_id": "0.0-6.0-1.0"}}, {"uniqueid": "w97077823:a24117977", "current_trial": 97, "dateTime": 1664368667845, "trialdata": {"rt": 954, "stimulus": "<p id='stroop-text' class='stroop-yellow'>RED</p>", "response": "y", "stimulus-type": "incongruent", "word": "red", "color": "yellow", "correct_response": "y", "trial_id": "stroop-trial-1-incongruent-21", "trial_type": "html-keyboard-response", "trial_index": 97, "time_elapsed": 353144, "internal_node_id": "0.0-6.0-2.0"}}, {"uniqueid": "w97077823:a24117977", "current_trial": 98, "dateTime": 1664368669176, "trialdata": {"rt": 828, "stimulus": "<p id='stroop-text' class='stroop-yellow'>GREEN</p>", "response": "y", "stimulus-type": "incongruent", "word": "green", "color": "yellow", "correct_response": "y", "trial_id": "stroop-trial-1-incongruent-30", "trial_type": "html-keyboard-response", "trial_index": 98, "time_elapsed": 354475, "internal_node_id": "0.0-6.0-3.0"}}, {"uniqueid": "w97077823:a24117977", "current_trial": 99, "dateTime": 1664368671029, "trialdata": {"rt": 1348, "stimulus": "<p id='stroop-text' class='stroop-blue'>GREEN</p>", "response": "b", "stimulus-type": "incongruent", "word": "green", "color": "blue", "correct_response": "b", "trial_id": "stroop-trial-1-incongruent-10", "trial_type": "html-keyboard-response", "trial_index": 99, "time_elapsed": 356327, "internal_node_id": "0.0-6.0-4.0"}}, {"uniqueid": "w97077823:a24117977", "current_trial": 100, "dateTime": 1664368674960, "trialdata": {"rt": 3427, "stimulus": "<p id='stroop-text' class='stroop-green'>BRIDGE</p>", "response": "g", "stimulus-type": "unrelated", "word": "BRIDGE", "color": "green", "correct_response": "g", "trial_id": "stroop-trial-1-unrelated-12", "trial_type": "html-keyboard-response", "trial_index": 100, "time_elapsed": 360258, "internal_node_id": "0.0-6.0-5.0"}}, {"uniqueid": "w97077823:a24117977", "current_trial": 101, "dateTime": 1664368676776, "trialdata": {"rt": 1313, "stimulus": "<p id='stroop-text' class='stroop-blue'>SHIP</p>", "response": "b", "stimulus-type": "unrelated", "word": "SHIP", "color": "blue", "correct_response": "b", "trial_id": "stroop-trial-1-unrelated-14", "trial_type": "html-keyboard-response", "trial_index": 101, "time_elapsed": 362075, "internal_node_id": "0.0-6.0-6.0"}}, {"uniqueid": "w97077823:a24117977", "current_trial": 102, "dateTime": 1664368678688, "trialdata": {"rt": 1405, "stimulus": "<p id='stroop-text' class='stroop-yellow'>BRIDGE</p>", "response": "y", "stimulus-type": "unrelated", "word": "BRIDGE", "color": "yellow", "correct_response": "y", "trial_id": "stroop-trial-1-unrelated-4", "trial_type": "html-keyboard-response", "trial_index": 102, "time_elapsed": 363986, "internal_node_id": "0.0-6.0-7.0"}}, {"uniqueid": "w97077823:a24117977", "current_trial": 103, "dateTime": 1664368680337, "trialdata": {"rt": 1145, "stimulus": "<p id='stroop-text' class='stroop-blue'>BLUE</p>", "response": "b", "stimulus-type": "congruent", "word": "blue", "color": "blue", "correct_response": "b", "trial_id": "stroop-trial-1-congruent-1", "trial_type": "html-keyboard-response", "trial_index": 103, "time_elapsed": 365635, "internal_node_id": "0.0-6.0-8.0"}}, {"uniqueid": "w97077823:a24117977", "current_trial": 104, "dateTime": 1664368681683, "trialdata": {"rt": 844, "stimulus": "<p id='stroop-text' class='stroop-red'>DOG</p>", "response": "r", "stimulus-type": "unrelated", "word": "DOG", "color": "red", "correct_response": "r", "trial_id": "stroop-trial-1-unrelated-27", "trial_type": "html-keyboard-response", "trial_index": 104, "time_elapsed": 366982, "internal_node_id": "0.0-6.0-9.0"}}, {"uniqueid": "w97077823:a24117977", "current_trial": 105, "dateTime": 1664368682888, "trialdata": {"rt": 702, "stimulus": "<p id='stroop-text' class='stroop-red'>BOTTLE</p>", "response": "r", "stimulus-type": "unrelated", "word": "BOTTLE", "color": "red", "correct_response": "r", "trial_id": "stroop-trial-1-unrelated-7", "trial_type": "html-keyboard-response", "trial_index": 105, "time_elapsed": 368187, "internal_node_id": "0.0-6.0-10.0"}}, {"uniqueid": "w97077823:a24117977", "current_trial": 106, "dateTime": 1664368684735, "trialdata": {"rt": 1343, "stimulus": "<p id='stroop-text' class='stroop-blue'>RED</p>", "response": "b", "stimulus-type": "incongruent", "word": "red", "color": "blue", "correct_response": "b", "trial_id": "stroop-trial-1-incongruent-7", "trial_type": "html-keyboard-response", "trial_index": 106, "time_elapsed": 370034, "internal_node_id": "0.0-6.0-11.0"}}, {"uniqueid": "w97077823:a24117977", "current_trial": 107, "dateTime": 1664368686190, "trialdata": {"rt": 953, "stimulus": "<p id='stroop-text' class='stroop-blue'>RED</p>", "response": "b", "stimulus-type": "incongruent", "word": "red", "color": "blue", "correct_response": "b", "trial_id": "stroop-trial-1-incongruent-14", "trial_type": "html-keyboard-response", "trial_index": 107, "time_elapsed": 371488, "internal_node_id": "0.0-6.0-12.0"}}, {"uniqueid": "w97077823:a24117977", "current_trial": 108, "dateTime": 1664368687484, "trialdata": {"rt": 790, "stimulus": "<p id='stroop-text' class='stroop-yellow'>YELLOW</p>", "response": "y", "stimulus-type": "congruent", "word": "yellow", "color": "yellow", "correct_response": "y", "trial_id": "stroop-trial-1-congruent-22", "trial_type": "html-keyboard-response", "trial_index": 108, "time_elapsed": 372783, "internal_node_id": "0.0-6.0-13.0"}}, {"uniqueid": "w97077823:a24117977", "current_trial": 109, "dateTime": 1664368688703, "trialdata": {"rt": 715, "stimulus": "<p id='stroop-text' class='stroop-red'>RED</p>", "response": "r", "stimulus-type": "congruent", "word": "red", "color": "red", "correct_response": "r", "trial_id": "stroop-trial-1-congruent-29", "trial_type": "html-keyboard-response", "trial_index": 109, "time_elapsed": 374002, "internal_node_id": "0.0-6.0-14.0"}}, {"uniqueid": "w97077823:a24117977", "current_trial": 110, "dateTime": 1664368690850, "trialdata": {"rt": 1644, "stimulus": "<p id='stroop-text' class='stroop-blue'>WINDOW</p>", "response": "b", "stimulus-type": "unrelated", "word": "WINDOW", "color": "blue", "correct_response": "b", "trial_id": "stroop-trial-1-unrelated-2", "trial_type": "html-keyboard-response", "trial_index": 110, "time_elapsed": 376149, "internal_node_id": "0.0-6.0-15.0"}}, {"uniqueid": "w97077823:a24117977", "current_trial": 111, "dateTime": 1664368692328, "trialdata": {"rt": 975, "stimulus": "<p id='stroop-text' class='stroop-yellow'>YELLOW</p>", "response": "y", "stimulus-type": "congruent", "word": "yellow", "color": "yellow", "correct_response": "y", "trial_id": "stroop-trial-1-congruent-19", "trial_type": "html-keyboard-response", "trial_index": 111, "time_elapsed": 377627, "internal_node_id": "0.0-6.0-16.0"}}, {"uniqueid": "w97077823:a24117977", "current_trial": 112, "dateTime": 1664368693726, "trialdata": {"rt": 889, "stimulus": "<p id='stroop-text' class='stroop-red'>GREEN</p>", "response": "r", "stimulus-type": "incongruent", "word": "green", "color": "red", "correct_response": "r", "trial_id": "stroop-trial-1-incongruent-11", "trial_type": "html-keyboard-response", "trial_index": 112, "time_elapsed": 379024, "internal_node_id": "0.0-6.0-17.0"}}, {"uniqueid": "w97077823:a24117977", "current_trial": 113, "dateTime": 1664368695079, "trialdata": {"rt": 850, "stimulus": "<p id='stroop-text' class='stroop-blue'>RED</p>", "response": "b", "stimulus-type": "incongruent", "word": "red", "color": "blue", "correct_response": "b", "trial_id": "stroop-trial-1-incongruent-3", "trial_type": "html-keyboard-response", "trial_index": 113, "time_elapsed": 380378, "internal_node_id": "0.0-6.0-18.0"}}, {"uniqueid": "w97077823:a24117977", "current_trial": 114, "dateTime": 1664368696477, "trialdata": {"rt": 895, "stimulus": "<p id='stroop-text' class='stroop-red'>DOG</p>", "response": "r", "stimulus-type": "unrelated", "word": "DOG", "color": "red", "correct_response": "r", "trial_id": "stroop-trial-1-unrelated-25", "trial_type": "html-keyboard-response", "trial_index": 114, "time_elapsed": 381776, "internal_node_id": "0.0-6.0-19.0"}}, {"uniqueid": "w97077823:a24117977", "current_trial": 115, "dateTime": 1664368697667, "trialdata": {"rt": 687, "stimulus": "<p id='stroop-text' class='stroop-red'>GREEN</p>", "response": "r", "stimulus-type": "incongruent", "word": "green", "color": "red", "correct_response": "r", "trial_id": "stroop-trial-1-incongruent-17", "trial_type": "html-keyboard-response", "trial_index": 115, "time_elapsed": 382966, "internal_node_id": "0.0-6.0-20.0"}}, {"uniqueid": "w97077823:a24117977", "current_trial": 116, "dateTime": 1664368699091, "trialdata": {"rt": 921, "stimulus": "<p id='stroop-text' class='stroop-blue'>RED</p>", "response": "b", "stimulus-type": "incongruent", "word": "red", "color": "blue", "correct_response": "b", "trial_id": "stroop-trial-1-incongruent-24", "trial_type": "html-keyboard-response", "trial_index": 116, "time_elapsed": 384390, "internal_node_id": "0.0-6.0-21.0"}}, {"uniqueid": "w97077823:a24117977", "current_trial": 117, "dateTime": 1664368700136, "trialdata": {"rt": 542, "stimulus": "<p id='stroop-text' class='stroop-blue'>YELLOW</p>", "response": "b", "stimulus-type": "incongruent", "word": "yellow", "color": "blue", "correct_response": "b", "trial_id": "stroop-trial-1-incongruent-12", "trial_type": "html-keyboard-response", "trial_index": 117, "time_elapsed": 385435, "internal_node_id": "0.0-6.0-22.0"}}, {"uniqueid": "w97077823:a24117977", "current_trial": 118, "dateTime": 1664368701291, "trialdata": {"rt": 652, "stimulus": "<p id='stroop-text' class='stroop-green'>GREEN</p>", "response": "b", "stimulus-type": "congruent", "word": "green", "color": "green", "correct_response": "g", "trial_id": "stroop-trial-1-congruent-28", "trial_type": "html-keyboard-response", "trial_index": 118, "time_elapsed": 386590, "internal_node_id": "0.0-6.0-23.0"}}, {"uniqueid": "w97077823:a24117977", "current_trial": 119, "dateTime": 1664368702697, "trialdata": {"rt": 904, "stimulus": "<p id='stroop-text' class='stroop-green'>GREEN</p>", "response": "g", "stimulus-type": "congruent", "word": "green", "color": "green", "correct_response": "g", "trial_id": "stroop-trial-1-congruent-30", "trial_type": "html-keyboard-response", "trial_index": 119, "time_elapsed": 387996, "internal_node_id": "0.0-6.0-24.0"}}, {"uniqueid": "w97077823:a24117977", "current_trial": 120, "dateTime": 1664368704049, "trialdata": {"rt": 848, "stimulus": "<p id='stroop-text' class='stroop-red'>WINDOW</p>", "response": "r", "stimulus-type": "unrelated", "word": "WINDOW", "color": "red", "correct_response": "r", "trial_id": "stroop-trial-1-unrelated-30", "trial_type": "html-keyboard-response", "trial_index": 120, "time_elapsed": 389347, "internal_node_id": "0.0-6.0-25.0"}}, {"uniqueid": "w97077823:a24117977", "current_trial": 121, "dateTime": 1664368706086, "trialdata": {"rt": 1534, "stimulus": "<p id='stroop-text' class='stroop-green'>YELLOW</p>", "response": "g", "stimulus-type": "incongruent", "word": "yellow", "color": "green", "correct_response": "g", "trial_id": "stroop-trial-1-incongruent-15", "trial_type": "html-keyboard-response", "trial_index": 121, "time_elapsed": 391384, "internal_node_id": "0.0-6.0-26.0"}}, {"uniqueid": "w97077823:a24117977", "current_trial": 122, "dateTime": 1664368707207, "trialdata": {"rt": 619, "stimulus": "<p id='stroop-text' class='stroop-red'>RED</p>", "response": "r", "stimulus-type": "congruent", "word": "red", "color": "red", "correct_response": "r", "trial_id": "stroop-trial-1-congruent-8", "trial_type": "html-keyboard-response", "trial_index": 122, "time_elapsed": 392506, "internal_node_id": "0.0-6.0-27.0"}}, {"uniqueid": "w97077823:a24117977", "current_trial": 123, "dateTime": 1664368708209, "trialdata": {"rt": 489, "stimulus": "<p id='stroop-text' class='stroop-green'>GREEN</p>", "response": "g", "stimulus-type": "congruent", "word": "green", "color": "green", "correct_response": "g", "trial_id": "stroop-trial-1-congruent-4", "trial_type": "html-keyboard-response", "trial_index": 123, "time_elapsed": 393508, "internal_node_id": "0.0-6.0-28.0"}}, {"uniqueid": "w97077823:a24117977", "current_trial": 124, "dateTime": 1664368709979, "trialdata": {"rt": 1266, "stimulus": "<p id='stroop-text' class='stroop-yellow'>RED</p>", "response": "y", "stimulus-type": "incongruent", "word": "red", "color": "yellow", "correct_response": "y", "trial_id": "stroop-trial-1-incongruent-2", "trial_type": "html-keyboard-response", "trial_index": 124, "time_elapsed": 395278, "internal_node_id": "0.0-6.0-29.0"}}, {"uniqueid": "w97077823:a24117977", "current_trial": 125, "dateTime": 1664368711674, "trialdata": {"rt": 1191, "stimulus": "<p id='stroop-text' class='stroop-red'>BOTTLE</p>", "response": "b", "stimulus-type": "unrelated", "word": "BOTTLE", "color": "red", "correct_response": "r", "trial_id": "stroop-trial-1-unrelated-20", "trial_type": "html-keyboard-response", "trial_index": 125, "time_elapsed": 396972, "internal_node_id": "0.0-6.0-30.0"}}, {"uniqueid": "w97077823:a24117977", "current_trial": 126, "dateTime": 1664368713595, "trialdata": {"rt": 1419, "stimulus": "<p id='stroop-text' class='stroop-yellow'>YELLOW</p>", "response": "y", "stimulus-type": "congruent", "word": "yellow", "color": "yellow", "correct_response": "y", "trial_id": "stroop-trial-1-congruent-17", "trial_type": "html-keyboard-response", "trial_index": 126, "time_elapsed": 398894, "internal_node_id": "0.0-6.0-31.0"}}, {"uniqueid": "w97077823:a24117977", "current_trial": 127, "dateTime": 1664368715029, "trialdata": {"rt": 930, "stimulus": "<p id='stroop-text' class='stroop-yellow'>BLUE</p>", "response": "y", "stimulus-type": "incongruent", "word": "blue", "color": "yellow", "correct_response": "y", "trial_id": "stroop-trial-1-incongruent-4", "trial_type": "html-keyboard-response", "trial_index": 127, "time_elapsed": 400328, "internal_node_id": "0.0-6.0-32.0"}}, {"uniqueid": "w97077823:a24117977", "current_trial": 128, "dateTime": 1664368716320, "trialdata": {"rt": 788, "stimulus": "<p id='stroop-text' class='stroop-blue'>RED</p>", "response": "r", "stimulus-type": "incongruent", "word": "red", "color": "blue", "correct_response": "b", "trial_id": "stroop-trial-1-incongruent-8", "trial_type": "html-keyboard-response", "trial_index": 128, "time_elapsed": 401619, "internal_node_id": "0.0-6.0-33.0"}}, {"uniqueid": "w97077823:a24117977", "current_trial": 129, "dateTime": 1664368717768, "trialdata": {"rt": 944, "stimulus": "<p id='stroop-text' class='stroop-blue'>GREEN</p>", "response": "g", "stimulus-type": "incongruent", "word": "green", "color": "blue", "correct_response": "b", "trial_id": "stroop-trial-1-incongruent-27", "trial_type": "html-keyboard-response", "trial_index": 129, "time_elapsed": 403067, "internal_node_id": "0.0-6.0-34.0"}}, {"uniqueid": "w97077823:a24117977", "current_trial": 130, "dateTime": 1664368719031, "trialdata": {"rt": 760, "stimulus": "<p id='stroop-text' class='stroop-green'>GREEN</p>", "response": "g", "stimulus-type": "congruent", "word": "green", "color": "green", "correct_response": "g", "trial_id": "stroop-trial-1-congruent-2", "trial_type": "html-keyboard-response", "trial_index": 130, "time_elapsed": 404329, "internal_node_id": "0.0-6.0-35.0"}}, {"uniqueid": "w97077823:a24117977", "current_trial": 131, "dateTime": 1664368720247, "trialdata": {"rt": 715, "stimulus": "<p id='stroop-text' class='stroop-yellow'>YELLOW</p>", "response": "y", "stimulus-type": "congruent", "word": "yellow", "color": "yellow", "correct_response": "y", "trial_id": "stroop-trial-1-congruent-12", "trial_type": "html-keyboard-response", "trial_index": 131, "time_elapsed": 405546, "internal_node_id": "0.0-6.0-36.0"}}, {"uniqueid": "w97077823:a24117977", "current_trial": 132, "dateTime": 1664368722426, "trialdata": {"rt": 1675, "stimulus": "<p id='stroop-text' class='stroop-green'>BOTTLE</p>", "response": "b", "stimulus-type": "unrelated", "word": "BOTTLE", "color": "green", "correct_response": "g", "trial_id": "stroop-trial-1-unrelated-3", "trial_type": "html-keyboard-response", "trial_index": 132, "time_elapsed": 407725, "internal_node_id": "0.0-6.0-37.0"}}, {"uniqueid": "w97077823:a24117977", "current_trial": 133, "dateTime": 1664368723768, "trialdata": {"rt": 838, "stimulus": "<p id='stroop-text' class='stroop-red'>RED</p>", "response": "r", "stimulus-type": "congruent", "word": "red", "color": "red", "correct_response": "r", "trial_id": "stroop-trial-1-congruent-10", "trial_type": "html-keyboard-response", "trial_index": 133, "time_elapsed": 409067, "internal_node_id": "0.0-6.0-38.0"}}, {"uniqueid": "w97077823:a24117977", "current_trial": 134, "dateTime": 1664368725361, "trialdata": {"rt": 1089, "stimulus": "<p id='stroop-text' class='stroop-green'>BRAIN</p>", "response": "g", "stimulus-type": "unrelated", "word": "BRAIN", "color": "green", "correct_response": "g", "trial_id": "stroop-trial-1-unrelated-28", "trial_type": "html-keyboard-response", "trial_index": 134, "time_elapsed": 410659, "internal_node_id": "0.0-6.0-39.0"}}, {"uniqueid": "w97077823:a24117977", "current_trial": 135, "dateTime": 1664368727106, "trialdata": {"rt": 1241, "stimulus": "<p id='stroop-text' class='stroop-yellow'>BLUE</p>", "response": "y", "stimulus-type": "incongruent", "word": "blue", "color": "yellow", "correct_response": "y", "trial_id": "stroop-trial-1-incongruent-19", "trial_type": "html-keyboard-response", "trial_index": 135, "time_elapsed": 412404, "internal_node_id": "0.0-6.0-40.0"}}, {"uniqueid": "w97077823:a24117977", "current_trial": 136, "dateTime": 1664368728398, "trialdata": {"rt": 788, "stimulus": "<p id='stroop-text' class='stroop-green'>BLUE</p>", "response": "g", "stimulus-type": "incongruent", "word": "blue", "color": "green", "correct_response": "g", "trial_id": "stroop-trial-1-incongruent-9", "trial_type": "html-keyboard-response", "trial_index": 136, "time_elapsed": 413696, "internal_node_id": "0.0-6.0-41.0"}}, {"uniqueid": "w97077823:a24117977", "current_trial": 137, "dateTime": 1664368729576, "trialdata": {"rt": 675, "stimulus": "<p id='stroop-text' class='stroop-green'>RED</p>", "response": "g", "stimulus-type": "incongruent", "word": "red", "color": "green", "correct_response": "g", "trial_id": "stroop-trial-1-incongruent-28", "trial_type": "html-keyboard-response", "trial_index": 137, "time_elapsed": 414875, "internal_node_id": "0.0-6.0-42.0"}}, {"uniqueid": "w97077823:a24117977", "current_trial": 138, "dateTime": 1664368730715, "trialdata": {"rt": 636, "stimulus": "<p id='stroop-text' class='stroop-red'>CHAIR</p>", "response": "r", "stimulus-type": "unrelated", "word": "CHAIR", "color": "red", "correct_response": "r", "trial_id": "stroop-trial-1-unrelated-23", "trial_type": "html-keyboard-response", "trial_index": 138, "time_elapsed": 416014, "internal_node_id": "0.0-6.0-43.0"}}, {"uniqueid": "w97077823:a24117977", "current_trial": 139, "dateTime": 1664368731810, "trialdata": {"rt": 591, "stimulus": "<p id='stroop-text' class='stroop-red'>RED</p>", "response": "r", "stimulus-type": "congruent", "word": "red", "color": "red", "correct_response": "r", "trial_id": "stroop-trial-1-congruent-7", "trial_type": "html-keyboard-response", "trial_index": 139, "time_elapsed": 417109, "internal_node_id": "0.0-6.0-44.0"}}, {"uniqueid": "w97077823:a24117977", "current_trial": 140, "dateTime": 1664368733208, "trialdata": {"rt": 895, "stimulus": "<p id='stroop-text' class='stroop-blue'>BOTTLE</p>", "response": "b", "stimulus-type": "unrelated", "word": "BOTTLE", "color": "blue", "correct_response": "b", "trial_id": "stroop-trial-1-unrelated-9", "trial_type": "html-keyboard-response", "trial_index": 140, "time_elapsed": 418507, "internal_node_id": "0.0-6.0-45.0"}}, {"uniqueid": "w97077823:a24117977", "current_trial": 141, "dateTime": 1664368734608, "trialdata": {"rt": 897, "stimulus": "<p id='stroop-text' class='stroop-yellow'>DOG</p>", "response": "y", "stimulus-type": "unrelated", "word": "DOG", "color": "yellow", "correct_response": "y", "trial_id": "stroop-trial-1-unrelated-1", "trial_type": "html-keyboard-response", "trial_index": 141, "time_elapsed": 419906, "internal_node_id": "0.0-6.0-46.0"}}, {"uniqueid": "w97077823:a24117977", "current_trial": 142, "dateTime": 1664368736985, "trialdata": {"rt": 1874, "stimulus": "<p id='stroop-text' class='stroop-green'>YELLOW</p>", "response": "g", "stimulus-type": "incongruent", "word": "yellow", "color": "green", "correct_response": "g", "trial_id": "stroop-trial-1-incongruent-29", "trial_type": "html-keyboard-response", "trial_index": 142, "time_elapsed": 422283, "internal_node_id": "0.0-6.0-47.0"}}, {"uniqueid": "w97077823:a24117977", "current_trial": 143, "dateTime": 1664368738427, "trialdata": {"rt": 938, "stimulus": "<p id='stroop-text' class='stroop-blue'>MONKEY</p>", "response": "b", "stimulus-type": "unrelated", "word": "MONKEY", "color": "blue", "correct_response": "b", "trial_id": "stroop-trial-1-unrelated-22", "trial_type": "html-keyboard-response", "trial_index": 143, "time_elapsed": 423726, "internal_node_id": "0.0-6.0-48.0"}}, {"uniqueid": "w97077823:a24117977", "current_trial": 144, "dateTime": 1664368739569, "trialdata": {"rt": 639, "stimulus": "<p id='stroop-text' class='stroop-red'>RED</p>", "response": "r", "stimulus-type": "congruent", "word": "red", "color": "red", "correct_response": "r", "trial_id": "stroop-trial-1-congruent-15", "trial_type": "html-keyboard-response", "trial_index": 144, "time_elapsed": 424868, "internal_node_id": "0.0-6.0-49.0"}}, {"uniqueid": "w97077823:a24117977", "current_trial": 145, "dateTime": 1664368740668, "trialdata": {"rt": 597, "stimulus": "<p id='stroop-text' class='stroop-red'>RED</p>", "response": "r", "stimulus-type": "congruent", "word": "red", "color": "red", "correct_response": "r", "trial_id": "stroop-trial-1-congruent-11", "trial_type": "html-keyboard-response", "trial_index": 145, "time_elapsed": 425967, "internal_node_id": "0.0-6.0-50.0"}}, {"uniqueid": "w97077823:a24117977", "current_trial": 146, "dateTime": 1664368741929, "trialdata": {"rt": 751, "stimulus": "<p id='stroop-text' class='stroop-yellow'>YELLOW</p>", "response": "y", "stimulus-type": "congruent", "word": "yellow", "color": "yellow", "correct_response": "y", "trial_id": "stroop-trial-1-congruent-26", "trial_type": "html-keyboard-response", "trial_index": 146, "time_elapsed": 427228, "internal_node_id": "0.0-6.0-51.0"}}, {"uniqueid": "w97077823:a24117977", "current_trial": 147, "dateTime": 1664368743099, "trialdata": {"rt": 667, "stimulus": "<p id='stroop-text' class='stroop-yellow'>YELLOW</p>", "response": "y", "stimulus-type": "congruent", "word": "yellow", "color": "yellow", "correct_response": "y", "trial_id": "stroop-trial-1-congruent-24", "trial_type": "html-keyboard-response", "trial_index": 147, "time_elapsed": 428398, "internal_node_id": "0.0-6.0-52.0"}}, {"uniqueid": "w97077823:a24117977", "current_trial": 148, "dateTime": 1664368744284, "trialdata": {"rt": 681, "stimulus": "<p id='stroop-text' class='stroop-yellow'>BRAIN</p>", "response": "y", "stimulus-type": "unrelated", "word": "BRAIN", "color": "yellow", "correct_response": "y", "trial_id": "stroop-trial-1-unrelated-5", "trial_type": "html-keyboard-response", "trial_index": 148, "time_elapsed": 429583, "internal_node_id": "0.0-6.0-53.0"}}, {"uniqueid": "w97077823:a24117977", "current_trial": 149, "dateTime": 1664368745525, "trialdata": {"rt": 738, "stimulus": "<p id='stroop-text' class='stroop-red'>DOG</p>", "response": "r", "stimulus-type": "unrelated", "word": "DOG", "color": "red", "correct_response": "r", "trial_id": "stroop-trial-1-unrelated-10", "trial_type": "html-keyboard-response", "trial_index": 149, "time_elapsed": 430824, "internal_node_id": "0.0-6.0-54.0"}}, {"uniqueid": "w97077823:a24117977", "current_trial": 150, "dateTime": 1664368746589, "trialdata": {"rt": 559, "stimulus": "<p id='stroop-text' class='stroop-red'>RED</p>", "response": "r", "stimulus-type": "congruent", "word": "red", "color": "red", "correct_response": "r", "trial_id": "stroop-trial-1-congruent-14", "trial_type": "html-keyboard-response", "trial_index": 150, "time_elapsed": 431887, "internal_node_id": "0.0-6.0-55.0"}}, {"uniqueid": "w97077823:a24117977", "current_trial": 151, "dateTime": 1664368747925, "trialdata": {"rt": 833, "stimulus": "<p id='stroop-text' class='stroop-green'>GREEN</p>", "response": "g", "stimulus-type": "congruent", "word": "green", "color": "green", "correct_response": "g", "trial_id": "stroop-trial-1-congruent-20", "trial_type": "html-keyboard-response", "trial_index": 151, "time_elapsed": 433224, "internal_node_id": "0.0-6.0-56.0"}}, {"uniqueid": "w97077823:a24117977", "current_trial": 152, "dateTime": 1664368749043, "trialdata": {"rt": 613, "stimulus": "<p id='stroop-text' class='stroop-green'>BRIDGE</p>", "response": "g", "stimulus-type": "unrelated", "word": "BRIDGE", "color": "green", "correct_response": "g", "trial_id": "stroop-trial-1-unrelated-11", "trial_type": "html-keyboard-response", "trial_index": 152, "time_elapsed": 434342, "internal_node_id": "0.0-6.0-57.0"}}, {"uniqueid": "w97077823:a24117977", "current_trial": 153, "dateTime": 1664368750272, "trialdata": {"rt": 725, "stimulus": "<p id='stroop-text' class='stroop-yellow'>YELLOW</p>", "response": "y", "stimulus-type": "congruent", "word": "yellow", "color": "yellow", "correct_response": "y", "trial_id": "stroop-trial-1-congruent-13", "trial_type": "html-keyboard-response", "trial_index": 153, "time_elapsed": 435570, "internal_node_id": "0.0-6.0-58.0"}}, {"uniqueid": "w97077823:a24117977", "current_trial": 154, "dateTime": 1664368751359, "trialdata": {"rt": 585, "stimulus": "<p id='stroop-text' class='stroop-yellow'>YELLOW</p>", "response": "y", "stimulus-type": "congruent", "word": "yellow", "color": "yellow", "correct_response": "y", "trial_id": "stroop-trial-1-congruent-27", "trial_type": "html-keyboard-response", "trial_index": 154, "time_elapsed": 436658, "internal_node_id": "0.0-6.0-59.0"}}, {"uniqueid": "w97077823:a24117977", "current_trial": 155, "dateTime": 1664368752478, "trialdata": {"rt": 616, "stimulus": "<p id='stroop-text' class='stroop-yellow'>BOTTLE</p>", "response": "y", "stimulus-type": "unrelated", "word": "BOTTLE", "color": "yellow", "correct_response": "y", "trial_id": "stroop-trial-1-unrelated-8", "trial_type": "html-keyboard-response", "trial_index": 155, "time_elapsed": 437777, "internal_node_id": "0.0-6.0-60.0"}}, {"uniqueid": "w97077823:a24117977", "current_trial": 156, "dateTime": 1664368753467, "trialdata": {"rt": 485, "stimulus": "<p id='stroop-text' class='stroop-yellow'>YELLOW</p>", "response": "y", "stimulus-type": "congruent", "word": "yellow", "color": "yellow", "correct_response": "y", "trial_id": "stroop-trial-1-congruent-18", "trial_type": "html-keyboard-response", "trial_index": 156, "time_elapsed": 438766, "internal_node_id": "0.0-6.0-61.0"}}, {"uniqueid": "w97077823:a24117977", "current_trial": 157, "dateTime": 1664368754920, "trialdata": {"rt": 949, "stimulus": "<p id='stroop-text' class='stroop-red'>STONE</p>", "response": "r", "stimulus-type": "unrelated", "word": "STONE", "color": "red", "correct_response": "r", "trial_id": "stroop-trial-1-unrelated-18", "trial_type": "html-keyboard-response", "trial_index": 157, "time_elapsed": 440218, "internal_node_id": "0.0-6.0-62.0"}}, {"uniqueid": "w97077823:a24117977", "current_trial": 158, "dateTime": 1664368756256, "trialdata": {"rt": 833, "stimulus": "<p id='stroop-text' class='stroop-green'>RED</p>", "response": "y", "stimulus-type": "incongruent", "word": "red", "color": "green", "correct_response": "g", "trial_id": "stroop-trial-1-incongruent-20", "trial_type": "html-keyboard-response", "trial_index": 158, "time_elapsed": 441555, "internal_node_id": "0.0-6.0-63.0"}}, {"uniqueid": "w97077823:a24117977", "current_trial": 159, "dateTime": 1664368757900, "trialdata": {"rt": 1140, "stimulus": "<p id='stroop-text' class='stroop-green'>RED</p>", "response": "g", "stimulus-type": "incongruent", "word": "red", "color": "green", "correct_response": "g", "trial_id": "stroop-trial-1-incongruent-16", "trial_type": "html-keyboard-response", "trial_index": 159, "time_elapsed": 443198, "internal_node_id": "0.0-6.0-64.0"}}, {"uniqueid": "w97077823:a24117977", "current_trial": 160, "dateTime": 1664368759516, "trialdata": {"rt": 1113, "stimulus": "<p id='stroop-text' class='stroop-red'>BRIDGE</p>", "response": "r", "stimulus-type": "unrelated", "word": "BRIDGE", "color": "red", "correct_response": "r", "trial_id": "stroop-trial-1-unrelated-13", "trial_type": "html-keyboard-response", "trial_index": 160, "time_elapsed": 444815, "internal_node_id": "0.0-6.0-65.0"}}, {"uniqueid": "w97077823:a24117977", "current_trial": 161, "dateTime": 1664368760708, "trialdata": {"rt": 689, "stimulus": "<p id='stroop-text' class='stroop-yellow'>BLUE</p>", "response": "y", "stimulus-type": "incongruent", "word": "blue", "color": "yellow", "correct_response": "y", "trial_id": "stroop-trial-1-incongruent-5", "trial_type": "html-keyboard-response", "trial_index": 161, "time_elapsed": 446007, "internal_node_id": "0.0-6.0-66.0"}}, {"uniqueid": "w97077823:a24117977", "current_trial": 162, "dateTime": 1664368762294, "trialdata": {"rt": 1082, "stimulus": "<p id='stroop-text' class='stroop-blue'>BLUE</p>", "response": "b", "stimulus-type": "congruent", "word": "blue", "color": "blue", "correct_response": "b", "trial_id": "stroop-trial-1-congruent-6", "trial_type": "html-keyboard-response", "trial_index": 162, "time_elapsed": 447592, "internal_node_id": "0.0-6.0-67.0"}}, {"uniqueid": "w97077823:a24117977", "current_trial": 163, "dateTime": 1664368763749, "trialdata": {"rt": 952, "stimulus": "<p id='stroop-text' class='stroop-green'>GREEN</p>", "response": "g", "stimulus-type": "congruent", "word": "green", "color": "green", "correct_response": "g", "trial_id": "stroop-trial-1-congruent-25", "trial_type": "html-keyboard-response", "trial_index": 163, "time_elapsed": 449047, "internal_node_id": "0.0-6.0-68.0"}}, {"uniqueid": "w97077823:a24117977", "current_trial": 164, "dateTime": 1664368766427, "trialdata": {"rt": 2174, "stimulus": "<p id='stroop-text' class='stroop-blue'>CHAIR</p>", "response": "b", "stimulus-type": "unrelated", "word": "CHAIR", "color": "blue", "correct_response": "b", "trial_id": "stroop-trial-1-unrelated-16", "trial_type": "html-keyboard-response", "trial_index": 164, "time_elapsed": 451725, "internal_node_id": "0.0-6.0-69.0"}}, {"uniqueid": "w97077823:a24117977", "current_trial": 165, "dateTime": 1664368768162, "trialdata": {"rt": 1232, "stimulus": "<p id='stroop-text' class='stroop-red'>BLUE</p>", "response": "r", "stimulus-type": "incongruent", "word": "blue", "color": "red", "correct_response": "r", "trial_id": "stroop-trial-1-incongruent-18", "trial_type": "html-keyboard-response", "trial_index": 165, "time_elapsed": 453460, "internal_node_id": "0.0-6.0-70.0"}}, {"uniqueid": "w97077823:a24117977", "current_trial": 166, "dateTime": 1664368769482, "trialdata": {"rt": 817, "stimulus": "<p id='stroop-text' class='stroop-yellow'>BRAIN</p>", "response": "y", "stimulus-type": "unrelated", "word": "BRAIN", "color": "yellow", "correct_response": "y", "trial_id": "stroop-trial-1-unrelated-6", "trial_type": "html-keyboard-response", "trial_index": 166, "time_elapsed": 454781, "internal_node_id": "0.0-6.0-71.0"}}, {"uniqueid": "w97077823:a24117977", "current_trial": 167, "dateTime": 1664368770927, "trialdata": {"rt": 940, "stimulus": "<p id='stroop-text' class='stroop-green'>GREEN</p>", "response": "g", "stimulus-type": "congruent", "word": "green", "color": "green", "correct_response": "g", "trial_id": "stroop-trial-1-congruent-9", "trial_type": "html-keyboard-response", "trial_index": 167, "time_elapsed": 456226, "internal_node_id": "0.0-6.0-72.0"}}, {"uniqueid": "w97077823:a24117977", "current_trial": 168, "dateTime": 1664368772543, "trialdata": {"rt": 1112, "stimulus": "<p id='stroop-text' class='stroop-red'>RED</p>", "response": "r", "stimulus-type": "congruent", "word": "red", "color": "red", "correct_response": "r", "trial_id": "stroop-trial-1-congruent-16", "trial_type": "html-keyboard-response", "trial_index": 168, "time_elapsed": 457842, "internal_node_id": "0.0-6.0-73.0"}}, {"uniqueid": "w97077823:a24117977", "current_trial": 169, "dateTime": 1664368773961, "trialdata": {"rt": 915, "stimulus": "<p id='stroop-text' class='stroop-yellow'>DOG</p>", "response": "y", "stimulus-type": "unrelated", "word": "DOG", "color": "yellow", "correct_response": "y", "trial_id": "stroop-trial-1-unrelated-19", "trial_type": "html-keyboard-response", "trial_index": 169, "time_elapsed": 459259, "internal_node_id": "0.0-6.0-74.0"}}, {"uniqueid": "w97077823:a24117977", "current_trial": 170, "dateTime": 1664368775711, "trialdata": {"rt": 1246, "stimulus": "<p id='stroop-text' class='stroop-blue'>YELLOW</p>", "response": "b", "stimulus-type": "incongruent", "word": "yellow", "color": "blue", "correct_response": "b", "trial_id": "stroop-trial-1-incongruent-6", "trial_type": "html-keyboard-response", "trial_index": 170, "time_elapsed": 461010, "internal_node_id": "0.0-6.0-75.0"}}, {"uniqueid": "w97077823:a24117977", "current_trial": 171, "dateTime": 1664368776778, "trialdata": {"rt": 564, "stimulus": "<p id='stroop-text' class='stroop-blue'>BRAIN</p>", "response": "b", "stimulus-type": "unrelated", "word": "BRAIN", "color": "blue", "correct_response": "b", "trial_id": "stroop-trial-1-unrelated-15", "trial_type": "html-keyboard-response", "trial_index": 171, "time_elapsed": 462076, "internal_node_id": "0.0-6.0-76.0"}}, {"uniqueid": "w97077823:a24117977", "current_trial": 172, "dateTime": 1664368778413, "trialdata": {"rt": 1132, "stimulus": "<p id='stroop-text' class='stroop-red'>GREEN</p>", "response": "r", "stimulus-type": "incongruent", "word": "green", "color": "red", "correct_response": "r", "trial_id": "stroop-trial-1-incongruent-22", "trial_type": "html-keyboard-response", "trial_index": 172, "time_elapsed": 463712, "internal_node_id": "0.0-6.0-77.0"}}, {"uniqueid": "w97077823:a24117977", "current_trial": 173, "dateTime": 1664368780065, "trialdata": {"rt": 1149, "stimulus": "<p id='stroop-text' class='stroop-red'>BLUE</p>", "response": "r", "stimulus-type": "incongruent", "word": "blue", "color": "red", "correct_response": "r", "trial_id": "stroop-trial-1-incongruent-1", "trial_type": "html-keyboard-response", "trial_index": 173, "time_elapsed": 465364, "internal_node_id": "0.0-6.0-78.0"}}, {"uniqueid": "w97077823:a24117977", "current_trial": 174, "dateTime": 1664368781464, "trialdata": {"rt": 897, "stimulus": "<p id='stroop-text' class='stroop-red'>WINDOW</p>", "response": "r", "stimulus-type": "unrelated", "word": "WINDOW", "color": "red", "correct_response": "r", "trial_id": "stroop-trial-1-unrelated-29", "trial_type": "html-keyboard-response", "trial_index": 174, "time_elapsed": 466762, "internal_node_id": "0.0-6.0-79.0"}}, {"uniqueid": "w97077823:a24117977", "current_trial": 175, "dateTime": 1664368782778, "trialdata": {"rt": 811, "stimulus": "<p id='stroop-text' class='stroop-red'>BLUE</p>", "response": "r", "stimulus-type": "incongruent", "word": "blue", "color": "red", "correct_response": "r", "trial_id": "stroop-trial-1-incongruent-26", "trial_type": "html-keyboard-response", "trial_index": 175, "time_elapsed": 468077, "internal_node_id": "0.0-6.0-80.0"}}, {"uniqueid": "w97077823:a24117977", "current_trial": 176, "dateTime": 1664368783753, "trialdata": {"rt": 472, "stimulus": "<p id='stroop-text' class='stroop-red'>FORK</p>", "response": "r", "stimulus-type": "unrelated", "word": "FORK", "color": "red", "correct_response": "r", "trial_id": "stroop-trial-1-unrelated-26", "trial_type": "html-keyboard-response", "trial_index": 176, "time_elapsed": 469052, "internal_node_id": "0.0-6.0-81.0"}}, {"uniqueid": "w97077823:a24117977", "current_trial": 177, "dateTime": 1664368784980, "trialdata": {"rt": 721, "stimulus": "<p id='stroop-text' class='stroop-red'>BLUE</p>", "response": "r", "stimulus-type": "incongruent", "word": "blue", "color": "red", "correct_response": "r", "trial_id": "stroop-trial-1-incongruent-23", "trial_type": "html-keyboard-response", "trial_index": 177, "time_elapsed": 470279, "internal_node_id": "0.0-6.0-82.0"}}, {"uniqueid": "w97077823:a24117977", "current_trial": 178, "dateTime": 1664368786021, "trialdata": {"rt": 538, "stimulus": "<p id='stroop-text' class='stroop-red'>BRAIN</p>", "response": "r", "stimulus-type": "unrelated", "word": "BRAIN", "color": "red", "correct_response": "r", "trial_id": "stroop-trial-1-unrelated-17", "trial_type": "html-keyboard-response", "trial_index": 178, "time_elapsed": 471320, "internal_node_id": "0.0-6.0-83.0"}}, {"uniqueid": "w97077823:a24117977", "current_trial": 179, "dateTime": 1664368787288, "trialdata": {"rt": 764, "stimulus": "<p id='stroop-text' class='stroop-green'>GREEN</p>", "response": "g", "stimulus-type": "congruent", "word": "green", "color": "green", "correct_response": "g", "trial_id": "stroop-trial-1-congruent-23", "trial_type": "html-keyboard-response", "trial_index": 179, "time_elapsed": 472586, "internal_node_id": "0.0-6.0-84.0"}}, {"uniqueid": "w97077823:a24117977", "current_trial": 180, "dateTime": 1664368788594, "trialdata": {"rt": 803, "stimulus": "<p id='stroop-text' class='stroop-yellow'>YELLOW</p>", "response": "y", "stimulus-type": "congruent", "word": "yellow", "color": "yellow", "correct_response": "y", "trial_id": "stroop-trial-1-congruent-21", "trial_type": "html-keyboard-response", "trial_index": 180, "time_elapsed": 473893, "internal_node_id": "0.0-6.0-85.0"}}, {"uniqueid": "w97077823:a24117977", "current_trial": 181, "dateTime": 1664368789863, "trialdata": {"rt": 765, "stimulus": "<p id='stroop-text' class='stroop-blue'>BLUE</p>", "response": "b", "stimulus-type": "congruent", "word": "blue", "color": "blue", "correct_response": "b", "trial_id": "stroop-trial-1-congruent-3", "trial_type": "html-keyboard-response", "trial_index": 181, "time_elapsed": 475162, "internal_node_id": "0.0-6.0-86.0"}}, {"uniqueid": "w97077823:a24117977", "current_trial": 182, "dateTime": 1664368791072, "trialdata": {"rt": 707, "stimulus": "<p id='stroop-text' class='stroop-blue'>BLUE</p>", "response": "b", "stimulus-type": "congruent", "word": "blue", "color": "blue", "correct_response": "b", "trial_id": "stroop-trial-1-congruent-5", "trial_type": "html-keyboard-response", "trial_index": 182, "time_elapsed": 476371, "internal_node_id": "0.0-6.0-87.0"}}, {"uniqueid": "w97077823:a24117977", "current_trial": 183, "dateTime": 1664368793399, "trialdata": {"rt": 1814, "stimulus": "<p id='stroop-text' class='stroop-yellow'>MONKEY</p>", "response": "y", "stimulus-type": "unrelated", "word": "MONKEY", "color": "yellow", "correct_response": "y", "trial_id": "stroop-trial-1-unrelated-24", "trial_type": "html-keyboard-response", "trial_index": 183, "time_elapsed": 478698, "internal_node_id": "0.0-6.0-88.0"}}, {"uniqueid": "w97077823:a24117977", "current_trial": 184, "dateTime": 1664368794921, "trialdata": {"rt": 1019, "stimulus": "<p id='stroop-text' class='stroop-blue'>BOTTLE</p>", "response": "b", "stimulus-type": "unrelated", "word": "BOTTLE", "color": "blue", "correct_response": "b", "trial_id": "stroop-trial-1-unrelated-21", "trial_type": "html-keyboard-response", "trial_index": 184, "time_elapsed": 480220, "internal_node_id": "0.0-6.0-89.0"}}, {"uniqueid": "w97077823:a24117977", "current_trial": 185, "dateTime": 1664368882521, "trialdata": {"rt": 87096, "stimulus": "  <h1> End of block! </h1>\n\n  You have reached the end of the block 2/5. If you need a short break, feel free to take one now before moving on.\n\n  <br><br>\n  In the next block, you will complete another 90 rounds of this game.\n\n  <br><br>\n  <div style='text-align: center;'>Press <code>space</code> to begin.</div>\n  <br><br>\n<div style='text-align: center;'>(If the experiment doesn't continue, try clicking on the text and then pressing <code>space</code>.)</div>", "response": " ", "trial_id": "stroop_1_ready_3", "trial_type": "html-keyboard-response", "trial_index": 185, "time_elapsed": 567820, "internal_node_id": "0.0-7.0"}}, {"uniqueid": "w97077823:a24117977", "current_trial": 186, "dateTime": 1664368883785, "trialdata": {"rt": 1260, "stimulus": "<p id='stroop-text' class='stroop-yellow'>YELLOW</p>", "response": "y", "stimulus-type": "congruent", "word": "yellow", "color": "yellow", "correct_response": "y", "trial_id": "stroop-trial-1-congruent-2", "trial_type": "html-keyboard-response", "trial_index": 186, "time_elapsed": 569083, "internal_node_id": "0.0-8.0-0.0"}}, {"uniqueid": "w97077823:a24117977", "current_trial": 187, "dateTime": 1664368885980, "trialdata": {"rt": 1691, "stimulus": "<p id='stroop-text' class='stroop-red'>BLUE</p>", "response": "r", "stimulus-type": "incongruent", "word": "blue", "color": "red", "correct_response": "r", "trial_id": "stroop-trial-1-incongruent-17", "trial_type": "html-keyboard-response", "trial_index": 187, "time_elapsed": 571278, "internal_node_id": "0.0-8.0-1.0"}}, {"uniqueid": "w97077823:a24117977", "current_trial": 188, "dateTime": 1664368887699, "trialdata": {"rt": 1216, "stimulus": "<p id='stroop-text' class='stroop-blue'>GREEN</p>", "response": "b", "stimulus-type": "incongruent", "word": "green", "color": "blue", "correct_response": "b", "trial_id": "stroop-trial-1-incongruent-10", "trial_type": "html-keyboard-response", "trial_index": 188, "time_elapsed": 572998, "internal_node_id": "0.0-8.0-2.0"}}, {"uniqueid": "w97077823:a24117977", "current_trial": 189, "dateTime": 1664368888978, "trialdata": {"rt": 776, "stimulus": "<p id='stroop-text' class='stroop-yellow'>YELLOW</p>", "response": "y", "stimulus-type": "congruent", "word": "yellow", "color": "yellow", "correct_response": "y", "trial_id": "stroop-trial-1-congruent-21", "trial_type": "html-keyboard-response", "trial_index": 189, "time_elapsed": 574277, "internal_node_id": "0.0-8.0-3.0"}}, {"uniqueid": "w97077823:a24117977", "current_trial": 190, "dateTime": 1664368890235, "trialdata": {"rt": 755, "stimulus": "<p id='stroop-text' class='stroop-blue'>BLUE</p>", "response": "b", "stimulus-type": "congruent", "word": "blue", "color": "blue", "correct_response": "b", "trial_id": "stroop-trial-1-congruent-8", "trial_type": "html-keyboard-response", "trial_index": 190, "time_elapsed": 575534, "internal_node_id": "0.0-8.0-4.0"}}, {"uniqueid": "w97077823:a24117977", "current_trial": 191, "dateTime": 1664368891378, "trialdata": {"rt": 640, "stimulus": "<p id='stroop-text' class='stroop-red'>RED</p>", "response": "r", "stimulus-type": "congruent", "word": "red", "color": "red", "correct_response": "r", "trial_id": "stroop-trial-1-congruent-17", "trial_type": "html-keyboard-response", "trial_index": 191, "time_elapsed": 576677, "internal_node_id": "0.0-8.0-5.0"}}, {"uniqueid": "w97077823:a24117977", "current_trial": 192, "dateTime": 1664368893141, "trialdata": {"rt": 1259, "stimulus": "<p id='stroop-text' class='stroop-red'>BLUE</p>", "response": "r", "stimulus-type": "incongruent", "word": "blue", "color": "red", "correct_response": "r", "trial_id": "stroop-trial-1-incongruent-12", "trial_type": "html-keyboard-response", "trial_index": 192, "time_elapsed": 578440, "internal_node_id": "0.0-8.0-6.0"}}, {"uniqueid": "w97077823:a24117977", "current_trial": 193, "dateTime": 1664368894842, "trialdata": {"rt": 1199, "stimulus": "<p id='stroop-text' class='stroop-yellow'>BLUE</p>", "response": "y", "stimulus-type": "incongruent", "word": "blue", "color": "yellow", "correct_response": "y", "trial_id": "stroop-trial-1-incongruent-15", "trial_type": "html-keyboard-response", "trial_index": 193, "time_elapsed": 580141, "internal_node_id": "0.0-8.0-7.0"}}, {"uniqueid": "w97077823:a24117977", "current_trial": 194, "dateTime": 1664368896341, "trialdata": {"rt": 995, "stimulus": "<p id='stroop-text' class='stroop-green'>BRIDGE</p>", "response": "g", "stimulus-type": "unrelated", "word": "BRIDGE", "color": "green", "correct_response": "g", "trial_id": "stroop-trial-1-unrelated-26", "trial_type": "html-keyboard-response", "trial_index": 194, "time_elapsed": 581640, "internal_node_id": "0.0-8.0-8.0"}}, {"uniqueid": "w97077823:a24117977", "current_trial": 195, "dateTime": 1664368898791, "trialdata": {"rt": 1946, "stimulus": "<p id='stroop-text' class='stroop-blue'>GREEN</p>", "response": "b", "stimulus-type": "incongruent", "word": "green", "color": "blue", "correct_response": "b", "trial_id": "stroop-trial-1-incongruent-16", "trial_type": "html-keyboard-response", "trial_index": 195, "time_elapsed": 584090, "internal_node_id": "0.0-8.0-9.0"}}, {"uniqueid": "w97077823:a24117977", "current_trial": 196, "dateTime": 1664368900516, "trialdata": {"rt": 1221, "stimulus": "<p id='stroop-text' class='stroop-yellow'>GREEN</p>", "response": "y", "stimulus-type": "incongruent", "word": "green", "color": "yellow", "correct_response": "y", "trial_id": "stroop-trial-1-incongruent-1", "trial_type": "html-keyboard-response", "trial_index": 196, "time_elapsed": 585815, "internal_node_id": "0.0-8.0-10.0"}}, {"uniqueid": "w97077823:a24117977", "current_trial": 197, "dateTime": 1664368902659, "trialdata": {"rt": 1641, "stimulus": "<p id='stroop-text' class='stroop-green'>BLUE</p>", "response": "b", "stimulus-type": "incongruent", "word": "blue", "color": "green", "correct_response": "g", "trial_id": "stroop-trial-1-incongruent-6", "trial_type": "html-keyboard-response", "trial_index": 197, "time_elapsed": 587958, "internal_node_id": "0.0-8.0-11.0"}}, {"uniqueid": "w97077823:a24117977", "current_trial": 198, "dateTime": 1664368905187, "trialdata": {"rt": 2025, "stimulus": "<p id='stroop-text' class='stroop-green'>GREEN</p>", "response": "g", "stimulus-type": "congruent", "word": "green", "color": "green", "correct_response": "g", "trial_id": "stroop-trial-1-congruent-20", "trial_type": "html-keyboard-response", "trial_index": 198, "time_elapsed": 590486, "internal_node_id": "0.0-8.0-12.0"}}, {"uniqueid": "w97077823:a24117977", "current_trial": 199, "dateTime": 1664368907057, "trialdata": {"rt": 1366, "stimulus": "<p id='stroop-text' class='stroop-blue'>RED</p>", "response": "r", "stimulus-type": "incongruent", "word": "red", "color": "blue", "correct_response": "b", "trial_id": "stroop-trial-1-incongruent-24", "trial_type": "html-keyboard-response", "trial_index": 199, "time_elapsed": 592356, "internal_node_id": "0.0-8.0-13.0"}}, {"uniqueid": "w97077823:a24117977", "current_trial": 200, "dateTime": 1664368909924, "trialdata": {"rt": 2364, "stimulus": "<p id='stroop-text' class='stroop-green'>GREEN</p>", "response": "g", "stimulus-type": "congruent", "word": "green", "color": "green", "correct_response": "g", "trial_id": "stroop-trial-1-congruent-27", "trial_type": "html-keyboard-response", "trial_index": 200, "time_elapsed": 595223, "internal_node_id": "0.0-8.0-14.0"}}, {"uniqueid": "w97077823:a24117977", "current_trial": 201, "dateTime": 1664368911416, "trialdata": {"rt": 988, "stimulus": "<p id='stroop-text' class='stroop-yellow'>SHIP</p>", "response": "r", "stimulus-type": "unrelated", "word": "SHIP", "color": "yellow", "correct_response": "y", "trial_id": "stroop-trial-1-unrelated-19", "trial_type": "html-keyboard-response", "trial_index": 201, "time_elapsed": 596715, "internal_node_id": "0.0-8.0-15.0"}}, {"uniqueid": "w97077823:a24117977", "current_trial": 202, "dateTime": 1664368912753, "trialdata": {"rt": 833, "stimulus": "<p id='stroop-text' class='stroop-yellow'>BOTTLE</p>", "response": "y", "stimulus-type": "unrelated", "word": "BOTTLE", "color": "yellow", "correct_response": "y", "trial_id": "stroop-trial-1-unrelated-3", "trial_type": "html-keyboard-response", "trial_index": 202, "time_elapsed": 598052, "internal_node_id": "0.0-8.0-16.0"}}, {"uniqueid": "w97077823:a24117977", "current_trial": 203, "dateTime": 1664368914122, "trialdata": {"rt": 865, "stimulus": "<p id='stroop-text' class='stroop-green'>GREEN</p>", "response": "g", "stimulus-type": "congruent", "word": "green", "color": "green", "correct_response": "g", "trial_id": "stroop-trial-1-congruent-18", "trial_type": "html-keyboard-response", "trial_index": 203, "time_elapsed": 599421, "internal_node_id": "0.0-8.0-17.0"}}, {"uniqueid": "w97077823:a24117977", "current_trial": 204, "dateTime": 1664368915436, "trialdata": {"rt": 811, "stimulus": "<p id='stroop-text' class='stroop-yellow'>BRIDGE</p>", "response": "y", "stimulus-type": "unrelated", "word": "BRIDGE", "color": "yellow", "correct_response": "y", "trial_id": "stroop-trial-1-unrelated-6", "trial_type": "html-keyboard-response", "trial_index": 204, "time_elapsed": 600735, "internal_node_id": "0.0-8.0-18.0"}}, {"uniqueid": "w97077823:a24117977", "current_trial": 205, "dateTime": 1664368917164, "trialdata": {"rt": 1225, "stimulus": "<p id='stroop-text' class='stroop-green'>YELLOW</p>", "response": "g", "stimulus-type": "incongruent", "word": "yellow", "color": "green", "correct_response": "g", "trial_id": "stroop-trial-1-incongruent-25", "trial_type": "html-keyboard-response", "trial_index": 205, "time_elapsed": 602463, "internal_node_id": "0.0-8.0-19.0"}}, {"uniqueid": "w97077823:a24117977", "current_trial": 206, "dateTime": 1664368918283, "trialdata": {"rt": 615, "stimulus": "<p id='stroop-text' class='stroop-blue'>BLUE</p>", "response": "b", "stimulus-type": "congruent", "word": "blue", "color": "blue", "correct_response": "b", "trial_id": "stroop-trial-1-congruent-30", "trial_type": "html-keyboard-response", "trial_index": 206, "time_elapsed": 603582, "internal_node_id": "0.0-8.0-20.0"}}, {"uniqueid": "w97077823:a24117977", "current_trial": 207, "dateTime": 1664368919906, "trialdata": {"rt": 1119, "stimulus": "<p id='stroop-text' class='stroop-yellow'>YELLOW</p>", "response": "y", "stimulus-type": "congruent", "word": "yellow", "color": "yellow", "correct_response": "y", "trial_id": "stroop-trial-1-congruent-1", "trial_type": "html-keyboard-response", "trial_index": 207, "time_elapsed": 605205, "internal_node_id": "0.0-8.0-21.0"}}, {"uniqueid": "w97077823:a24117977", "current_trial": 208, "dateTime": 1664368921083, "trialdata": {"rt": 674, "stimulus": "<p id='stroop-text' class='stroop-yellow'>BRAIN</p>", "response": "y", "stimulus-type": "unrelated", "word": "BRAIN", "color": "yellow", "correct_response": "y", "trial_id": "stroop-trial-1-unrelated-27", "trial_type": "html-keyboard-response", "trial_index": 208, "time_elapsed": 606381, "internal_node_id": "0.0-8.0-22.0"}}, {"uniqueid": "w97077823:a24117977", "current_trial": 209, "dateTime": 1664368922298, "trialdata": {"rt": 711, "stimulus": "<p id='stroop-text' class='stroop-red'>RED</p>", "response": "r", "stimulus-type": "congruent", "word": "red", "color": "red", "correct_response": "r", "trial_id": "stroop-trial-1-congruent-14", "trial_type": "html-keyboard-response", "trial_index": 209, "time_elapsed": 607596, "internal_node_id": "0.0-8.0-23.0"}}, {"uniqueid": "w97077823:a24117977", "current_trial": 210, "dateTime": 1664368923378, "trialdata": {"rt": 576, "stimulus": "<p id='stroop-text' class='stroop-red'>BOTTLE</p>", "response": "r", "stimulus-type": "unrelated", "word": "BOTTLE", "color": "red", "correct_response": "r", "trial_id": "stroop-trial-1-unrelated-9", "trial_type": "html-keyboard-response", "trial_index": 210, "time_elapsed": 608676, "internal_node_id": "0.0-8.0-24.0"}}, {"uniqueid": "w97077823:a24117977", "current_trial": 211, "dateTime": 1664368924942, "trialdata": {"rt": 1060, "stimulus": "<p id='stroop-text' class='stroop-yellow'>YELLOW</p>", "response": "y", "stimulus-type": "congruent", "word": "yellow", "color": "yellow", "correct_response": "y", "trial_id": "stroop-trial-1-congruent-11", "trial_type": "html-keyboard-response", "trial_index": 211, "time_elapsed": 610240, "internal_node_id": "0.0-8.0-25.0"}}, {"uniqueid": "w97077823:a24117977", "current_trial": 212, "dateTime": 1664368926438, "trialdata": {"rt": 993, "stimulus": "<p id='stroop-text' class='stroop-blue'>BLUE</p>", "response": "b", "stimulus-type": "congruent", "word": "blue", "color": "blue", "correct_response": "b", "trial_id": "stroop-trial-1-congruent-7", "trial_type": "html-keyboard-response", "trial_index": 212, "time_elapsed": 611737, "internal_node_id": "0.0-8.0-26.0"}}, {"uniqueid": "w97077823:a24117977", "current_trial": 213, "dateTime": 1664368927647, "trialdata": {"rt": 706, "stimulus": "<p id='stroop-text' class='stroop-blue'>GREEN</p>", "response": "b", "stimulus-type": "incongruent", "word": "green", "color": "blue", "correct_response": "b", "trial_id": "stroop-trial-1-incongruent-11", "trial_type": "html-keyboard-response", "trial_index": 213, "time_elapsed": 612945, "internal_node_id": "0.0-8.0-27.0"}}, {"uniqueid": "w97077823:a24117977", "current_trial": 214, "dateTime": 1664368929392, "trialdata": {"rt": 1242, "stimulus": "<p id='stroop-text' class='stroop-green'>BRAIN</p>", "response": "b", "stimulus-type": "unrelated", "word": "BRAIN", "color": "green", "correct_response": "g", "trial_id": "stroop-trial-1-unrelated-12", "trial_type": "html-keyboard-response", "trial_index": 214, "time_elapsed": 614691, "internal_node_id": "0.0-8.0-28.0"}}, {"uniqueid": "w97077823:a24117977", "current_trial": 215, "dateTime": 1664368932413, "trialdata": {"rt": 2518, "stimulus": "<p id='stroop-text' class='stroop-green'>RED</p>", "response": "g", "stimulus-type": "incongruent", "word": "red", "color": "green", "correct_response": "g", "trial_id": "stroop-trial-1-incongruent-28", "trial_type": "html-keyboard-response", "trial_index": 215, "time_elapsed": 617712, "internal_node_id": "0.0-8.0-29.0"}}, {"uniqueid": "w97077823:a24117977", "current_trial": 216, "dateTime": 1664368934021, "trialdata": {"rt": 1103, "stimulus": "<p id='stroop-text' class='stroop-blue'>DOG</p>", "response": "b", "stimulus-type": "unrelated", "word": "DOG", "color": "blue", "correct_response": "b", "trial_id": "stroop-trial-1-unrelated-20", "trial_type": "html-keyboard-response", "trial_index": 216, "time_elapsed": 619320, "internal_node_id": "0.0-8.0-30.0"}}, {"uniqueid": "w97077823:a24117977", "current_trial": 217, "dateTime": 1664368935122, "trialdata": {"rt": 597, "stimulus": "<p id='stroop-text' class='stroop-yellow'>YELLOW</p>", "response": "y", "stimulus-type": "congruent", "word": "yellow", "color": "yellow", "correct_response": "y", "trial_id": "stroop-trial-1-congruent-19", "trial_type": "html-keyboard-response", "trial_index": 217, "time_elapsed": 620421, "internal_node_id": "0.0-8.0-31.0"}}, {"uniqueid": "w97077823:a24117977", "current_trial": 218, "dateTime": 1664368936204, "trialdata": {"rt": 578, "stimulus": "<p id='stroop-text' class='stroop-yellow'>MONKEY</p>", "response": "y", "stimulus-type": "unrelated", "word": "MONKEY", "color": "yellow", "correct_response": "y", "trial_id": "stroop-trial-1-unrelated-15", "trial_type": "html-keyboard-response", "trial_index": 218, "time_elapsed": 621502, "internal_node_id": "0.0-8.0-32.0"}}, {"uniqueid": "w97077823:a24117977", "current_trial": 219, "dateTime": 1664368937305, "trialdata": {"rt": 599, "stimulus": "<p id='stroop-text' class='stroop-yellow'>BLUE</p>", "response": "y", "stimulus-type": "incongruent", "word": "blue", "color": "yellow", "correct_response": "y", "trial_id": "stroop-trial-1-incongruent-18", "trial_type": "html-keyboard-response", "trial_index": 219, "time_elapsed": 622603, "internal_node_id": "0.0-8.0-33.0"}}, {"uniqueid": "w97077823:a24117977", "current_trial": 220, "dateTime": 1664368938393, "trialdata": {"rt": 584, "stimulus": "<p id='stroop-text' class='stroop-red'>RED</p>", "response": "r", "stimulus-type": "congruent", "word": "red", "color": "red", "correct_response": "r", "trial_id": "stroop-trial-1-congruent-3", "trial_type": "html-keyboard-response", "trial_index": 220, "time_elapsed": 623691, "internal_node_id": "0.0-8.0-34.0"}}, {"uniqueid": "w97077823:a24117977", "current_trial": 221, "dateTime": 1664368941192, "trialdata": {"rt": 2296, "stimulus": "<p id='stroop-text' class='stroop-blue'>MONKEY</p>", "response": "b", "stimulus-type": "unrelated", "word": "MONKEY", "color": "blue", "correct_response": "b", "trial_id": "stroop-trial-1-unrelated-1", "trial_type": "html-keyboard-response", "trial_index": 221, "time_elapsed": 626491, "internal_node_id": "0.0-8.0-35.0"}}, {"uniqueid": "w97077823:a24117977", "current_trial": 222, "dateTime": 1664368942764, "trialdata": {"rt": 1068, "stimulus": "<p id='stroop-text' class='stroop-yellow'>RED</p>", "response": "y", "stimulus-type": "incongruent", "word": "red", "color": "yellow"