{"condition": 1, "counterbalance": 0, "assignmentId": "a29219035", "workerId": "w58601620", "hitId": "h37534865", "currenttrial": 143, "bonus": 0, "data": [{"uniqueid": "w58601620:a29219035", "current_trial": 0, "dateTime": 1664367981350, "trialdata": {"success": true, "trial_type": "fullscreen", "trial_index": 0, "time_elapsed": 9998, "internal_node_id": "0.0-0.0"}}, {"uniqueid": "w58601620:a29219035", "current_trial": 1, "dateTime": 1664368005005, "trialdata": {"view_history": [{"page_index": 0, "viewing_time": 23613}], "rt": 23615, "trial_id": "exp_instructions_no_distractor", "trial_type": "instructions", "trial_index": 1, "time_elapsed": 33656, "internal_node_id": "0.0-1.0"}}, {"uniqueid": "w58601620:a29219035", "current_trial": 2, "dateTime": 1664368012446, "trialdata": {"success": true, "trial_type": "fullscreen", "trial_index": 2, "time_elapsed": 41097, "internal_node_id": "0.0-2.0-0.0"}}, {"uniqueid": "w58601620:a29219035", "current_trial": 3, "dateTime": 1664368162054, "trialdata": {"view_history": [{"page_index": 0, "viewing_time": 59404}, {"page_index": 1, "viewing_time": 31330}, {"page_index": 2, "viewing_time": 13662}, {"page_index": 3, "viewing_time": 9813}, {"page_index": 4, "viewing_time": 35388}], "rt": 149598, "trial_id": "mouselab_instructions_1", "trial_type": "instructions", "trial_index": 3, "time_elapsed": 190705, "internal_node_id": "0.0-2.0-1.0"}}, {"uniqueid": "w58601620:a29219035", "current_trial": 4, "dateTime": 1664368194065, "trialdata": {"revealed_states": [], "num_clicks_accrued": [0, 0, 0, 0, 0, 0, 0, 0, 0, 0, 0, 0, 0], "stateRewards": ["", -10, 10, -10, 10, -10, -10, -10, 10, 10, 10, -10, 10], "withholdReward": false, "trial_id": "practice_1", "block": "test", "trialIndex": 0, "score": -8.25, "costs": -0.25, "simulationMode": [null, null, null], "rewards": [-10, 10, -10], "path": ["0", "0", "1", "2", "3"], "rt": [19748, 1802, 1497], "actions": ["up", "up", "right"], "actionTimes": [22956, 25268, 27261], "queries": {"click": {"state": {"target": ["5"], "time": [12579]}, "edge": {"target": [], "time": []}}, "mouseover": {"state": {"target": ["1", "5", "6", "0", "6"], "time": [4396, 7512, 14161, 18360, 20162]}, "edge": {"target": [], "time": []}}, "mouseout": {"state": {"target": ["5", "9", "12", "9", "0", "1", "5", "6", "5", "0", "5"], "time": [377, 678, 929, 2178, 2736, 7095, 13959, 17477, 18029, 19209, 19911]}, "edge": {"target": [], "time": []}}}, "displayed_time": "27.78", "trialTime": 30973, "trial_type": "mouselab-mdp", "trial_index": 4, "time_elapsed": 222713, "internal_node_id": "0.0-2.0-2.0-0.0"}}, {"uniqueid": "w58601620:a29219035", "current_trial": 5, "dateTime": 1664368205419, "trialdata": {"revealed_states": [], "num_clicks_accrued": [0, 0, 0, 0, 0, 0, 0, 0, 0, 0, 0, 0, 0], "stateRewards": ["", -10, -10, 10, 10, 10, -10, 10, -10, -10, 10, -10, 10], "withholdReward": false, "trial_id": "practice_2", "block": "test", "trialIndex": 1, "score": -8, "costs": 0, "simulationMode": [null, null, null], "rewards": [10, -10, -10], "path": ["0", "0", "5", "6", "8"], "rt": [3923, 627, 477], "actions": ["right", "right", "down"], "actionTimes": [6693, 7820, 8803], "queries": {"click": {"state": {"target": [], "time": []}, "edge": {"target": [], "time": []}}, "mouseover": {"state": {"target": ["1", "0", "5"], "time": [4022, 4288, 4594]}, "edge": {"target": [], "time": []}}, "mouseout": {"state": {"target": ["6", "5", "1", "0", "5"], "time": [1574, 1605, 4138, 4338, 4791]}, "edge": {"target": [], "time": []}}}, "displayed_time": "9.31", "trialTime": 11023, "trial_type": "mouselab-mdp", "trial_index": 5, "time_elapsed": 234069, "internal_node_id": "0.0-2.0-2.0-1.0"}}, {"uniqueid": "w58601620:a29219035", "current_trial": 6, "dateTime": 1664368267682, "trialdata": {"view_history": [{"page_index": 0, "viewing_time": 33154}, {"page_index": 1, "viewing_time": 19885}, {"page_index": 2, "viewing_time": 9203}], "rt": 62244, "trial_id": "mouselab_instructions_2_scarce", "trial_type": "instructions", "trial_index": 6, "time_elapsed": 296333, "internal_node_id": "0.0-2.0-3.0"}}, {"uniqueid": "w58601620:a29219035", "current_trial": 7, "dateTime": 1664368321154, "trialdata": {"rt": 53450, "response": {"Q0": "$-48 to $48", "Q1": "The cost is always $0.25.", "Q2": "The better I perform the higher my bonus will be.", "Q3": "Yes.", "Q4": "The values of the nodes walked through from start to finish.", "Q5": "No, the spider might forget to count the money on some rounds."}, "question_order": [0, 1, 2, 3, 4, 5], "correct": {"Q0": "$-48 to $48", "Q1": "The cost is always $0.25.", "Q2": "The better I perform the higher my bonus will be.", "Q3": "No, the amount of cash at each node of the web may be different each time.", "Q4": "The values of the nodes walked through from start to finish.", "Q5": "No, the spider might forget to count the money on some rounds."}, "trial_id": "mouselab_quiz_scarce", "trial_type": "survey-multi-choice", "trial_index": 7, "time_elapsed": 349805, "internal_node_id": "0.0-2.0-4.0"}}, {"uniqueid": "w58601620:a29219035", "current_trial": 8, "dateTime": 1664368332424, "trialdata": {"success": true, "trial_type": "fullscreen", "trial_index": 8, "time_elapsed": 361075, "internal_node_id": "0.0-2.1-0.1"}}, {"uniqueid": "w58601620:a29219035", "current_trial": 9, "dateTime": 1664368371559, "trialdata": {"view_history": [{"page_index": 0, "viewing_time": 7786}, {"page_index": 1, "viewing_time": 4213}, {"page_index": 2, "viewing_time": 8172}, {"page_index": 3, "viewing_time": 3396}, {"page_index": 4, "viewing_time": 15552}], "rt": 39121, "trial_id": "mouselab_instructions_1", "trial_type": "instructions", "trial_index": 9, "time_elapsed": 400209, "internal_node_id": "0.0-2.1-1.1"}}, {"uniqueid": "w58601620:a29219035", "current_trial": 10, "dateTime": 1664368383823, "trialdata": {"revealed_states": [], "num_clicks_accrued": [0, 0, 0, 0, 0, 0, 0, 0, 0, 0, 0, 0, 0], "stateRewards": ["", -10, 10, -10, 10, -10, -10, -10, 10, 10, 10, -10, 10], "withholdReward": false, "trial_id": "practice_1", "block": "test", "trialIndex": 2, "score": -28, "costs": 0, "simulationMode": [null, null, null], "rewards": [-10, -10, -10], "path": ["0", "0", "5", "6", "7"], "rt": [3687, 1717, 804], "actions": ["right", "right", "up"], "actionTimes": [5660, 7881, 9179], "queries": {"click": {"state": {"target": [], "time": []}, "edge": {"target": [], "time": []}}, "mouseover": {"state": {"target": ["5", "1", "1", "5"], "time": [2671, 4675, 4864, 5105]}, "edge": {"target": [], "time": []}}, "mouseout": {"state": {"target": ["5", "0", "5", "1", "1", "5"], "time": [539, 2605, 4643, 4738, 4905, 10281]}, "edge": {"target": [], "time": []}}}, "displayed_time": "9.69", "trialTime": 11985, "trial_type": "mouselab-mdp", "trial_index": 10, "time_elapsed": 412472, "internal_node_id": "0.0-2.1-2.1-0.1"}}, {"uniqueid": "w58601620:a29219035", "current_trial": 11, "dateTime": 1664368397399, "trialdata": {"revealed_states": [], "num_clicks_accrued": [0, 0, 0, 0, 0, 0, 0, 0, 0, 0, 0, 0, 0], "stateRewards": ["", -10, -10, 10, 10, 10, -10, 10, -10, -10, 10, -10, 10], "withholdReward": false, "trial_id": "practice_2", "block": "test", "trialIndex": 3, "score": -8.25, "costs": -0.25, "simulationMode": [null, null, null], "rewards": [10, -10, -10], "path": ["0", "0", "5", "6", "8"], "rt": [5571, 478, 1172], "actions": ["right", "right", "down"], "actionTimes": [7532, 8554, 10231], "queries": {"click": {"state": {"target": ["5"], "time": [4575]}, "edge": {"target": [], "time": []}}, "mouseover": {"state": {"target": ["5", "6"], "time": [3293, 5687]}, "edge": {"target": [], "time": []}}, "mouseout": {"state": {"target": ["0", "5", "6"], "time": [2986, 5553, 11889]}, "edge": {"target": [], "time": []}}}, "displayed_time": "10.74", "trialTime": 13263, "trial_type": "mouselab-mdp", "trial_index": 11, "time_elapsed": 426049, "internal_node_id": "0.0-2.1-2.1-1.1"}}, {"uniqueid": "w58601620:a29219035", "current_trial": 12, "dateTime": 1664368405603, "trialdata": {"view_history": [{"page_index": 0, "viewing_time": 2661}, {"page_index": 1, "viewing_time": 3150}, {"page_index": 2, "viewing_time": 2384}], "rt": 8196, "trial_id": "mouselab_instructions_2_scarce", "trial_type": "instructions", "trial_index": 12, "time_elapsed": 434254, "internal_node_id": "0.0-2.1-3.1"}}, {"uniqueid": "w58601620:a29219035", "current_trial": 13, "dateTime": 1664368449261, "trialdata": {"rt": 43642, "response": {"Q0": "$-48 to $48", "Q1": "The cost is always $0.25.", "Q2": "The better I perform the higher my bonus will be.", "Q3": "No, the amount of cash at each node of the web may be different each time.", "Q4": "The values of the nodes walked through from start to finish.", "Q5": "No, the spider might forget to count the money on some rounds."}, "question_order": [0, 1, 2, 3, 4, 5], "correct": {"Q0": "$-48 to $48", "Q1": "The cost is always $0.25.", "Q2": "The better I perform the higher my bonus will be.", "Q3": "No, the amount of cash at each node of the web may be different each time.", "Q4": "The values of the nodes walked through from start to finish.", "Q5": "No, the spider might forget to count the money on some rounds."}, "trial_id": "mouselab_quiz_scarce", "trial_type": "survey-multi-choice", "trial_index": 13, "time_elapsed": 477912, "internal_node_id": "0.0-2.1-4.1"}}, {"uniqueid": "w58601620:a29219035", "current_trial": 14, "dateTime": 1664368453434, "trialdata": {"rt": 4138, "stimulus": "\n<h1> Get ready to start the game! </h1>\n\nThank you for reading the instructions. Get ready start with the first of 4 block(s) of this game.\n<br><br>\nIn this first block, you will complete 30 rounds of this game before moving on.\n<br><br>\nRemember, the more money the spider gets, the bigger your bonus will be!\n<br><br>\n<div style='text-align: center;'>Press <code>space</code> to begin.</div>\n\n<br><br>\n(If, at any point, the <code>space</code> key does not take you to the next page, click once on the text and try again.)", "response": " ", "trial_id": "mdp_ready_1", "trial_type": "html-keyboard-response", "trial_index": 14, "time_elapsed": 482085, "internal_node_id": "0.0-4.0-0.0"}}, {"uniqueid": "w58601620:a29219035", "current_trial": 15, "dateTime": 1664368468053, "trialdata": {"revealed_states": [], "num_clicks_accrued": [0, 0, 0, 0, 0, 0, 0, 0, 0, 0, 0, 0, 0], "stateRewards": ["", -4, -8, -24, 24, 4, 4, -48, -48, -4, -4, 24, -48], "withholdReward": true, "trial_id": "mdp_431592223624", "block": "test1", "trialIndex": 4, "score": -35.25, "costs": -0.25, "simulationMode": [null, null, null], "rewards": [4, 4, -48], "path": ["0", "0", "5", "6", "7"], "rt": [8733, 542, 603], "actions": ["right", "right", "up"], "actionTimes": [10661, 11700, 12829], "queries": {"click": {"state": {"target": ["5"], "time": [7410]}, "edge": {"target": [], "time": []}}, "mouseover": {"state": {"target": ["5", "6", "6", "5", "5", "1", "5", "6"], "time": [2356, 2538, 5354, 5406, 5545, 6556, 7121, 8372]}, "edge": {"target": [], "time": []}}, "mouseout": {"state": {"target": ["1", "3", "0", "5", "6", "6", "5", "5", "1", "5", "6"], "time": [854, 1038, 2323, 2439, 2639, 5378, 5438, 6305, 7022, 8071, 8554]}, "edge": {"target": [], "time": []}}}, "displayed_time": "13.33", "trialTime": 14319, "trial_type": "mouselab-mdp", "trial_index": 15, "time_elapsed": 496702, "internal_node_id": "0.0-4.0-1.0-0.0"}}, {"uniqueid": "w58601620:a29219035", "current_trial": 16, "dateTime": 1664368479997, "trialdata": {"revealed_states": [], "num_clicks_accrued": [0, 0, 0, 0, 0, 0, 0, 0, 0, 0, 0, 0, 0], "stateRewards": ["", 2, 4, 48, -48, 2, -4, 48, 24, -2, -8, -24, 48], "withholdReward": false, "trial_id": "mdp_962424406744", "block": "test1", "trialIndex": 5, "score": -29, "costs": 0, "simulationMode": [null, null, null], "rewards": [-2, -8, -24], "path": ["0", "0", "9", "10", "11"], "rt": [2473, 457, 982], "actions": ["left", "left", "up"], "actionTimes": [4814, 5774, 7265], "queries": {"click": {"state": {"target": [], "time": []}, "edge": {"target": [], "time": []}}, "mouseover": {"state": {"target": ["5", "6"], "time": [3029, 3196]}, "edge": {"target": [], "time": []}}, "mouseout": {"state": {"target": ["6", "5", "0", "5", "6"], "time": [1544, 1661, 1961, 3129, 10829]}, "edge": {"target": [], "time": []}}}, "displayed_time": "10.34", "trialTime": 11656, "trial_type": "mouselab-mdp", "trial_index": 16, "time_elapsed": 508648, "internal_node_id": "0.0-4.0-1.0-1.0"}}, {"uniqueid": "w58601620:a29219035", "current_trial": 17, "dateTime": 1664368498819, "trialdata": {"revealed_states": [], "num_clicks_accrued": [0, 0, 0, 0, 0, 0, 0, 0, 0, 0, 0, 0, 0], "stateRewards": ["", 4, 4, -24, -48, -4, 4, -48, 24, 4, -8, -48, 48], "withholdReward": true, "trial_id": "mdp_566768794366", "block": "test1", "trialIndex": 6, "score": 46.5, "costs": -2.5, "simulationMode": [null, null, null], "rewards": [4, -8, 48], "path": ["0", "0", "9", "10", "12"], "rt": [13109, 217, 510], "actions": ["left", "left", "down"], "actionTimes": [14829, 15567, 16577], "queries": {"click": {"state": {"target": ["1", "5", "6", "2", "3", "4", "9", "10", "11", "12"], "time": [2745, 3895, 5047, 6169, 6770, 8993, 10504, 11151, 11749, 12789]}, "edge": {"target": [], "time": []}}, "mouseover": {"state": {"target": ["1", "5", "6", "2", "3", "4", "7", "9", "10", "11", "12", "8"], "time": [2429, 3513, 4820, 5698, 6545, 8680, 9580, 10329, 10821, 11434, 12546, 13979]}, "edge": {"target": [], "time": []}}, "mouseout": {"state": {"target": ["0", "1", "5", "6", "5", "1", "2", "3", "2", "4", "2", "3", "7", "9", "10", "11", "9", "12"], "time": [2233, 3279, 4479, 5363, 5430, 5529, 6431, 8398, 8596, 9214, 9246, 9280, 9616, 10747, 11396, 12030, 12396, 13079]}, "edge": {"target": [], "time": []}}}, "displayed_time": "17.10", "trialTime": 18512, "trial_type": "mouselab-mdp", "trial_index": 17, "time_elapsed": 527470, "internal_node_id": "0.0-4.0-1.0-2.0"}}, {"uniqueid": "w58601620:a29219035", "current_trial": 18, "dateTime": 1664368510423, "trialdata": {"revealed_states": [], "num_clicks_accrued": [0, 0, 0, 0, 0, 0, 0, 0, 0, 0, 0, 0, 0], "stateRewards": ["", 4, 8, 48, 48, 4, 4, -24, -48, 4, 8, -48, -48], "withholdReward": true, "trial_id": "mdp_984548726931", "block": "test1", "trialIndex": 7, "score": 65, "costs": 0, "simulationMode": [null, null, null], "rewards": [4, 8, 48], "path": ["0", "0", "1", "2", "3"], "rt": [3312, 238, 226], "actions": ["up", "up", "right"], "actionTimes": [5406, 6161, 6900], "queries": {"click": {"state": {"target": [], "time": []}, "edge": {"target": [], "time": []}}, "mouseover": {"state": {"target": [], "time": []}, "edge": {"target": [], "time": []}}, "mouseout": {"state": {"target": ["8", "0"], "time": [1187, 2821]}, "edge": {"target": [], "time": []}}}, "displayed_time": "10.10", "trialTime": 11306, "trial_type": "mouselab-mdp", "trial_index": 18, "time_elapsed": 539073, "internal_node_id": "0.0-4.0-1.0-3.0"}}, {"uniqueid": "w58601620:a29219035", "current_trial": 19, "dateTime": 1664368521796, "trialdata": {"revealed_states": [], "num_clicks_accrued": [0, 0, 0, 0, 0, 0, 0, 0, 0, 0, 0, 0, 0], "stateRewards": ["", 2, -8, 24, 24, 4, -4, -24, -48, 4, 8, 24, 24], "withholdReward": true, "trial_id": "mdp_249803813713", "block": "test1", "trialIndex": 8, "score": 23, "costs": 0, "simulationMode": [null, null, null], "rewards": [2, -8, 24], "path": ["0", "0", "1", "2", "3"], "rt": [1783, 195, 918], "actions": ["up", "up", "right"], "actionTimes": [3356, 4055, 5478], "queries": {"click": {"state": {"target": [], "time": []}, "edge": {"target": [], "time": []}}, "mouseover": {"state": {"target": [], "time": []}, "edge": {"target": [], "time": []}}, "mouseout": {"state": {"target": [], "time": []}, "edge": {"target": [], "time": []}}}, "displayed_time": "10.57", "trialTime": 11067, "trial_type": "mouselab-mdp", "trial_index": 19, "time_elapsed": 550446, "internal_node_id": "0.0-4.0-1.0-4.0"}}, {"uniqueid": "w58601620:a29219035", "current_trial": 20, "dateTime": 1664368539371, "trialdata": {"revealed_states": [], "num_clicks_accrued": [0, 0, 0, 0, 0, 0, 0, 0, 0, 0, 0, 0, 0], "stateRewards": ["", -4, 8, 24, -24, 4, -8, -24, -24, -2, 8, -48, 24], "withholdReward": true, "trial_id": "mdp_240302100183", "block": "test1", "trialIndex": 9, "score": 31.5, "costs": -1.5, "simulationMode": [null, null, null], "rewards": [-4, 8, 24], "path": ["0", "0", "1", "2", "3"], "rt": [13461, 251, 134], "actions": ["up", "up", "right"], "actionTimes": [14622, 15395, 16045], "queries": {"click": {"state": {"target": ["4", "3", "8", "7", "12", "11"], "time": [3075, 4033, 7704, 8815, 11864, 12714]}, "edge": {"target": [], "time": []}}, "mouseover": {"state": {"target": ["4", "2", "3", "5", "8", "6", "7", "10", "10", "12", "10", "11", "6"], "time": [2824, 3410, 3828, 4710, 7367, 8276, 8575, 10907, 11109, 11640, 12241, 12508, 13075]}, "edge": {"target": [], "time": []}}, "mouseout": {"state": {"target": ["0", "4", "2", "3", "5", "8", "6", "7", "10", "10", "12", "10", "11", "6"], "time": [2067, 3342, 3608, 4326, 7025, 8225, 8391, 9074, 10926, 11558, 12191, 12358, 12958, 13095]}, "edge": {"target": [], "time": []}}}, "displayed_time": "16.55", "trialTime": 17261, "trial_type": "mouselab-mdp", "trial_index": 20, "time_elapsed": 568021, "internal_node_id": "0.0-4.0-1.0-5.0"}}, {"uniqueid": "w58601620:a29219035", "current_trial": 21, "dateTime": 1664368550611, "trialdata": {"revealed_states": [], "num_clicks_accrued": [0, 0, 0, 0, 0, 0, 0, 0, 0, 0, 0, 0, 0], "stateRewards": ["", -4, 8, -48, -48, -4, 4, -24, -48, 2, -4, -24, 24], "withholdReward": true, "trial_id": "mdp_183773275291", "block": "test1", "trialIndex": 10, "score": -43, "costs": 0, "simulationMode": [null, null, null], "rewards": [-4, 4, -48], "path": ["0", "0", "5", "6", "8"], "rt": [2660, 52, 161], "actions": ["right", "right", "down"], "actionTimes": [4287, 4882, 5573], "queries": {"click": {"state": {"target": [], "time": []}, "edge": {"target": [], "time": []}}, "mouseover": {"state": {"target": ["0"], "time": [1860]}, "edge": {"target": [], "time": []}}, "mouseout": {"state": {"target": ["8", "0"], "time": [543, 1375]}, "edge": {"target": [], "time": []}}}, "displayed_time": "10.63", "trialTime": 10938, "trial_type": "mouselab-mdp", "trial_index": 21, "time_elapsed": 579262, "internal_node_id": "0.0-4.0-1.0-6.0"}}, {"uniqueid": "w58601620:a29219035", "current_trial": 22, "dateTime": 1664368560530, "trialdata": {"revealed_states": [], "num_clicks_accrued": [0, 0, 0, 0, 0, 0, 0, 0, 0, 0, 0, 0, 0], "stateRewards": ["", -2, 8, -48, 48, -4, -8, 24, 24, -2, -4, 48, -48], "withholdReward": true, "trial_id": "mdp_867247318592", "block": "test1", "trialIndex": 11, "score": 17, "costs": 0, "simulationMode": [null, null, null], "rewards": [-4, -8, 24], "path": ["0", "0", "5", "6", "7"], "rt": [2070, 280, 85], "actions": ["right", "right", "up"], "actionTimes": [3101, 3886, 4491], "queries": {"click": {"state": {"target": [], "time": []}, "edge": {"target": [], "time": []}}, "mouseover": {"state": {"target": [], "time": []}, "edge": {"target": [], "time": []}}, "mouseout": {"state": {"target": ["0", "5"], "time": [6836, 7169]}, "edge": {"target": [], "time": []}}}, "displayed_time": "9.03", "trialTime": 9616, "trial_type": "mouselab-mdp", "trial_index": 22, "time_elapsed": 589180, "internal_node_id": "0.0-4.0-1.0-7.0"}}, {"uniqueid": "w58601620:a29219035", "current_trial": 23, "dateTime": 1664368572710, "trialdata": {"revealed_states": [], "num_clicks_accrued": [0, 0, 0, 0, 0, 0, 0, 0, 0, 0, 0, 0, 0], "stateRewards": ["", -2, 8, 24, -48, -2, -4, 24, 48, 2, 8, -48, -48], "withholdReward": true, "trial_id": "mdp_562228697607", "block": "test1", "trialIndex": 12, "score": -37, "costs": 0, "simulationMode": [null, null, null], "rewards": [-2, 8, -48], "path": ["0", "0", "1", "2", "4"], "rt": [1770, 342, 732], "actions": ["up", "up", "left"], "actionTimes": [3169, 4011, 5268], "queries": {"click": {"state": {"target": [], "time": []}, "edge": {"target": [], "time": []}}, "mouseover": {"state": {"target": [], "time": []}, "edge": {"target": [], "time": []}}, "mouseout": {"state": {"target": ["0"], "time": [714]}, "edge": {"target": [], "time": []}}}, "displayed_time": "11.40", "trialTime": 11859, "trial_type": "mouselab-mdp", "trial_index": 23, "time_elapsed": 601361, "internal_node_id": "0.0-4.0-1.0-8.0"}}, {"uniqueid": "w58601620:a29219035", "current_trial": 24, "dateTime": 1664368583698, "trialdata": {"revealed_states": [], "num_clicks_accrued": [0, 0, 0, 0, 0, 0, 0, 0, 0, 0, 0, 0, 0], "stateRewards": ["", -2, -4, -24, 24, -2, 4, -24, -24, -4, 4, 24, -24], "withholdReward": true, "trial_id": "mdp_999419261719", "block": "test1", "trialIndex": 13, "score": 28.5, "costs": -0.5, "simulationMode": [null, null, null], "rewards": [-4, 4, 24], "path": ["0", "0", "9", "10", "11"], "rt": [3530, 61, 487], "actions": ["left", "left", "up"], "actionTimes": [5194, 5780, 6810], "queries": {"click": {"state": {"target": ["12", "11"], "time": [2803, 3877]}, "edge": {"target": [], "time": []}}, "mouseover": {"state": {"target": ["9", "12", "10", "11", "1"], "time": [2301, 2532, 3233, 3633, 4401]}, "edge": {"target": [], "time": []}}, "mouseout": {"state": {"target": ["0", "9", "12", "10", "11", "1", "0"], "time": [1409, 2335, 3134, 3268, 4133, 4420, 10056]}, "edge": {"target": [], "time": []}}}, "displayed_time": "9.66", "trialTime": 10666, "trial_type": "mouselab-mdp", "trial_index": 24, "time_elapsed": 612348, "internal_node_id": "0.0-4.0-1.0-9.0"}}, {"uniqueid": "w58601620:a29219035", "current_trial": 25, "dateTime": 1664368595304, "trialdata": {"revealed_states": [], "num_clicks_accrued": [0, 0, 0, 0, 0, 0, 0, 0, 0, 0, 0, 0, 0], "stateRewards": ["", -2, -8, 24, -24, 4, -8, 48, 48, -4, -8, -24, -48], "withholdReward": false, "trial_id": "mdp_286767261523", "block": "test1", "trialIndex": 14, "score": 48.75, "costs": -0.25, "simulationMode": [null, null, null], "rewards": [4, -8, 48], "path": ["0", "0", "5", "6", "8"], "rt": [2161, 203, 1579], "actions": ["right", "right", "down"], "actionTimes": [3728, 4427, 6518], "queries": {"click": {"state": {"target": ["8"], "time": [2578]}, "edge": {"target": [], "time": []}}, "mouseover": {"state": {"target": ["5", "8", "6"], "time": [2121, 2220, 2956]}, "edge": {"target": [], "time": []}}, "mouseout": {"state": {"target": ["0", "5", "8"], "time": [903, 2154, 2853]}, "edge": {"target": [], "time": []}}}, "displayed_time": "10.57", "trialTime": 11259, "trial_type": "mouselab-mdp", "trial_index": 25, "time_elapsed": 623954, "internal_node_id": "0.0-4.0-1.0-10.0"}}, {"uniqueid": "w58601620:a29219035", "current_trial": 26, "dateTime": 1664368607155, "trialdata": {"revealed_states": [], "num_clicks_accrued": [0, 0, 0, 0, 0, 0, 0, 0, 0, 0, 0, 0, 0], "stateRewards": ["", 2, -8, 48, -24, -4, -8, -24, 48, -2, 4, 24, -48], "withholdReward": true, "trial_id": "mdp_186932504904", "block": "test1", "trialIndex": 15, "score": 46.5, "costs": -0.5, "simulationMode": [null, null, null], "rewards": [2, -8, 48], "path": ["0", "0", "1", "2", "3"], "rt": [3908, 147, 219], "actions": ["up", "up", "right"], "actionTimes": [5374, 6066, 6789], "queries": {"click": {"state": {"target": ["4", "3"], "time": [2878, 3878]}, "edge": {"target": [], "time": []}}, "mouseover": {"state": {"target": ["2", "4", "2", "3"], "time": [2449, 2496, 3181, 3631]}, "edge": {"target": [], "time": []}}, "mouseout": {"state": {"target": ["6", "5", "2", "4", "2", "3", "5"], "time": [580, 680, 2470, 3132, 3415, 4348, 11298]}, "edge": {"target": [], "time": []}}}, "displayed_time": "10.47", "trialTime": 11522, "trial_type": "mouselab-mdp", "trial_index": 26, "time_elapsed": 635806, "internal_node_id": "0.0-4.0-1.0-11.0"}}, {"uniqueid": "w58601620:a29219035", "current_trial": 27, "dateTime": 1664368618460, "trialdata": {"revealed_states": [], "num_clicks_accrued": [0, 0, 0, 0, 0, 0, 0, 0, 0, 0, 0, 0, 0], "stateRewards": ["", 2, -4, 24, 24, 4, -4, -24, 24, -4, -4, 48, 48], "withholdReward": true, "trial_id": "mdp_566306223773", "block": "test1", "trialIndex": 16, "score": 26.75, "costs": -0.25, "simulationMode": [null, null, null], "rewards": [2, -4, 24], "path": ["0", "0", "1", "2", "4"], "rt": [3044, 117, 444], "actions": ["up", "up", "left"], "actionTimes": [4224, 4855, 5815], "queries": {"click": {"state": {"target": ["4"], "time": [2641]}, "edge": {"target": [], "time": []}}, "mouseover": {"state": {"target": ["1", "2", "4", "2", "3"], "time": [1584, 2076, 2201, 2934, 3197]}, "edge": {"target": [], "time": []}}, "mouseout": {"state": {"target": ["0", "1", "2", "4", "2"], "time": [684, 1702, 2117, 2888, 3153]}, "edge": {"target": [], "time": []}}}, "displayed_time": "10.18", "trialTime": 10930, "trial_type": "mouselab-mdp", "trial_index": 27, "time_elapsed": 647111, "internal_node_id": "0.0-4.0-1.0-12.0"}}, {"uniqueid": "w58601620:a29219035", "current_trial": 28, "dateTime": 1664368630038, "trialdata": {"revealed_states": [], "num_clicks_accrued": [0, 0, 0, 0, 0, 0, 0, 0, 0, 0, 0, 0, 0], "stateRewards": ["", 2, -4, 48, -48, -2, 8, -48, 24, -2, -8, 48, 48], "withholdReward": true, "trial_id": "mdp_949326095747", "block": "test1", "trialIndex": 17, "score": 34.75, "costs": -0.25, "simulationMode": [null, null, null], "rewards": [-2, 8, 24], "path": ["0", "0", "5", "6", "8"], "rt": [2312, 51, 225], "actions": ["right", "right", "down"], "actionTimes": [3858, 4426, 5184], "queries": {"click": {"state": {"target": ["8"], "time": [2661]}, "edge": {"target": [], "time": []}}, "mouseover": {"state": {"target": ["0", "8"], "time": [1989, 2454]}, "edge": {"target": [], "time": []}}, "mouseout": {"state": {"target": ["3", "0", "8"], "time": [754, 2009, 3122]}, "edge": {"target": [], "time": []}}}, "displayed_time": "10.55", "trialTime": 11263, "trial_type": "mouselab-mdp", "trial_index": 28, "time_elapsed": 658689, "internal_node_id": "0.0-4.0-1.0-13.0"}}, {"uniqueid": "w58601620:a29219035", "current_trial": 29, "dateTime": 1664368643291, "trialdata": {"revealed_states": [], "num_clicks_accrued": [0, 0, 0, 0, 0, 0, 0, 0, 0, 0, 0, 0, 0], "stateRewards": ["", -2, -8, 24, -48, -4, 8, -48, -24, 4, 8, -24, 24], "withholdReward": true, "trial_id": "mdp_940444641142", "block": "test1", "trialIndex": 18, "score": 39.5, "costs": -1.5, "simulationMode": [null, null, null], "rewards": [4, 8, 24], "path": ["0", "0", "9", "10", "12"], "rt": [8291, 219, 593], "actions": ["left", "left", "down"], "actionTimes": [9571, 10284, 11392], "queries": {"click": {"state": {"target": ["11", "12", "7", "8", "4", "3"], "time": [1979, 2868, 3938, 4765, 6944, 7596]}, "edge": {"target": [], "time": []}}, "mouseover": {"state": {"target": ["11", "10", "12", "5", "7", "6", "8", "5", "2", "4", "2", "3"], "time": [1647, 2446, 2595, 3396, 3662, 4296, 4546, 5462, 5912, 6805, 7162, 7231]}, "edge": {"target": [], "time": []}}, "mouseout": {"state": {"target": ["0", "0", "11", "10", "12", "5", "7", "6", "8", "5", "2", "4", "2", "3"], "time": [546, 894, 2346, 2529, 3114, 3463, 4163, 4479, 5395, 5663, 6550, 7145, 7212, 7904]}, "edge": {"target": [], "time": []}}}, "displayed_time": "11.93", "trialTime": 12907, "trial_type": "mouselab-mdp", "trial_index": 29, "time_elapsed": 671942, "internal_node_id": "0.0-4.0-1.0-14.0"}}, {"uniqueid": "w58601620:a29219035", "current_trial": 30, "dateTime": 1664368653763, "trialdata": {"revealed_states": [], "num_clicks_accrued": [0, 0, 0, 0, 0, 0, 0, 0, 0, 0, 0, 0, 0], "stateRewards": ["", 2, -8, -24, 48, -4, -8, 24, -48, 4, -8, -24, -24], "withholdReward": false, "trial_id": "mdp_928911266656", "block": "test1", "trialIndex": 19, "score": -25, "costs": 0, "simulationMode": [null, null, null], "rewards": [2, -8, -24], "path": ["0", "0", "1", "2", "3"], "rt": [1624, 173, 368], "actions": ["up", "up", "right"], "actionTimes": [3161, 3841, 4753], "queries": {"click": {"state": {"target": [], "time": []}, "edge": {"target": [], "time": []}}, "mouseover": {"state": {"target": [], "time": []}, "edge": {"target": [], "time": []}}, "mouseout": {"state": {"target": ["0"], "time": [1068]}, "edge": {"target": [], "time": []}}}, "displayed_time": "9.54", "trialTime": 10115, "trial_type": "mouselab-mdp", "trial_index": 30, "time_elapsed": 682413, "internal_node_id": "0.0-4.0-1.0-15.0"}}, {"uniqueid": "w58601620:a29219035", "current_trial": 31, "dateTime": 1664368664437, "trialdata": {"revealed_states": [], "num_clicks_accrued": [0, 0, 0, 0, 0, 0, 0, 0, 0, 0, 0, 0, 0], "stateRewards": ["", 4, -4, 24, 48, 4, 8, -24, -24, -2, 4, 48, 48], "withholdReward": false, "trial_id": "mdp_624998450453", "block": "test1", "trialIndex": 20, "score": -7, "costs": 0, "simulationMode": [null, null, null], "rewards": [4, 8, -24], "path": ["0", "0", "5", "6", "7"], "rt": [1151, 1510, 192], "actions": ["right", "right", "up"], "actionTimes": [2308, 4318, 5017], "queries": {"click": {"state": {"target": [], "time": []}, "edge": {"target": [], "time": []}}, "mouseover": {"state": {"target": [], "time": []}, "edge": {"target": [], "time": []}}, "mouseout": {"state": {"target": ["0"], "time": [903]}, "edge": {"target": [], "time": []}}}, "displayed_time": "9.16", "trialTime": 10330, "trial_type": "mouselab-mdp", "trial_index": 31, "time_elapsed": 693088, "internal_node_id": "0.0-4.0-1.0-16.0"}}, {"uniqueid": "w58601620:a29219035", "current_trial": 32, "dateTime": 1664368676559, "trialdata": {"revealed_states": [], "num_clicks_accrued": [0, 0, 0, 0, 0, 0, 0, 0, 0, 0, 0, 0, 0], "stateRewards": ["", -4, 8, -24, -24, 2, 4, 48, 48, -2, 4, 24, -48], "withholdReward": false, "trial_id": "mdp_397308196941", "block": "test1", "trialIndex": 21, "score": -41, "costs": 0, "simulationMode": [null, null, null], "rewards": [-2, 4, -48], "path": ["0", "0", "9", "10", "12"], "rt": [1864, 157, 501], "actions": ["left", "left", "down"], "actionTimes": [3297, 3963, 4973], "queries": {"click": {"state": {"target": [], "time": []}, "edge": {"target": [], "time": []}}, "mouseover": {"state": {"target": [], "time": []}, "edge": {"target": [], "time": []}}, "mouseout": {"state": {"target": ["0"], "time": [1180]}, "edge": {"target": [], "time": []}}}, "displayed_time": "11.43", "trialTime": 11782, "trial_type": "mouselab-mdp", "trial_index": 32, "time_elapsed": 705210, "internal_node_id": "0.0-4.0-1.0-17.0"}}, {"uniqueid": "w58601620:a29219035", "current_trial": 33, "dateTime": 1664368689318, "trialdata": {"revealed_states": [], "num_clicks_accrued": [0, 0, 0, 0, 0, 0, 0, 0, 0, 0, 0, 0, 0], "stateRewards": ["", 2, 4, -48, 24, -4, 4, -24, 48, -2, -8, -48, 48], "withholdReward": false, "trial_id": "mdp_424193661731", "block": "test1", "trialIndex": 22, "score": 42.5, "costs": -0.5, "simulationMode": [null, null, null], "rewards": [-2, -8, 48], "path": ["0", "0", "9", "10", "12"], "rt": [2952, 10, 345], "actions": ["left", "left", "down"], "actionTimes": [5177, 5695, 6595], "queries": {"click": {"state": {"target": ["11", "12"], "time": [3182, 4021]}, "edge": {"target": [], "time": []}}, "mouseover": {"state": {"target": ["11", "12", "0"], "time": [2931, 3746, 4613]}, "edge": {"target": [], "time": []}}, "mouseout": {"state": {"target": ["0", "11", "12"], "time": [1933, 3498, 4248]}, "edge": {"target": [], "time": []}}}, "displayed_time": "10.22", "trialTime": 12405, "trial_type": "mouselab-mdp", "trial_index": 33, "time_elapsed": 717969, "internal_node_id": "0.0-4.0-1.0-18.0"}}, {"uniqueid": "w58601620:a29219035", "current_trial": 34, "dateTime": 1664368698798, "trialdata": {"revealed_states": [], "num_clicks_accrued": [0, 0, 0, 0, 0, 0, 0, 0, 0, 0, 0, 0, 0], "stateRewards": ["", -4, -8, 48, -48, 2, -4, 48, -24, 2, -8, -48, -48], "withholdReward": true, "trial_id": "mdp_624553692913", "block": "test1", "trialIndex": 23, "score": 40.5, "costs": -0.5, "simulationMode": [null, null, null], "rewards": [-4, -8, 48], "path": ["0", "0", "1", "2", "3"], "rt": [3135, 763, 187], "actions": ["up", "up", "right"], "actionTimes": [4326, 5594, 6294], "queries": {"click": {"state": {"target": ["4", "3"], "time": [2406, 3289]}, "edge": {"target": [], "time": []}}, "mouseover": {"state": {"target": ["1", "2", "4", "4", "2", "3"], "time": [1628, 1760, 1946, 2276, 2711, 2877]}, "edge": {"target": [], "time": []}}, "mouseout": {"state": {"target": ["0", "1", "2", "4", "4", "2", "3", "1"], "time": [709, 1677, 1926, 1977, 2680, 2793, 3526, 7760]}, "edge": {"target": [], "time": []}}}, "displayed_time": "8.19", "trialTime": 9081, "trial_type": "mouselab-mdp", "trial_index": 34, "time_elapsed": 727448, "internal_node_id": "0.0-4.0-1.0-19.0"}}, {"uniqueid": "w58601620:a29219035", "current_trial": 35, "dateTime": 1664368710212, "trialdata": {"revealed_states": [], "num_clicks_accrued": [0, 0, 0, 0, 0, 0, 0, 0, 0, 0, 0, 0, 0], "stateRewards": ["", -2, 4, 24, 48, 2, 4, -48, -48, 2, 8, 48, -48], "withholdReward": true, "trial_id": "mdp_409609775558", "block": "test1", "trialIndex": 24, "score": 30.75, "costs": -0.25, "simulationMode": [null, null, null], "rewards": [-2, 4, 24], "path": ["0", "0", "1", "2", "3"], "rt": [2841, 265, 108], "actions": ["up", "up", "right"], "actionTimes": [4383, 5153, 5763], "queries": {"click": {"state": {"target": ["3"], "time": [3186]}, "edge": {"target": [], "time": []}}, "mouseover": {"state": {"target": ["1", "2", "2", "3", "2", "4"], "time": [2219, 2350, 2667, 2967, 3388, 3502]}, "edge": {"target": [], "time": []}}, "mouseout": {"state": {"target": ["0", "1", "2", "2", "3", "2"], "time": [1168, 2302, 2502, 2718, 3369, 3410]}, "edge": {"target": [], "time": []}}}, "displayed_time": "10.54", "trialTime": 10987, "trial_type": "mouselab-mdp", "trial_index": 35, "time_elapsed": 738862, "internal_node_id": "0.0-4.0-1.0-20.0"}}, {"uniqueid": "w58601620:a29219035", "current_trial": 36, "dateTime": 1664368721442, "trialdata": {"revealed_states": [], "num_clicks_accrued": [0, 0, 0, 0, 0, 0, 0, 0, 0, 0, 0, 0, 0], "stateRewards": ["", -4, -8, 48, 48, -4, 4, 48, -24, 4, 8, -24, -48], "withholdReward": true, "trial_id": "mdp_142906093415", "block": "test1", "trialIndex": 25, "score": 52.75, "costs": -0.25, "simulationMode": [null, null, null], "rewards": [-4, 4, 48], "path": ["0", "0", "5", "6", "7"], "rt": [1787, 93, 265], "actions": ["right", "right", "up"], "actionTimes": [3252, 3841, 4611], "queries": {"click": {"state": {"target": ["7"], "time": [2210]}, "edge": {"target": [], "time": []}}, "mouseover": {"state": {"target": ["5", "6", "7"], "time": [1710, 1764, 2010]}, "edge": {"target": [], "time": []}}, "mouseout": {"state": {"target": ["4", "0", "5", "6", "7"], "time": [497, 1660, 1743, 1826, 2558]}, "edge": {"target": [], "time": []}}}, "displayed_time": "9.47", "trialTime": 10842, "trial_type": "mouselab-mdp", "trial_index": 36, "time_elapsed": 750093, "internal_node_id": "0.0-4.0-1.0-21.0"}}, {"uniqueid": "w58601620:a29219035", "current_trial": 37, "dateTime": 1664368734193, "trialdata": {"revealed_states": [], "num_clicks_accrued": [0, 0, 0, 0, 0, 0, 0, 0, 0, 0, 0, 0, 0], "stateRewards": ["", -4, 8, 48, -48, 2, -4, 24, -24, -2, 4, -24, -24], "withholdReward": true, "trial_id": "mdp_804988042722", "block": "test1", "trialIndex": 26, "score": 56.5, "costs": -0.5, "simulationMode": [null, null, null], "rewards": [-4, 8, 48], "path": ["0", "0", "1", "2", "3"], "rt": [3499, 8, 72], "actions": ["up", "up", "right"], "actionTimes": [6029, 6562, 7186], "queries": {"click": {"state": {"target": ["4", "3"], "time": [3967, 4965]}, "edge": {"target": [], "time": []}}, "mouseover": {"state": {"target": ["1", "4", "2", "3"], "time": [3151, 3783, 4448, 4748]}, "edge": {"target": [], "time": []}}, "mouseout": {"state": {"target": ["4", "2", "1", "1", "4", "2", "3"], "time": [564, 731, 830, 3265, 4365, 4513, 5214]}, "edge": {"target": [], "time": []}}}, "displayed_time": "11.53", "trialTime": 12349, "trial_type": "mouselab-mdp", "trial_index": 37, "time_elapsed": 762844, "internal_node_id": "0.0-4.0-1.0-22.0"}}, {"uniqueid": "w58601620:a29219035", "current_trial": 38, "dateTime": 1664368744959, "trialdata": {"revealed_states": [], "num_clicks_accrued": [0, 0, 0, 0, 0, 0, 0, 0, 0, 0, 0, 0, 0], "stateRewards": ["", 2, 8, -48, -24, 4, 4, 24, 48, 4, -4, -48, 48], "withholdReward": false, "trial_id": "mdp_665096999232", "block": "test1", "trialIndex": 27, "score": 52.75, "costs": -0.25, "simulationMode": [null, null, null], "rewards": [4, -4, 48], "path": ["0", "0", "9", "10", "12"], "rt": [2041, 147, 263], "actions": ["left", "left", "down"], "actionTimes": [3525, 4179, 4975], "queries": {"click": {"state": {"target": ["12"], "time": [2425]}, "edge": {"target": [], "time": []}}, "mouseover": {"state": {"target": ["9", "10", "12"], "time": [1978, 2178, 2249]}, "edge": {"target": [], "time": []}}, "mouseout": {"state": {"target": ["9", "10", "12"], "time": [2001, 2199, 2745]}, "edge": {"target": [], "time": []}}}, "displayed_time": "9.48", "trialTime": 10347, "trial_type": "mouselab-mdp", "trial_index": 38, "time_elapsed": 773610, "internal_node_id": "0.0-4.0-1.0-23.0"}}, {"uniqueid": "w58601620:a29219035", "current_trial": 39, "dateTime": 1664368757170, "trialdata": {"revealed_states": [], "num_clicks_accrued": [0, 0, 0, 0, 0, 0, 0, 0, 0, 0, 0, 0, 0], "stateRewards": ["", -2, 8, 48, 24, 2, -4, 48, -48, 2, 8, 24, -24], "withholdReward": false, "trial_id": "mdp_176207245985", "block": "test1", "trialIndex": 28, "score": 38.75, "costs": -0.25, "simulationMode": [null, null, null], "rewards": [2, 8, 24], "path": ["0", "0", "9", "10", "11"], "rt": [2000, 71, 293], "actions": ["left", "left", "up"], "actionTimes": [3491, 4085, 4891], "queries": {"click": {"state": {"target": ["11"], "time": [2482]}, "edge": {"target": [], "time": []}}, "mouseover": {"state": {"target": ["0", "9", "11"], "time": [1515, 1961, 2230]}, "edge": {"target": [], "time": []}}, "mouseout": {"state": {"target": ["0", "0", "9", "11", "9"], "time": [1142, 1889, 1993, 2710, 10911]}, "edge": {"target": [], "time": []}}}, "displayed_time": "10.49", "trialTime": 11839, "trial_type": "mouselab-mdp", "trial_index": 39, "time_elapsed": 785820, "internal_node_id": "0.0-4.0-1.0-24.0"}}, {"uniqueid": "w58601620:a29219035", "current_trial": 40, "dateTime": 1664368767497, "trialdata": {"revealed_states": [], "num_clicks_accrued": [0, 0, 0, 0, 0, 0, 0, 0, 0, 0, 0, 0, 0], "stateRewards": ["", 4, 4, 48, -24, -4, -8, 24, -24, 2, -8, -24, 24], "withholdReward": true, "trial_id": "mdp_933201675789", "block": "test1", "trialIndex": 29, "score": 60.75, "costs": -0.25, "simulationMode": [null, null, null], "rewards": [4, 4, 48], "path": ["0", "0", "1", "2", "3"], "rt": [2008, 85, 269], "actions": ["up", "up", "right"], "actionTimes": [3416, 4025, 4810], "queries": {"click": {"state": {"target": ["3"], "time": [2258]}, "edge": {"target": [], "time": []}}, "mouseover": {"state": {"target": ["1", "3"], "time": [1787, 1886]}, "edge": {"target": [], "time": []}}, "mouseout": {"state": {"target": ["0", "1", "3"], "time": [937, 1821, 2487]}, "edge": {"target": [], "time": []}}}, "displayed_time": "9.41", "trialTime": 9911, "trial_type": "mouselab-mdp", "trial_index": 40, "time_elapsed": 796148, "internal_node_id": "0.0-4.0-1.0-25.0"}}, {"uniqueid": "w58601620:a29219035", "current_trial": 41, "dateTime": 1664368778950, "trialdata": {"revealed_states": [], "num_clicks_accrued": [0, 0, 0, 0, 0, 0, 0, 0, 0, 0, 0, 0, 0], "stateRewards": ["", -2, -8, 48, 24, -2, 8, -48, -24, -2, 4, -48, 48], "withholdReward": true, "trial_id": "mdp_295220852217", "block": "test1", "trialIndex": 30, "score": -37.25, "costs": -0.25, "simulationMode": [null, null, null], "rewards": [-2, 8, -48], "path": ["0", "0", "5", "6", "7"], "rt": [4096, 11, 100], "actions": ["right", "right", "up"], "actionTimes": [6010, 6526, 7162], "queries": {"click": {"state": {"target": ["8"], "time": [2850]}, "edge": {"target": [], "time": []}}, "mouseover": {"state": {"target": ["5", "8"], "time": [2327, 2445]}, "edge": {"target": [], "time": []}}, "mouseout": {"state": {"target": ["3", "1", "5"], "time": [878, 1426, 2393]}, "edge": {"target": [], "time": []}}}, "displayed_time": "10.19", "trialTime": 11037, "trial_type": "mouselab-mdp", "trial_index": 41, "time_elapsed": 807601, "internal_node_id": "0.0-4.0-1.0-26.0"}}, {"uniqueid": "w58601620:a29219035", "current_trial": 42, "dateTime": 1664368789482, "trialdata": {"revealed_states": [], "num_clicks_accrued": [0, 0, 0, 0, 0, 0, 0, 0, 0, 0, 0, 0, 0], "stateRewards": ["", 2, -8, 24, 24, 2, 4, -48, -48, 4, 4, -24, 48], "withholdReward": true, "trial_id": "mdp_985707010949", "block": "test1", "trialIndex": 31, "score": 60.75, "costs": -0.25, "simulationMode": [null, null, null], "rewards": [4, 4, 48], "path": ["0", "0", "9", "10", "12"], "rt": [2135, 85, 173], "actions": ["left", "left", "down"], "actionTimes": [3500, 4100, 4773], "queries": {"click": {"state": {"target": ["11"], "time": [2101]}, "edge": {"target": [], "time": []}}, "mouseover": {"state": {"target": ["11"], "time": [1844]}, "edge": {"target": [], "time": []}}, "mouseout": {"state": {"target": ["8", "0"], "time": [528, 1043]}, "edge": {"target": [], "time": []}}}, "displayed_time": "9.37", "trialTime": 9904, "trial_type": "mouselab-mdp", "trial_index": 42, "time_elapsed": 818133, "internal_node_id": "0.0-4.0-1.0-27.0"}}, {"uniqueid": "w58601620:a29219035", "current_trial": 43, "dateTime": 1664368800619, "trialdata": {"revealed_states": [], "num_clicks_accrued": [0, 0, 0, 0, 0, 0, 0, 0, 0, 0, 0, 0, 0], "stateRewards": ["", 2, 4, -48, -48, 2, 4, 48, -24, -2, 8, 48, -48], "withholdReward": true, "trial_id": "mdp_258528916140", "block": "test1", "trialIndex": 32, "score": -37.25, "costs": -0.25, "simulationMode": [null, null, null], "rewards": [2, 4, -48], "path": ["0", "0", "1", "2", "4"], "rt": [2547, 11, 231], "actions": ["up", "up", "left"], "actionTimes": [3792, 4318, 5085], "queries": {"click": {"state": {"target": ["3"], "time": [2365]}, "edge": {"target": [], "time": []}}, "mouseover": {"state": {"target": ["1", "3", "2"], "time": [1803, 2069, 2920]}, "edge": {"target": [], "time": []}}, "mouseout": {"state": {"target": ["11", "0", "1", "3", "2"], "time": [401, 869, 1870, 2890, 2953]}, "edge": {"target": [], "time": []}}}, "displayed_time": "10.26", "trialTime": 10767, "trial_type": "mouselab-mdp", "trial_index": 43, "time_elapsed": 829270, "internal_node_id": "0.0-4.0-1.0-28.0"}}, {"uniqueid": "w58601620:a29219035", "current_trial": 44, "dateTime": 1664368812009, "trialdata": {"revealed_states": [], "num_clicks_accrued": [0, 0, 0, 0, 0, 0, 0, 0, 0, 0, 0, 0, 0], "stateRewards": ["", 4, 4, 24, -48, 2, -8, -24, -48, 4, 8, 48, 48], "withholdReward": true, "trial_id": "mdp_592471239511", "block": "test1", "trialIndex": 33, "score": 36.75, "costs": -0.25, "simulationMode": [null, null, null], "rewards": [4, 4, 24], "path": ["0", "0", "1", "2", "3"], "rt": [2572, 28, 11], "actions": ["up", "up", "right"], "actionTimes": [4106, 4635, 5168], "queries": {"click": {"state": {"target": ["4"], "time": [2311]}, "edge": {"target": [], "time": []}}, "mouseover": {"state": {"target": ["4"], "time": [2026]}, "edge": {"target": [], "time": []}}, "mouseout": {"state": {"target": ["2", "5", "4"], "time": [553, 902, 2620]}, "edge": {"target": [], "time": []}}}, "displayed_time": "10.54", "trialTime": 11008, "trial_type": "mouselab-mdp", "trial_index": 44, "time_elapsed": 840660, "internal_node_id": "0.0-4.0-1.0-29.0"}}, {"uniqueid": "w58601620:a29219035", "current_trial": 45, "dateTime": 1664368821828, "trialdata": {"rt": 9798, "stimulus": "<h1> End of block! </h1>\n\nYou have reached the end of the block 1/4. If you need a short break, feel free to take one now before moving on.\n\n<br><br>\nIn the next block, you will complete another 30 rounds of this game.\n\n<br><br>\n<div style='text-align: center;'>Press <code>space</code> to begin.</div>\n<br><br>\n<div style='text-align: center;'>(If the experiment doesn't continue, try clicking on the text and then pressing <code>space</code>.)</div>", "response": " ", "trial_id": "mdp_ready_2", "trial_type": "html-keyboard-response", "trial_index": 45, "time_elapsed": 850479, "internal_node_id": "0.0-4.0-2.0"}}, {"uniqueid": "w58601620:a29219035", "current_trial": 46, "dateTime": 1664368833349, "trialdata": {"revealed_states": [], "num_clicks_accrued": [0, 0, 0, 0, 0, 0, 0, 0, 0, 0, 0, 0, 0], "stateRewards": ["", -4, 8, -24, -24, 4, -8, 48, -24, -4, -8, -24, -48], "withholdReward": true, "trial_id": "mdp_391766721791", "block": "test2", "trialIndex": 34, "score": -31.25, "costs": -0.25, "simulationMode": [null, null, null], "rewards": [-4, -8, -24], "path": ["0", "0", "9", "10", "11"], "rt": [2275, 982, 231], "actions": ["left", "left", "up"], "actionTimes": [3936, 5426, 6156], "queries": {"click": {"state": {"target": ["12"], "time": [2659]}, "edge": {"target": [], "time": []}}, "mouseover": {"state": {"target": ["9", "10", "12"], "time": [2105, 2304, 2554]}, "edge": {"target": [], "time": []}}, "mouseout": {"state": {"target": ["9", "0", "9", "10", "12"], "time": [854, 1070, 2172, 2405, 2955]}, "edge": {"target": [], "time": []}}}, "displayed_time": "10.64", "trialTime": 11084, "trial_type": "mouselab-mdp", "trial_index": 46, "time_elapsed": 862000, "internal_node_id": "0.0-4.0-3.0-0.0"}}, {"uniqueid": "w58601620:a29219035", "current_trial": 47, "dateTime": 1664368844491, "trialdata": {"revealed_states": [], "num_clicks_accrued": [0, 0, 0, 0, 0, 0, 0, 0, 0, 0, 0, 0, 0], "stateRewards": ["", -4, -8, 24, 48, 2, -4, -24, 24, -4, 8, 48, 48], "withholdReward": true, "trial_id": "mdp_496672670022", "block": "test2", "trialIndex": 35, "score": 56.75, "costs": -0.25, "simulationMode": [null, null, null], "rewards": [-4, 8, 48], "path": ["0", "0", "9", "10", "11"], "rt": [1821, 48, 593], "actions": ["left", "left", "up"], "actionTimes": [3109, 3680, 4809], "queries": {"click": {"state": {"target": ["11"], "time": [2085]}, "edge": {"target": [], "time": []}}, "mouseover": {"state": {"target": ["11"], "time": [1729]}, "edge": {"target": [], "time": []}}, "mouseout": {"state": {"target": ["0", "11"], "time": [977, 2262]}, "edge": {"target": [], "time": []}}}, "displayed_time": "10.29", "trialTime": 10766, "trial_type": "mouselab-mdp", "trial_index": 47, "time_elapsed": 873141, "internal_node_id": "0.0-4.0-3.0-1.0"}}, {"uniqueid": "w58601620:a29219035", "current_trial": 48, "dateTime": 1664368854979, "trialdata": {"revealed_states": [], "num_clicks_accrued": [0, 0, 0, 0, 0, 0, 0, 0, 0, 0, 0, 0, 0], "stateRewards": ["", 2, -4, 48, -48, 2, 4, -24, 24, -4, -8, 24, -48], "withholdReward": true, "trial_id": "mdp_238810765895", "block": "test2", "trialIndex": 36, "score": 34.75, "costs": -0.25, "simulationMode": [null, null, null], "rewards": [2, 4, 24], "path": ["0", "0", "5", "6", "8"], "rt": [2351, 668, 254], "actions": ["right", "right", "down"], "actionTimes": [3464, 4654, 5407], "queries": {"click": {"state": {"target": ["7"], "time": [2087]}, "edge": {"target": [], "time": []}}, "mouseover": {"state": {"target": ["7"], "time": [1799]}, "edge": {"target": [], "time": []}}, "mouseout": {"state": {"target": [], "time": []}, "edge": {"target": [], "time": []}}}, "displayed_time": "9.11", "trialTime": 10108, "trial_type": "mouselab-mdp", "trial_index": 48, "time_elapsed": 883629, "internal_node_id": "0.0-4.0-3.0-2.0"}}, {"uniqueid": "w58601620:a29219035", "current_trial": 49, "dateTime": 1664368867273, "trialdata": {"revealed_states": [], "num_clicks_accrued": [0, 0, 0, 0, 0, 0, 0, 0, 0, 0, 0, 0, 0], "stateRewards": ["", -2, 8, 48, -24, 2, 4, -48, -24, -4, 8, -48, -48], "withholdReward": false, "trial_id": "mdp_539167561933", "block": "test2", "trialIndex": 37, "score": -39.25, "costs": -0.25, "simulationMode": [null, null, null], "rewards": [-4, 8, -48], "path": ["0", "0", "9", "10", "12"], "rt": [2367, 1110, 276], "actions": ["left", "left", "down"], "actionTimes": [3468, 5082, 5881], "queries": {"click": {"state": {"target": ["11"], "time": [2049]}, "edge": {"target": [], "time": []}}, "mouseover": {"state": {"target": ["9", "11", "9", "0"], "time": [1268, 1785, 2351, 2603]}, "edge": {"target": [], "time": []}}, "mouseout": {"state": {"target": ["7", "9", "11", "9"], "time": [384, 1519, 2285, 2552]}, "edge": {"target": [], "time": []}}}, "displayed_time": "10.10", "trialTime": 11922, "trial_type": "mouselab-mdp", "trial_index": 49, "time_elapsed": 895923, "internal_node_id": "0.0-4.0-3.0-3.0"}}, {"uniqueid": "w58601620:a29219035", "current_trial": 50, "dateTime": 1664368883062, "trialdata": {"revealed_states": [], "num_clicks_accrued": [0, 0, 0, 0, 0, 0, 0, 0, 0, 0, 0, 0, 0], "stateRewards": ["", -4, -8, -48, 48, -2, 8, 48, 48, -2, -4, -48, -48], "withholdReward": true, "trial_id": "mdp_752833580638", "block": "test2", "trialIndex": 38, "score": -49.25, "costs": -0.25, "simulationMode": [null, null, null], "rewards": [-2, -4, -48], "path": ["0", "0", "9", "10", "11"], "rt": [3052, 11, 464], "actions": ["left", "left", "up"], "actionTimes": [4496, 5012, 6015], "queries": {"click": {"state": {"target": ["12"], "time": [3248]}, "edge": {"target": [], "time": []}}, "mouseover": {"state": {"target": ["0", "4", "4", "12"], "time": [2114, 2261, 2481, 2796]}, "edge": {"target": [], "time": []}}, "mouseout": {"state": {"target": ["0", "0", "4", "4", "12", "9", "11", "9", "0"], "time": [1044, 2195, 2296, 2528, 3495, 9444, 10995, 11078, 11744]}, "edge": {"target": [], "time": []}}}, "displayed_time": "10.44", "trialTime": 15356, "trial_type": "mouselab-mdp", "trial_index": 50, "time_elapsed": 911712, "internal_node_id": "0.0-4.0-3.0-4.0"}}, {"uniqueid": "w58601620:a29219035", "current_trial": 51, "dateTime": 1664368893246, "trialdata": {"revealed_states": [], "num_clicks_accrued": [0, 0, 0, 0, 0, 0, 0, 0, 0, 0, 0, 0, 0], "stateRewards": ["", 4, -4, 48, -48, 2, 8, -48, 24, -2, -4, -24, 48], "withholdReward": true, "trial_id": "mdp_937564992306", "block": "test2", "trialIndex": 39, "score": 52.75, "costs": -0.25, "simulationMode": [null, null, null], "rewards": [4, -4, 48], "path": ["0", "0", "1", "2", "3"], "rt": [3835, 14, 223], "actions": ["up", "up", "right"], "actionTimes": [5016, 5531, 6291], "queries": {"click": {"state": {"target": ["4"], "time": [3519]}, "edge": {"target": [], "time": []}}, "mouseover": {"state": {"target": ["4", "2"], "time": [3266, 4064]}, "edge": {"target": [], "time": []}}, "mouseout": {"state": {"target": ["0", "4", "2"], "time": [846, 3896, 4131]}, "edge": {"target": [], "time": []}}}, "displayed_time": "9.18", "trialTime": 9575, "trial_type": "mouselab-mdp", "trial_index": 51, "time_elapsed": 921897, "internal_node_id": "0.0-4.0-3.0-5.0"}}, {"uniqueid": "w58601620:a29219035", "current_trial": 52, "dateTime": 1664368904644, "trialdata": {"revealed_states": [], "num_clicks_accrued": [0, 0, 0, 0, 0, 0, 0, 0, 0, 0, 0, 0, 0], "stateRewards": ["", 2, -8, -24, 48, 4, -8, -24, -24, 2, 8, -24, 24], "withholdReward": true, "trial_id": "mdp_480787552818", "block": "test2", "trialIndex": 40, "score": 46.75, "costs": -0.25, "simulationMode": [null, null, null], "rewards": [2, -8, 48], "path": ["0", "0", "1", "2", "4"], "rt": [1976, 23, 137], "actions": ["up", "up", "left"], "actionTimes": [3146, 3673, 4334], "queries": {"click": {"state": {"target": ["4"], "time": [2091]}, "edge": {"target": [], "time": []}}, "mouseover": {"state": {"target": ["1", "4"], "time": [1626, 1876]}, "edge": {"target": [], "time": []}}, "mouseout": {"state": {"target": ["1"], "time": [1659]}, "edge": {"target": [], "time": []}}}, "displayed_time": "10.17", "trialTime": 10936, "trial_type": "mouselab-mdp", "trial_index": 52, "time_elapsed": 933294, "internal_node_id": "0.0-4.0-3.0-6.0"}}, {"uniqueid": "w58601620:a29219035", "current_trial": 53, "dateTime": 1664368917144, "trialdata": {"revealed_states": [], "num_clicks_accrued": [0, 0, 0, 0, 0, 0, 0, 0, 0, 0, 0, 0, 0], "stateRewards": ["", -2, 4, -48, -48, 4, 4, 48, -48, 2, 8, 24, 48], "withholdReward": false, "trial_id": "mdp_686771069745", "block": "test2", "trialIndex": 41, "score": 60, "costs": -1, "simulationMode": [null, null, null], "rewards": [4, 4, 48], "path": ["0", "0", "5", "6", "7"], "rt": [6467, 804, 353], "actions": ["right", "right", "up"], "actionTimes": [7844, 9182, 10034], "queries": {"click": {"state": {"target": ["3", "4", "11", "7"], "time": [2118, 3465, 5161, 6649]}, "edge": {"target": [], "time": []}}, "mouseover": {"state": {"target": ["1", "3", "2", "4", "2", "1", "11", "7"], "time": [1661, 1876, 2929, 3210, 3827, 4444, 4926, 6383]}, "edge": {"target": [], "time": []}}, "mouseout": {"state": {"target": ["4", "1", "3", "2", "4", "2", "1", "11", "7"], "time": [492, 1694, 2877, 3178, 3726, 4362, 4610, 5575, 11709]}, "edge": {"target": [], "time": []}}}, "displayed_time": "10.53", "trialTime": 12137, "trial_type": "mouselab-mdp", "trial_index": 53, "time_elapsed": 945794, "internal_node_id": "0.0-4.0-3.0-7.0"}}, {"uniqueid": "w58601620:a29219035", "current_trial": 54, "dateTime": 1664368928166, "trialdata": {"revealed_states": [], "num_clicks_accrued": [0, 0, 0, 0, 0, 0, 0, 0, 0, 0, 0, 0, 0], "stateRewards": ["", 2, -4, 48, -48, -4, -8, -48, 24, -4, 4, 48, 48], "withholdReward": false, "trial_id": "mdp_544803968425", "block": "test2", "trialIndex": 42, "score": 16.75, "costs": -0.25, "simulationMode": [null, null, null], "rewards": [-4, -8, 24], "path": ["0", "0", "5", "6", "8"], "rt": [3653, 32, 1353], "actions": ["right", "right", "down"], "actionTimes": [4911, 5440, 7311], "queries": {"click": {"state": {"target": ["8"], "time": [2326]}, "edge": {"target": [], "time": []}}, "mouseover": {"state": {"target": ["5", "6", "8"], "time": [1823, 1938, 2104]}, "edge": {"target": [], "time": []}}, "mouseout": {"state": {"target": ["5", "0", "5", "6", "8"], "time": [504, 820, 1890, 2038, 9878]}, "edge": {"target": [], "time": []}}}, "displayed_time": "9.26", "trialTime": 10572, "trial_type": "mouselab-mdp", "trial_index": 54, "time_elapsed": 956817, "internal_node_id": "0.0-4.0-3.0-8.0"}}, {"uniqueid": "w58601620:a29219035", "current_trial": 55, "dateTime": 1664368939924, "trialdata": {"revealed_states": [], "num_clicks_accrued": [0, 0, 0, 0, 0, 0, 0, 0, 0, 0, 0, 0, 0], "stateRewards": ["", -4, 8, -24, -24, 2, 4, 48, 48, -2, 4, 24, -48], "withholdReward": true, "trial_id": "mdp_397308196941", "block": "test2", "trialIndex": 43, "score": 57.75, "costs": -1.25, "simulationMode": [null, null, null], "rewards": [2, 4, 48], "path": ["0", "0", "5", "6", "7"], "rt": [6272, 767, 312], "actions": ["right", "right", "up"], "actionTimes": [7277, 8584, 9395], "queries": {"click": {"state": {"target": ["12", "11", "4", "3", "7"], "time": [1979, 2858, 4025, 4900, 5888]}, "edge": {"target": [], "time": []}}, "mouseover": {"state": {"target": ["0", "12", "10", "11", "1", "2", "4", "2", "3", "7", "6"], "time": [1531, 1812, 2512, 2644, 3461, 3563, 3761, 4413, 4712, 5345, 6481]}, "edge": {"target": [], "time": []}}, "mouseout": {"state": {"target": ["0", "0", "12", "10", "11", "1", "2", "4", "2", "3", "7", "6"], "time": [644, 1563, 2428, 2579, 3096, 3512, 3696, 4365, 4614, 5195, 6246, 6712]}, "edge": {"target": [], "time": []}}}, "displayed_time": "9.90", "trialTime": 11237, "trial_type": "mouselab-mdp", "trial_index": 55, "time_elapsed": 968575, "internal_node_id": "0.0-4.0-3.0-9.0"}}, {"uniqueid": "w58601620:a29219035", "current_trial": 56, "dateTime": 1664368959230, "trialdata": {"revealed_states": [], "num_clicks_accrued": [0, 0, 0, 0, 0, 0, 0, 0, 0, 0, 0, 0, 0], "stateRewards": ["", -4, 8, 24, -24, 4, -8, -24, -24, -2, 8, -48, 24], "withholdReward": true, "trial_id": "mdp_240302100183", "block": "test2", "trialIndex": 44, "score": 30.25, "costs": -2.75, "simulationMode": [null, null, null], "rewards": [-4, 8, 24], "path": ["0", "0", "1", "2", "3"], "rt": [14071, 84, 474], "actions": ["up", "up", "right"], "actionTimes": [16001, 16598, 17573], "queries": {"click": {"state": {"target": ["8", "7", "11", "10", "12", "4", "2", "3", "9", "5", "6"], "time": [3647, 4592, 5666, 6486, 7769, 9146, 9849, 10416, 11498, 12450, 13179]}, "edge": {"target": [], "time": []}}, "mouseover": {"state": {"target": ["5", "8", "8", "6", "7", "7", "9", "11", "10", "12", "9", "4", "2", "3", "5", "0", "9", "0", "5", "5", "6"], "time": [3029, 3134, 3494, 4161, 4294, 4394, 5060, 5477, 6327, 7557, 8561, 9025, 9610, 10250, 11059, 11160, 11294, 11793, 11928, 12244, 12843]}, "edge": {"target": [], "time": []}}, "mouseout": {"state": {"target": ["6", "5", "0", "5", "8", "8", "6", "7", "7", "9", "11", "10", "12", "9", "4", "2", "3", "5", "0", "9", "0", "5", "5", "6"], "time": [977, 1310, 2407, 3060, 3178, 4128, 4244, 4344, 4944, 5094, 6110, 6876, 8326, 8629, 9461, 10187, 10843, 11127, 11211, 11727, 11876, 11994, 12776, 13476]}, "edge": {"target": [], "time": []}}}, "displayed_time": "18.08", "trialTime": 18910, "trial_type": "mouselab-mdp", "trial_index": 56, "time_elapsed": 987881, "internal_node_id": "0.0-4.0-3.0-10.0"}}, {"uniqueid": "w58601620:a29219035", "current_trial": 57, "dateTime": 1664368969666, "trialdata": {"revealed_states": [], "num_clicks_accrued": [0, 0, 0, 0, 0, 0, 0, 0, 0, 0, 0, 0, 0], "stateRewards": ["", -2, -4, -48, 48, -2, -4, 24, 48, -4, -8, -24, 24], "withholdReward": false, "trial_id": "mdp_917590390609", "block": "test2", "trialIndex": 45, "score": 47, "costs": 0, "simulationMode": [null, null, null], "rewards": [-2, -4, 48], "path": ["0", "0", "1", "2", "4"], "rt": [2136, 713, 308], "actions": ["up", "up", "left"], "actionTimes": [4745, 5963, 6782], "queries": {"click": {"state": {"target": [], "time": []}, "edge": {"target": [], "time": []}}, "mouseover": {"state": {"target": ["5"], "time": [3714]}, "edge": {"target": [], "time": []}}, "mouseout": {"state": {"target": ["5", "0", "5"], "time": [2095, 3376, 8160]}, "edge": {"target": [], "time": []}}}, "displayed_time": "9.59", "trialTime": 9995, "trial_type": "mouselab-mdp", "trial_index": 57, "time_elapsed": 998317, "internal_node_id": "0.0-4.0-3.0-11.0"}}, {"uniqueid": "w58601620:a29219035", "current_trial": 58, "dateTime": 1664368978951, "trialdata": {"revealed_states": [], "num_clicks_accrued": [0, 0, 0, 0, 0, 0, 0, 0, 0, 0, 0, 0, 0], "stateRewards": ["", 4, 4, 48, -48, -2, -8, -48, -24, 2, 4, -24, -48], "withholdReward": true, "trial_id": "mdp_239929662917", "block": "test2", "trialIndex": 46, "score": -29, "costs": 0, "simulationMode": [null, null, null], "rewards": [-2, -8, -24], "path": ["0", "0", "5", "6", "8"], "rt": [2152, 640, 330], "actions": ["right", "right", "down"], "actionTimes": [3528, 4673, 5509], "queries": {"click": {"state": {"target": [], "time": []}, "edge": {"target": [], "time": []}}, "mouseover": {"state": {"target": ["1", "5", "8", "6"], "time": [2059, 2259, 2342, 2759]}, "edge": {"target": [], "time": []}}, "mouseout": {"state": {"target": ["0", "5", "5", "0", "1", "5", "8", "6"], "time": [445, 529, 725, 774, 2200, 2285, 2675, 6743]}, "edge": {"target": [], "time": []}}}, "displayed_time": "8.38", "trialTime": 8765, "trial_type": "mouselab-mdp", "trial_index": 58, "time_elapsed": 1007602, "internal_node_id": "0.0-4.0-3.0-12.0"}}, {"uniqueid": "w58601620:a29219035", "current_trial": 59, "dateTime": 1664368989499, "trialdata": {"revealed_states": [], "num_clicks_accrued": [0, 0, 0, 0, 0, 0, 0, 0, 0, 0, 0, 0, 0], "stateRewards": ["", 2, -4, 48, -48, -2, 8, -48, 24, -2, -8, 48, 48], "withholdReward": false, "trial_id": "mdp_949326095747", "block": "test2", "trialIndex": 47, "score": 35, "costs": 0, "simulationMode": [null, null, null], "rewards": [-2, 8, 24], "path": ["0", "0", "5", "6", "8"], "rt": [2203, 137, 662], "actions": ["right", "right", "down"], "actionTimes": [3098, 3755, 4915], "queries": {"click": {"state": {"target": [], "time": []}, "edge": {"target": [], "time": []}}, "mouseover": {"state": {"target": ["0", "9", "0"], "time": [1667, 1936, 2099]}, "edge": {"target": [], "time": []}}, "mouseout": {"state": {"target": ["5", "0", "9", "0"], "time": [33, 1749, 1966, 2299]}, "edge": {"target": [], "time": []}}}, "displayed_time": "8.90", "trialTime": 10068, "trial_type": "mouselab-mdp", "trial_index": 59, "time_elapsed": 1018149, "internal_node_id": "0.0-4.0-3.0-13.0"}}, {"uniqueid": "w58601620:a29219035", "current_trial": 60, "dateTime": 1664368998599, "trialdata": {"revealed_states": [], "num_clicks_accrued": [0, 0, 0, 0, 0, 0, 0, 0, 0, 0, 0, 0, 0], "stateRewards": ["", -4, -8, -48, -48, 4, -8, 48, 48, 2, 8, 48, 24], "withholdReward": true, "trial_id": "mdp_880437222492", "block": "test2", "trialIndex": 48, "score": 48.75, "costs": -0.25, "simulationMode": [null, null, null], "rewards": [4, -8, 48], "path": ["0", "0", "5", "6", "7"], "rt": [3276, 650, 463], "actions": ["right", "right", "up"], "actionTimes": [4318, 5492, 6457], "queries": {"click": {"state": {"target": ["7"], "time": [3046]}, "edge": {"target": [], "time": []}}, "mouseover": {"state": {"target": ["9", "12", "5", "7", "5"], "time": [1423, 1823, 2628, 2758, 3572]}, "edge": {"target": [], "time": []}}, "mouseout": {"state": {"target": ["0", "9", "12", "5", "7", "5"], "time": [522, 1506, 2230, 2687, 3272, 3656]}, "edge": {"target": [], "time": []}}}, "displayed_time": "8.04", "trialTime": 8692, "trial_type": "mouselab-mdp", "trial_index": 60, "time_elapsed": 1027249, "internal_node_id": "0.0-4.0-3.0-14.0"}}, {"uniqueid": "w58601620:a29219035", "current_trial": 61, "dateTime": 1664369010988, "trialdata": {"revealed_states": [], "num_clicks_accrued": [0, 0, 0, 0, 0, 0, 0, 0, 0, 0, 0, 0, 0], "stateRewards": ["", -2, -8, 24, -48, 4, 4, -24, -48, -2, -8, -48, 24], "withholdReward": true, "trial_id": "mdp_556006673466", "block": "test2", "trialIndex": 49, "score": 18.25, "costs": -0.75, "simulationMode": [null, null, null], "rewards": [-2, -8, 24], "path": ["0", "0", "9", "10", "12"], "rt": [4728, 13, 106], "actions": ["left", "left", "down"], "actionTimes": [6984, 7524, 8153], "queries": {"click": {"state": {"target": ["7", "8", "12"], "time": [3689, 4473, 5570]}, "edge": {"target": [], "time": []}}, "mouseover": {"state": {"target": ["7", "7", "6", "8", "12", "9"], "time": [3274, 3474, 4022, 4307, 5440, 6074]}, "edge": {"target": [], "time": []}}, "mouseout": {"state": {"target": ["5", "7", "7", "6", "8", "12"], "time": [1657, 3296, 3891, 4190, 4926, 5840]}, "edge": {"target": [], "time": []}}}, "displayed_time": "11.26", "trialTime": 11983, "trial_type": "mouselab-mdp", "trial_index": 61, "time_elapsed": 1039639, "internal_node_id": "0.0-4.0-3.0-15.0"}}, {"uniqueid": "w58601620:a29219035", "current_trial": 62, "dateTime": 1664369024656, "trialdata": {"revealed_states": [], "num_clicks_accrued": [0, 0, 0, 0, 0, 0, 0, 0, 0, 0, 0, 0, 0], "stateRewards": ["", 2, 4, 48, -48, 2, -4, 48, 24, -2, -8, -24, 48], "withholdReward": false, "trial_id": "mdp_962424406744", "block": "test2", "trialIndex": 50, "score": -37, "costs": 0, "simulationMode": [null, null, null], "rewards": [2, 4, -48], "path": ["0", "0", "1", "2", "4"], "rt": [1844, 629, 3609], "actions": ["up", "up", "left"], "actionTimes": [4000, 5141, 9254], "queries": {"click": {"state": {"target": [], "time": []}, "edge": {"target": [], "time": []}}, "mouseover": {"state": {"target": ["9"], "time": [3225]}, "edge": {"target": [], "time": []}}, "mouseout": {"state": {"target": ["9", "9", "9", "1", "4"], "time": [1068, 1274, 3251, 6427, 8308]}, "edge": {"target": [], "time": []}}}, "displayed_time": "11.16", "trialTime": 13186, "trial_type": "mouselab-mdp", "trial_index": 62, "time_elapsed": 1053306, "internal_node_id": "0.0-4.0-3.0-16.0"}}, {"uniqueid": "w58601620:a29219035", "current_trial": 63, "dateTime": 1664369035040, "trialdata": {"revealed_states": [], "num_clicks_accrued": [0, 0, 0, 0, 0, 0, 0, 0, 0, 0, 0, 0, 0], "stateRewards": ["", 4, -8, -48, 24, 4, 4, -24, -24, 2, 4, -48, 24], "withholdReward": true, "trial_id": "mdp_626971397185", "block": "test2", "trialIndex": 51, "score": 24.75, "costs": -0.25, "simulationMode": [null, null, null], "rewards": [4, -8, 24], "path": ["0", "0", "1", "2", "4"], "rt": [2323, 14, 75], "actions": ["up", "up", "left"], "actionTimes": [3755, 4271, 4887], "queries": {"click": {"state": {"target": ["4"], "time": [2552]}, "edge": {"target": [], "time": []}}, "mouseover": {"state": {"target": ["4", "4", "2"], "time": [1631, 2298, 3047]}, "edge": {"target": [], "time": []}}, "mouseout": {"state": {"target": ["5", "4", "4"], "time": [630, 1667, 2931]}, "edge": {"target": [], "time": []}}}, "displayed_time": "9.44", "trialTime": 9961, "trial_type": "mouselab-mdp", "trial_index": 63, "time_elapsed": 1063691, "internal_node_id": "0.0-4.0-3.0-17.0"}}, {"uniqueid": "w58601620:a29219035", "current_trial": 64, "dateTime": 1664369051639, "trialdata": {"revealed_states": [], "num_clicks_accrued": [0, 0, 0, 0, 0, 0, 0, 0, 0, 0, 0, 0, 0], "stateRewards": ["", -2, -4, -24, 24, -2, 4, -24, -24, -4, 4, 24, -24], "withholdReward": false, "trial_id": "mdp_999419261719", "block": "test2", "trialIndex": 52, "score": -17.25, "costs": -0.25, "simulationMode": [null, null, null], "rewards": [-2, 4, -24], "path": ["0", "0", "5", "6", "8"], "rt": [2401, 248, 103], "actions": ["right", "right", "down"], "actionTimes": [9840, 10600, 11222], "queries": {"click": {"state": {"target": ["7"], "time": [8603]}, "edge": {"target": [], "time": []}}, "mouseover": {"state": {"target": ["7"], "time": [8333]}, "edge": {"target": [], "time": []}}, "mouseout": {"state": {"target": ["0", "7"], "time": [8033, 8868]}, "edge": {"target": [], "time": []}}}, "displayed_time": "15.44", "trialTime": 15861, "trial_type": "mouselab-mdp", "trial_index": 64, "time_elapsed": 1080289, "internal_node_id": "0.0-4.0-3.0-18.0"}}, {"uniqueid": "w58601620:a29219035", "current_trial": 65, "dateTime": 1664369063514, "trialdata": {"revealed_states": [], "num_clicks_accrued": [0, 0, 0, 0, 0, 0, 0, 0, 0, 0, 0, 0, 0], "stateRewards": ["", 2, -4, -24, 24, 2, 8, 48, 48, 2, -8, 48, -24], "withholdReward": true, "trial_id": "mdp_330392242530", "block": "test2", "trialIndex": 53, "score": -21, "costs": 0, "simulationMode": [null, null, null], "rewards": [2, -4, -24], "path": ["0", "0", "1", "2", "3"], "rt": [930, 780, 203], "actions": ["up", "up", "right"], "actionTimes": [2839, 4169, 4879], "queries": {"click": {"state": {"target": [], "time": []}, "edge": {"target": [], "time": []}}, "mouseover": {"state": {"target": [], "time": []}, "edge": {"target": [], "time": []}}, "mouseout": {"state": {"target": [], "time": []}, "edge": {"target": [], "time": []}}}, "displayed_time": "10.91", "trialTime": 11459, "trial_type": "mouselab-mdp", "trial_index": 65, "time_elapsed": 1092165, "internal_node_id": "0.0-4.0-3.0-19.0"}}, {"uniqueid": "w58601620:a29219035", "current_trial": 66, "dateTime": 1664369075233, "trialdata": {"revealed_states": [], "num_clicks_accrued": [0, 0, 0, 0, 0, 0, 0, 0, 0, 0, 0, 0, 0], "stateRewards": ["", 4, -8, -24, 24, 2, -4, 24, 24, 2, -4, 48, 48], "withholdReward": true, "trial_id": "mdp_457607480918", "block": "test2", "trialIndex": 54, "score": -23, "costs": 0, "simulationMode": [null, null, null], "rewards": [4, -8, -24], "path": ["0", "0", "1", "2", "3"], "rt": [754, 505, 117], "actions": ["up", "up", "right"], "actionTimes": [2563, 3566, 4207], "queries": {"click": {"state": {"target": [], "time": []}, "edge": {"target": [], "time": []}}, "mouseover": {"state": {"target": [], "time": []}, "edge": {"target": [], "time": []}}, "mouseout": {"state": {"target": ["0", "0", "5", "6"], "time": [807, 972, 996, 1333]}, "edge": {"target": [], "time": []}}}, "displayed_time": "10.81", "trialTime": 11181, "trial_type": "mouselab-mdp", "trial_index": 66, "time_elapsed": 1103883, "internal_node_id": "0.0-4.0-3.0-20.0"}}, {"uniqueid": "w58601620:a29219035", "current_trial": 67, "dateTime": 1664369087189, "trialdata": {"revealed_states": [], "num_clicks_accrued": [0, 0, 0, 0, 0, 0, 0, 0, 0, 0, 0, 0, 0], "stateRewards": ["", -4, -4, -48, -24, 2, 8, 24, -48, 4, 4, 48, 48], "withholdReward": true, "trial_id": "mdp_693501840209", "block": "test2", "trialIndex": 55, "score": 60.75, "costs": -0.25, "simulationMode": [null, null, null], "rewards": [4, 4, 48], "path": ["0", "0", "9", "10", "11"], "rt": [2525, 478, 287], "actions": ["left", "left", "up"], "actionTimes": [4466, 5461, 6254], "queries": {"click": {"state": {"target": ["11"], "time": [3264]}, "edge": {"target": [], "time": []}}, "mouseover": {"state": {"target": ["10", "11"], "time": [2544, 3095]}, "edge": {"target": [], "time": []}}, "mouseout": {"state": {"target": ["0", "0", "10"], "time": [582, 2516, 2580]}, "edge": {"target": [], "time": []}}}, "displayed_time": "10.94", "trialTime": 11543, "trial_type": "mouselab-mdp", "trial_index": 67, "time_elapsed": 1115839, "internal_node_id": "0.0-4.0-3.0-21.0"}}, {"uniqueid": "w58601620:a29219035", "current_trial": 68, "dateTime": 1664369098273, "trialdata": {"revealed_states": [], "num_clicks_accrued": [0, 0, 0, 0, 0, 0, 0, 0, 0, 0, 0, 0, 0], "stateRewards": ["", 2, -4, -24, -48, -2, 8, -24, 48, -2, 8, 24, -48], "withholdReward": true, "trial_id": "mdp_566582551557", "block": "test2", "trialIndex": 56, "score": -37, "costs": 0, "simulationMode": [null, null, null], "rewards": [-2, 8, -48], "path": ["0", "0", "9", "10", "12"], "rt": [2102, 102, 140], "actions": ["left", "left", "down"], "actionTimes": [4408, 5024, 5663], "queries": {"click": {"state": {"target": [], "time": []}, "edge": {"target": [], "time": []}}, "mouseover": {"state": {"target": ["0"], "time": [2936]}, "edge": {"target": [], "time": []}}, "mouseout": {"state": {"target": ["11", "9", "0"], "time": [1310, 1605, 3237]}, "edge": {"target": [], "time": []}}}, "displayed_time": "10.31", "trialTime": 10650, "trial_type": "mouselab-mdp", "trial_index": 68, "time_elapsed": 1126924, "internal_node_id": "0.0-4.0-3.0-22.0"}}, {"uniqueid": "w58601620:a29219035", "current_trial": 69, "dateTime": 1664369113079, "trialdata": {"revealed_states": [], "num_clicks_accrued": [0, 0, 0, 0, 0, 0, 0, 0, 0, 0, 0, 0, 0], "stateRewards": ["", -2, 8, 48, -48, 4, -8, 24, 24, 4, 4, -48, -24], "withholdReward": false, "trial_id": "mdp_746937869927", "block": "test2", "trialIndex": 57, "score": 25, "costs": 0, "simulationMode": [null, null, null], "rewards": [4, -8, 24], "path": ["0", "0", "5", "6", "7"], "rt": [1428, 698, 149], "actions": ["right", "right", "up"], "actionTimes": [4043, 5255, 5915], "queries": {"click": {"state": {"target": [], "time": []}, "edge": {"target": [], "time": []}}, "mouseover": {"state": {"target": [], "time": []}, "edge": {"target": [], "time": []}}, "mouseout": {"state": {"target": ["0", "0"], "time": [1565, 2146]}, "edge": {"target": [], "time": []}}}, "displayed_time": "10.62", "trialTime": 14385, "trial_type": "mouselab-mdp", "trial_index": 69, "time_elapsed": 1141730, "internal_node_id": "0.0-4.0-3.0-23.0"}}, {"uniqueid": "w58601620:a29219035", "current_trial": 70, "dateTime": 1664369126030, "trialdata": {"revealed_states": [], "num_clicks_accrued": [0, 0, 0, 0, 0, 0, 0, 0, 0, 0, 0, 0, 0], "stateRewards": ["", -2, -4, -48, -48, 4, 8, 24, -48, 4, -8, 24, 24], "withholdReward": true, "trial_id": "mdp_749799219195", "block": "test2", "trialIndex": 58, "score": 25, "costs": 0, "simulationMode": [null, null, null], "rewards": [4, -8, 24], "path": ["0", "0", "9", "10", "11"], "rt": [2024, 374, 329], "actions": ["left", "left", "up"], "actionTimes": [3967, 4858, 5698], "queries": {"click": {"state": {"target": [], "time": []}, "edge": {"target": [], "time": []}}, "mouseover": {"state": {"target": ["9", "10", "9"], "time": [2921, 2953, 3329]}, "edge": {"target": [], "time": []}}, "mouseout": {"state": {"target": ["0", "9", "0", "9", "10", "9"], "time": [462, 1044, 1595, 2949, 2983, 3368]}, "edge": {"target": [], "time": []}}}, "displayed_time": "10.95", "trialTime": 12520, "trial_type": "mouselab-mdp", "trial_index": 70, "time_elapsed": 1154681, "internal_node_id": "0.0-4.0-3.0-24.0"}}, {"uniqueid": "w58601620:a29219035", "current_trial": 71, "dateTime": 1664369136720, "trialdata": {"revealed_states": [], "num_clicks_accrued": [0, 0, 0, 0, 0, 0, 0, 0, 0, 0, 0, 0, 0], "stateRewards": ["", 2, 4, -48, 24, -4, 4, -24, 48, -2, -8, -48, 48], "withholdReward": true, "trial_id": "mdp_424193661731", "block": "test2", "trialIndex": 59, "score": 35, "costs": 0, "simulationMode": [null, null, null], "rewards": [2, 4, 24], "path": ["0", "0", "1", "2", "4"], "rt": [1542, 341, 169], "actions": ["up", "up", "left"], "actionTimes": [3553, 4406, 5079], "queries": {"click": {"state": {"target": [], "time": []}, "edge": {"target": [], "time": []}}, "mouseover": {"state": {"target": [], "time": []}, "edge": {"target": [], "time": []}}, "mouseout": {"state": {"target": ["9", "0", "0"], "time": [559, 1006, 1575]}, "edge": {"target": [], "time": []}}}, "displayed_time": "10.01", "trialTime": 10287, "trial_type": "mouselab-mdp", "trial_index": 71, "time_elapsed": 1165370, "internal_node_id": "0.0-4.0-3.0-25.0"}}, {"uniqueid": "w58601620:a29219035", "current_trial": 72, "dateTime": 1664369148104, "trialdata": {"revealed_states": [], "num_clicks_accrued": [0, 0, 0, 0, 0, 0, 0, 0, 0, 0, 0, 0, 0], "stateRewards": ["", -4, 8, -48, -48, -2, -8, -24, -48, 2, -4, -48, 24], "withholdReward": true, "trial_id": "mdp_743906784415", "block": "test2", "trialIndex": 60, "score": -39, "costs": 0, "simulationMode": [null, null, null], "rewards": [-4, 8, -48], "path": ["0", "0", "1", "2", "4"], "rt": [1281, 206, 2107], "actions": ["up", "up", "left"], "actionTimes": [3075, 3804, 6419], "queries": {"click": {"state": {"target": [], "time": []}, "edge": {"target": [], "time": []}}, "mouseover": {"state": {"target": [], "time": []}, "edge": {"target": [], "time": []}}, "mouseout": {"state": {"target": ["0"], "time": [1461]}, "edge": {"target": [], "time": []}}}, "displayed_time": "9.79", "trialTime": 10986, "trial_type": "mouselab-mdp", "trial_index": 72, "time_elapsed": 1176754, "internal_node_id": "0.0-4.0-3.0-26.0"}}, {"uniqueid": "w58601620:a29219035", "current_trial": 73, "dateTime": 1664369160718, "trialdata": {"revealed_states": [], "num_clicks_accrued": [0, 0, 0, 0, 0, 0, 0, 0, 0, 0, 0, 0, 0], "stateRewards": ["", 4, 4, 24, -24, -4, -8, 48, -24, 4, 4, 48, 24], "withholdReward": true, "trial_id": "mdp_822446942217", "block": "test2", "trialIndex": 61, "score": 40.5, "costs": -0.5, "simulationMode": [null, null, null], "rewards": [-4, -8, 48], "path": ["0", "0", "5", "6", "7"], "rt": [3707, 631, 229], "actions": ["right", "right", "up"], "actionTimes": [5069, 6232, 6970], "queries": {"click": {"state": {"target": ["8", "7"], "time": [2516, 3583]}, "edge": {"target": [], "time": []}}, "mouseover": {"state": {"target": ["5", "8", "8", "6", "7", "6"], "time": [1851, 2135, 2294, 3119, 3386, 4103]}, "edge": {"target": [], "time": []}}, "mouseout": {"state": {"target": ["0", "0", "5", "8", "8", "6", "7"], "time": [509, 901, 1969, 2251, 3091, 3186, 3869]}, "edge": {"target": [], "time": []}}}, "displayed_time": "11.36", "trialTime": 12065, "trial_type": "mouselab-mdp", "trial_index": 73, "time_elapsed": 1189368, "internal_node_id": "0.0-4.0-3.0-27.0"}}, {"uniqueid": "w58601620:a29219035", "current_trial": 74, "dateTime": 1664369173768, "trialdata": {"revealed_states": [], "num_clicks_accrued": [0, 0, 0, 0, 0, 0, 0, 0, 0, 0, 0, 0, 0], "stateRewards": ["", 2, 4, -48, 48, -4, 8, -48, -24, -4, -4, 48, 48], "withholdReward": true, "trial_id": "mdp_613582696541", "block": "test2", "trialIndex": 62, "score": 44.25, "costs": -0.75, "simulationMode": [null, null, null], "rewards": [-4, -4, 48], "path": ["0", "0", "9", "10", "11"], "rt": [4948, 140, 862], "actions": ["left", "left", "up"], "actionTimes": [6770, 7405, 8770], "queries": {"click": {"state": {"target": ["8", "7", "11"], "time": [3264, 4295, 5633]}, "edge": {"target": [], "time": []}}, "mouseover": {"state": {"target": ["5", "7", "6", "8", "6", "7", "6", "5", "9", "10", "11"], "time": [2350, 2766, 2940, 3095, 3795, 4043, 4828, 5011, 5080, 5144, 5394]}, "edge": {"target": [], "time": []}}, "mouseout": {"state": {"target": ["6", "0", "0", "5", "7", "6", "8", "6", "7", "6", "5", "9", "10", "11"], "time": [652, 1177, 2254, 2462, 2846, 2978, 3761, 3844, 4544, 4895, 5045, 5112, 5226, 5877]}, "edge": {"target": [], "time": []}}}, "displayed_time": "11.82", "trialTime": 12541, "trial_type": "mouselab-mdp", "trial_index": 74, "time_elapsed": 1202418, "internal_node_id": "0.0-4.0-3.0-28.0"}}, {"uniqueid": "w58601620:a29219035", "current_trial": 75, "dateTime": 1664369185816, "trialdata": {"revealed_states": [], "num_clicks_accrued": [0, 0, 0, 0, 0, 0, 0, 0, 0, 0, 0, 0, 0], "stateRewards": ["", -2, -8, -24, -48, -2, -4, 48, -48, 4, 4, -48, 48], "withholdReward": true, "trial_id": "mdp_156977432949", "block": "test2", "trialIndex": 63, "score": 60, "costs": -1, "simulationMode": [null, null, null], "rewards": [4, 4, 48], "path": ["0", "0", "9", "10", "12"], "rt": [5800, 194, 93], "actions": ["left", "left", "down"], "actionTimes": [7591, 8321, 8932], "queries": {"click": {"state": {"target": ["4", "3", "11", "12"], "time": [3592, 4354, 5520, 6367]}, "edge": {"target": [], "time": []}}, "mouseover": {"state": {"target": ["1", "1", "4", "2", "3", "1", "11", "12"], "time": [2326, 2742, 3320, 4020, 4103, 4886, 5370, 6238]}, "edge": {"target": [], "time": []}}, "mouseout": {"state": {"target": ["9", "1", "1", "4", "2", "3", "1", "11", "12"], "time": [1120, 2423, 3203, 3970, 4070, 4687, 4908, 5870, 6603]}, "edge": {"target": [], "time": []}}}, "displayed_time": "10.79", "trialTime": 11616, "trial_type": "mouselab-mdp", "trial_index": 75, "time_elapsed": 1214467, "internal_node_id": "0.0-4.0-3.0-29.0"}}, {"uniqueid": "w58601620:a29219035", "current_trial": 76, "dateTime": 1664369230333, "trialdata": {"rt": 44492, "stimulus": "<h1> End of block! </h1>\n\nYou have reached the end of the block 2/4. If you need a short break, feel free to take one now before moving on.\n\n<br><br>\nIn the next block, you will complete another 30 rounds of this game.\n\n<br><br>\n<div style='text-align: center;'>Press <code>space</code> to begin.</div>\n<br><br>\n<div style='text-align: center;'>(If the experiment doesn't continue, try clicking on the text and then pressing <code>space</code>.)</div>", "response": " ", "trial_id": "mdp_ready_3", "trial_type": "html-keyboard-response", "trial_index": 76, "time_elapsed": 1258984, "internal_node_id": "0.0-4.0-4.0"}}, {"uniqueid": "w58601620:a29219035", "current_trial": 77, "dateTime": 1664369243536, "trialdata": {"revealed_states": [], "num_clicks_accrued": [0, 0, 0, 0, 0, 0, 0, 0, 0, 0, 0, 0, 0], "stateRewards": ["", -4, 4, 24, 24, -2, 8, 24, -48, 4, -8, -24, -48], "withholdReward": false, "trial_id": "mdp_651542905861", "block": "test3", "trialIndex": 64, "score": 34, "costs": -1, "simulationMode": [null, null, null], "rewards": [-2, 8, 24], "path": ["0", "0", "5", "6", "7"], "rt": [5509, 305, 213], "actions": ["right", "right", "up"], "actionTimes": [9134, 9937, 10664], "queries": {"click": {"state": {"target": ["11", "12", "8", "7"], "time": [4726, 5888, 6911, 8234]}, "edge": {"target": [], "time": []}}, "mouseover": {"state": {"target": ["1", "11", "12", "8", "6", "7", "7"], "time": [4041, 4408, 5658, 6724, 7741, 8007, 8190]}, "edge": {"target": [], "time": []}}, "mouseout": {"state": {"target": ["9", "1", "1", "1", "11", "12", "8", "6", "7", "7"], "time": [2624, 2673, 2973, 4075, 5091, 6241, 7695, 7776, 8091, 8651]}, "edge": {"target": [], "time": []}}}, "displayed_time": "11.17", "trialTime": 12759, "trial_type": "mouselab-mdp", "trial_index": 77, "time_elapsed": 1272187, "internal_node_id": "0.0-4.0-5.0-0.0"}}, {"uniqueid": "w58601620:a29219035", "current_trial": 78, "dateTime": 1664369255007, "trialdata": {"revealed_states": [], "num_clicks_accrued": [0, 0, 0, 0, 0, 0, 0, 0, 0, 0, 0, 0, 0], "stateRewards": ["", -2, 8, -48, 48, 4, -8, -48, 48, 4, -4, -24, 48], "withholdReward": true, "trial_id": "mdp_144739116828", "block": "test3", "trialIndex": 65, "score": -37, "costs": 0, "simulationMode": [null, null, null], "rewards": [-2, 8, -48], "path": ["0", "0", "1", "2", "3"], "rt": [1157, 1004, 55], "actions": ["up", "up", "right"], "actionTimes": [2633, 4139, 4730], "queries": {"click": {"state": {"target": [], "time": []}, "edge": {"target": [], "time": []}}, "mouseover": {"state": {"target": [], "time": []}, "edge": {"target": [], "time": []}}, "mouseout": {"state": {"target": ["6"], "time": [613]}, "edge": {"target": [], "time": []}}}, "displayed_time": "9.48", "trialTime": 10990, "trial_type": "mouselab-mdp", "trial_index": 78, "time_elapsed": 1283648, "internal_node_id": "0.0-4.0-5.0-1.0"}}, {"uniqueid": "w58601620:a29219035", "current_trial": 79, "dateTime": 1664369268183, "trialdata": {"revealed_states": [], "num_clicks_accrued": [0, 0, 0, 0, 0, 0, 0, 0, 0, 0, 0, 0, 0], "stateRewards": ["", 4, 8, -48, -48, 2, 4, -24, -48, 2, 8, 48, -48], "withholdReward": true, "trial_id": "mdp_902172716465", "block": "test3", "trialIndex": 66, "score": -31, "costs": 0, "simulationMode": [null, null, null], "rewards": [4, 8, -48], "path": ["0", "0", "1", "2", "3"], "rt": [1895, 76, 37], "actions": ["up", "up", "right"], "actionTimes": [5673, 6260, 6831], "queries": {"click": {"state": {"target": [], "time": []}, "edge": {"target": [], "time": []}}, "mouseover": {"state": {"target": ["4", "1", "1", "5"], "time": [4429, 4645, 4861, 5077]}, "edge": {"target": [], "time": []}}, "mouseout": {"state": {"target": ["0", "4", "1", "1", "5"], "time": [3360, 4608, 4681, 4977, 5111]}, "edge": {"target": [], "time": []}}}, "displayed_time": "11.78", "trialTime": 12211, "trial_type": "mouselab-mdp", "trial_index": 79, "time_elapsed": 1296834, "internal_node_id": "0.0-4.0-5.0-2.0"}}, {"uniqueid": "w58601620:a29219035", "current_trial": 80, "dateTime": 1664369279510, "trialdata": {"revealed_states": [], "num_clicks_accrued": [0, 0, 0, 0, 0, 0, 0, 0, 0, 0, 0, 0, 0], "stateRewards": ["", 2, -4, 24, 24, 4, -4, -24, 24, -4, -4, 48, 48], "withholdReward": true, "trial_id": "mdp_566306223773", "block": "test3", "trialIndex": 67, "score": 26.75, "costs": -0.25, "simulationMode": [null, null, null], "rewards": [2, -4, 24], "path": ["0", "0", "1", "2", "4"], "rt": [1727, 660, 770], "actions": ["up", "up", "left"], "actionTimes": [3052, 4227, 5530], "queries": {"click": {"state": {"target": ["4"], "time": [2073]}, "edge": {"target": [], "time": []}}, "mouseover": {"state": {"target": ["1", "4", "2", "3"], "time": [1506, 1907, 2480, 2538]}, "edge": {"target": [], "time": []}}, "mouseout": {"state": {"target": ["5", "0", "1", "4", "2", "3"], "time": [781, 862, 1582, 2346, 2510, 9463]}, "edge": {"target": [], "time": []}}}, "displayed_time": "10.32", "trialTime": 10791, "trial_type": "mouselab-mdp", "trial_index": 80, "time_elapsed": 1308161, "internal_node_id": "0.0-4.0-5.0-3.0"}}, {"uniqueid": "w58601620:a29219035", "current_trial": 81, "dateTime": 1664369290596, "trialdata": {"revealed_states": [], "num_clicks_accrued": [0, 0, 0, 0, 0, 0, 0, 0, 0, 0, 0, 0, 0], "stateRewards": ["", 2, -4, -48, 24, -4, 4, 24, 24, 2, -8, -24, -48], "withholdReward": true, "trial_id": "mdp_807654778305", "block": "test3", "trialIndex": 68, "score": 28.75, "costs": -0.25, "simulationMode": [null, null, null], "rewards": [-4, 4, 24], "path": ["0", "0", "5", "6", "8"], "rt": [2561, 544, 62], "actions": ["right", "right", "down"], "actionTimes": [3555, 4614, 5195], "queries": {"click": {"state": {"target": ["8"], "time": [2754]}, "edge": {"target": [], "time": []}}, "mouseover": {"state": {"target": ["0", "5", "8", "8"], "time": [1551, 1636, 1921, 2566]}, "edge": {"target": [], "time": []}}, "mouseout": {"state": {"target": ["0", "0", "5", "8"], "time": [500, 1584, 1664, 1992]}, "edge": {"target": [], "time": []}}}, "displayed_time": "10.00", "trialTime": 10582, "trial_type": "mouselab-mdp", "trial_index": 81, "time_elapsed": 1319247, "internal_node_id": "0.0-4.0-5.0-4.0"}}, {"uniqueid": "w58601620:a29219035", "current_trial": 82, "dateTime": 1664369301040, "trialdata": {"revealed_states": [], "num_clicks_accrued": [0, 0, 0, 0, 0, 0, 0, 0, 0, 0, 0, 0, 0], "stateRewards": ["", 2, 4, 48, -48, 2, 8, -24, 48, 4, 8, 48, -48], "withholdReward": true, "trial_id": "mdp_110142964375", "block": "test3", "trialIndex": 69, "score": -9, "costs": 0, "simulationMode": [null, null, null], "rewards": [2, 8, -24], "path": ["0", "0", "5", "6", "7"], "rt": [1145, 967, 81], "actions": ["right", "right", "up"], "actionTimes": [2805, 4275, 4883], "queries": {"click": {"state": {"target": [], "time": []}, "edge": {"target": [], "time": []}}, "mouseover": {"state": {"target": [], "time": []}, "edge": {"target": [], "time": []}}, "mouseout": {"state": {"target": ["8", "5"], "time": [451, 698]}, "edge": {"target": [], "time": []}}}, "displayed_time": "9.66", "trialTime": 10007, "trial_type": "mouselab-mdp", "trial_index": 82, "time_elapsed": 1329690, "internal_node_id": "0.0-4.0-5.0-5.0"}}, {"uniqueid": "w58601620:a29219035", "current_trial": 83, "dateTime": 1664369312804, "trialdata": {"revealed_states": [], "num_clicks_accrued": [0, 0, 0, 0, 0, 0, 0, 0, 0, 0, 0, 0, 0], "stateRewards": ["", -4, 8, 48, -48, 2, -4, 24, -24, -2, 4, -24, -24], "withholdReward": true, "trial_id": "mdp_804988042722", "block": "test3", "trialIndex": 70, "score": 26.25, "costs": -0.75, "simulationMode": [null, null, null], "rewards": [2, -4, 24], "path": ["0", "0", "5", "6", "7"], "rt": [6478, 407, 316], "actions": ["right", "right", "up"], "actionTimes": [8640, 9572, 10410], "queries": {"click": {"state": {"target": ["11", "12", "7"], "time": [5241, 6011, 7729]}, "edge": {"target": [], "time": []}}, "mouseover": {"state": {"target": ["1", "2", "4", "9", "10", "11", "12", "9", "10", "9", "0", "5", "6", "7"], "time": [2744, 2861, 3026, 3342, 4826, 4888, 5775, 6542, 6708, 7011, 7075, 7145, 7292, 7524]}, "edge": {"target": [], "time": []}}, "mouseout": {"state": {"target": ["1", "2", "4", "9", "10", "11", "12", "9", "10", "9", "0", "5", "6", "7"], "time": [2809, 2942, 3076, 3426, 4859, 5459, 6405, 6607, 6979, 7042, 7115, 7192, 7447, 8092]}, "edge": {"target": [], "time": []}}}, "displayed_time": "10.92", "trialTime": 11348, "trial_type": "mouselab-mdp", "trial_index": 83, "time_elapsed": 1341454, "internal_node_id": "0.0-4.0-5.0-6.0"}}, {"uniqueid": "w58601620:a29219035", "current_trial": 84, "dateTime": 1664369324554, "trialdata": {"revealed_states": [], "num_clicks_accrued": [0, 0, 0, 0, 0, 0, 0, 0, 0, 0, 0, 0, 0], "stateRewards": ["", 2, -8, 24, 24, 4, -4, -24, -48, 4, 8, 24, 24], "withholdReward": true, "trial_id": "mdp_249803813713", "block": "test3", "trialIndex": 71, "score": 22.25, "costs": -0.75, "simulationMode": [null, null, null], "rewards": [2, -8, 24], "path": ["0", "0", "1", "2", "4"], "rt": [4063, 362, 205], "actions": ["up", "up", "left"], "actionTimes": [5959, 6835, 7550], "queries": {"click": {"state": {"target": ["7", "8", "4"], "time": [2603, 3590, 4811]}, "edge": {"target": [], "time": []}}, "mouseover": {"state": {"target": ["7", "8", "5", "4", "2", "3"], "time": [2288, 3405, 4121, 4604, 5037, 5266]}, "edge": {"target": [], "time": []}}, "mouseout": {"state": {"target": ["8", "5", "7", "8", "5", "4", "2", "3"], "time": [988, 1254, 3051, 4055, 4153, 5006, 5238, 5305]}, "edge": {"target": [], "time": []}}}, "displayed_time": "10.90", "trialTime": 11310, "trial_type": "mouselab-mdp", "trial_index": 84, "time_elapsed": 1353204, "internal_node_id": "0.0-4.0-5.0-7.0"}}, {"uniqueid": "w58601620:a29219035", "current_trial": 85, "dateTime": 1664369334732, "trialdata": {"revealed_states": [], "num_clicks_accrued": [0, 0, 0, 0, 0, 0, 0, 0, 0, 0, 0, 0, 0], "stateRewards": ["", 4, -4, 48, -48, 4, -4, 24, -24, 4, 8, -24, -48], "withholdReward": true, "trial_id": "mdp_433630527224", "block": "test3", "trialIndex": 72, "score": 53, "costs": 0, "simulationMode": [null, null, null], "rewards": [4, -4, 48], "path": ["0", "0", "1", "2", "3"], "rt": [1298, 473, 487], "actions": ["up", "up", "right"], "actionTimes": [3728, 4705, 5725], "queries": {"click": {"state": {"target": [], "time": []}, "edge": {"target": [], "time": []}}, "mouseover": {"state": {"target": [], "time": []}, "edge": {"target": [], "time": []}}, "mouseout": {"state": {"target": ["3", "10", "10"], "time": [1396, 1506, 1741]}, "edge": {"target": [], "time": []}}}, "displayed_time": "9.43", "trialTime": 9743, "trial_type": "mouselab-mdp", "trial_index": 85, "time_elapsed": 1363382, "internal_node_id": "0.0-4.0-5.0-8.0"}}, {"uniqueid": "w58601620:a29219035", "current_trial": 86, "dateTime": 1664369345872, "trialdata": {"revealed_states": [], "num_clicks_accrued": [0, 0, 0, 0, 0, 0, 0, 0, 0, 0, 0, 0, 0], "stateRewards": ["", -2, -4, -24, -48, -4, -8, -48, 24, -4, -8, -24, -48], "withholdReward": true, "trial_id": "mdp_475782454549", "block": "test3", "trialIndex": 73, "score": -25, "costs": 0, "simulationMode": [null, null, null], "rewards": [-2, -4, -24], "path": ["0", "0", "1", "2", "3"], "rt": [2512, 162, 40], "actions": ["up", "up", "right"], "actionTimes": [3708, 4412, 4981], "queries": {"click": {"state": {"target": [], "time": []}, "edge": {"target": [], "time": []}}, "mouseover": {"state": {"target": ["2"], "time": [2328]}, "edge": {"target": [], "time": []}}, "mouseout": {"state": {"target": ["0", "2"], "time": [2132, 2526]}, "edge": {"target": [], "time": []}}}, "displayed_time": "10.20", "trialTime": 10686, "trial_type": "mouselab-mdp", "trial_index": 86, "time_elapsed": 1374522, "internal_node_id": "0.0-4.0-5.0-9.0"}}, {"uniqueid": "w58601620:a29219035", "current_trial": 87, "dateTime": 1664369355993, "trialdata": {"revealed_states": [], "num_clicks_accrued": [0, 0, 0, 0, 0, 0, 0, 0, 0, 0, 0, 0, 0], "stateRewards": ["", 4, -4, 48, -48, 2, 8, -48, 24, -2, -4, -24, 48], "withholdReward": false, "trial_id": "mdp_937564992306", "block": "test3", "trialIndex": 74, "score": 52.5, "costs": -0.5, "simulationMode": [null, null, null], "rewards": [4, -4, 48], "path": ["0", "0", "1", "2", "3"], "rt": [3070, 322, 686], "actions": ["up", "up", "right"], "actionTimes": [4421, 5247, 6464], "queries": {"click": {"state": {"target": ["4", "3"], "time": [2236, 3035]}, "edge": {"target": [], "time": []}}, "mouseover": {"state": {"target": ["4", "2", "3", "7"], "time": [2064, 2664, 2729, 3449]}, "edge": {"target": [], "time": []}}, "mouseout": {"state": {"target": ["0", "4", "2", "3"], "time": [797, 2603, 2699, 3364]}, "edge": {"target": [], "time": []}}}, "displayed_time": "9.35", "trialTime": 9694, "trial_type": "mouselab-mdp", "trial_index": 87, "time_elapsed": 1384643, "internal_node_id": "0.0-4.0-5.0-10.0"}}, {"uniqueid": "w58601620:a29219035", "current_trial": 88, "dateTime": 1664369372181, "trialdata": {"revealed_states": [], "num_clicks_accrued": [0, 0, 0, 0, 0, 0, 0, 0, 0, 0, 0, 0, 0], "stateRewards": ["", 4, 4, 48, -24, 2, -4, 48, 24, -4, -4, -48, 24], "withholdReward": true, "trial_id": "mdp_496003763005", "block": "test3", "trialIndex": 75, "score": 27, "costs": 0, "simulationMode": [null, null, null], "rewards": [2, -4, 24], "path": ["0", "0", "5", "6", "8"], "rt": [2579, 328, 554], "actions": ["right", "right", "down"], "actionTimes": [9855, 10707, 11791], "queries": {"click": {"state": {"target": [], "time": []}, "edge": {"target": [], "time": []}}, "mouseover": {"state": {"target": ["8"], "time": [8757]}, "edge": {"target": [], "time": []}}, "mouseout": {"state": {"target": ["7", "2", "11", "9", "0", "8"], "time": [5348, 5405, 6472, 6537, 6853, 9325]}, "edge": {"target": [], "time": []}}}, "displayed_time": "15.28", "trialTime": 15641, "trial_type": "mouselab-mdp", "trial_index": 88, "time_elapsed": 1400831, "internal_node_id": "0.0-4.0-5.0-11.0"}}, {"uniqueid": "w58601620:a29219035", "current_trial": 89, "dateTime": 1664369386959, "trialdata": {"revealed_states": [], "num_clicks_accrued": [0, 0, 0, 0, 0, 0, 0, 0, 0, 0, 0, 0, 0], "stateRewards": ["", -4, 8, -48, -48, -4, 4, -24, -48, 2, -4, -24, 24], "withholdReward": true, "trial_id": "mdp_183773275291", "block": "test3", "trialIndex": 76, "score": 25.25, "costs": -1.75, "simulationMode": [null, null, null], "rewards": [2, -4, 24], "path": ["0", "0", "9", "10", "12"], "rt": [9417, 455, 168], "actions": ["left", "left", "down"], "actionTimes": [10796, 11766, 12455], "queries": {"click": {"state": {"target": ["8", "7", "11", "12", "4", "3", "2"], "time": [2217, 3086, 4171, 4981, 7197, 7824, 8958]}, "edge": {"target": [], "time": []}}, "mouseover": {"state": {"target": ["5", "6", "8", "6", "7", "9", "10", "11", "12", "4", "2", "3", "2", "1", "0"], "time": [1614, 1679, 2013, 2680, 2763, 3630, 3667, 3912, 4796, 6946, 7455, 7530, 8580, 9313, 9513]}, "edge": {"target": [], "time": []}}, "mouseout": {"state": {"target": ["5", "0", "5", "6", "8", "6", "7", "9", "10", "11", "12", "4", "2", "3", "7", "2", "1", "0"], "time": [528, 595, 1646, 1713, 2648, 2713, 3330, 3663, 3762, 4397, 5246, 7429, 7497, 8062, 8297, 9208, 9395, 9547]}, "edge": {"target": [], "time": []}}}, "displayed_time": "13.01", "trialTime": 14244, "trial_type": "mouselab-mdp", "trial_index": 89, "time_elapsed": 1415609, "internal_node_id": "0.0-4.0-5.0-12.0"}}, {"uniqueid": "w58601620:a29219035", "current_trial": 90, "dateTime": 1664369398236, "trialdata": {"revealed_states": [], "num_clicks_accrued": [0, 0, 0, 0, 0, 0, 0, 0, 0, 0, 0, 0, 0], "stateRewards": ["", -4, -8, -24, -48, -2, -8, 24, -48, -4, -8, 24, -48], "withholdReward": true, "trial_id": "mdp_621812384092", "block": "test3", "trialIndex": 77, "score": 16.75, "costs": -0.25, "simulationMode": [null, null, null], "rewards": [-4, -8, 24], "path": ["0", "0", "9", "10", "11"], "rt": [1566, 444, 120], "actions": ["left", "left", "up"], "actionTimes": [2934, 3893, 4543], "queries": {"click": {"state": {"target": ["11"], "time": [2000]}, "edge": {"target": [], "time": []}}, "mouseover": {"state": {"target": ["9", "11"], "time": [1407, 1742]}, "edge": {"target": [], "time": []}}, "mouseout": {"state": {"target": ["0", "9", "11", "9"], "time": [791, 1443, 2226, 7609]}, "edge": {"target": [], "time": []}}}, "displayed_time": "10.42", "trialTime": 10834, "trial_type": "mouselab-mdp", "trial_index": 90, "time_elapsed": 1426887, "internal_node_id": "0.0-4.0-5.0-13.0"}}, {"uniqueid": "w58601620:a29219035", "current_trial": 91, "dateTime": 1664369434438, "trialdata": {"revealed_states": [], "num_clicks_accrued": [0, 0, 0, 0, 0, 0, 0, 0, 0, 0, 0, 0, 0], "stateRewards": ["", -2, -4, -24, 48, -2, -8, -48, -24, 4, 8, 48, 24], "withholdReward": true, "trial_id": "mdp_625355871626", "block": "test3", "trialIndex": 78, "score": 65, "costs": 0, "simulationMode": [null, null, null], "rewards": [4, 8, 48], "path": ["0", "0", "9", "10", "11"], "rt": [1340, 541, 295], "actions": ["left", "left", "up"], "actionTimes": [29064, 30139, 30973], "queries": {"click": {"state": {"target": [], "time": []}, "edge": {"target": [], "time": []}}, "mouseover": {"state": {"target": [], "time": []}, "edge": {"target": [], "time": []}}, "mouseout": {"state": {"target": ["11", "9", "0", "0"], "time": [26708, 26942, 27074, 27226]}, "edge": {"target": [], "time": []}}}, "displayed_time": "34.72", "trialTime": 35388, "trial_type": "mouselab-mdp", "trial_index": 91, "time_elapsed": 1463088, "internal_node_id": "0.0-4.0-5.0-14.0"}}, {"uniqueid": "w58601620:a29219035", "current_trial": 92, "dateTime": 1664369448328, "trialdata": {"revealed_states": [], "num_clicks_accrued": [0, 0, 0, 0, 0, 0, 0, 0, 0, 0, 0, 0, 0], "stateRewards": ["", 2, 8, -24, -48, -4, 8, -48, -48, -2, -8, -24, -24], "withholdReward": true, "trial_id": "mdp_978177451072", "block": "test3", "trialIndex": 79, "score": -34, "costs": -1, "simulationMode": [null, null, null], "rewards": [2, 8, -48], "path": ["0", "0", "1", "2", "4"], "rt": [5269, 357, 595], "actions": ["up", "up", "left"], "actionTimes": [8861, 9754, 10888], "queries": {"click": {"state": {"target": ["11", "12", "8", "7"], "time": [4616, 5566, 6562, 7429]}, "edge": {"target": [], "time": []}}, "mouseover": {"state": {"target": ["11", "9", "12", "8", "8", "6", "7", "2"], "time": [4448, 5175, 5275, 6108, 6373, 7012, 7241, 8008]}, "edge": {"target": [], "time": []}}, "mouseout": {"state": {"target": ["0", "0", "11", "9", "12", "8", "8", "6", "7", "2"], "time": [2363, 3157, 4842, 5208, 5792, 6190, 6974, 7092, 7725, 8217]}, "edge": {"target": [], "time": []}}}, "displayed_time": "11.41", "trialTime": 13445, "trial_type": "mouselab-mdp", "trial_index": 92, "time_elapsed": 1476979, "internal_node_id": "0.0-4.0-5.0-15.0"}}, {"uniqueid": "w58601620:a29219035", "current_trial": 93, "dateTime": 1664369460009, "trialdata": {"revealed_states": [], "num_clicks_accrued": [0, 0, 0, 0, 0, 0, 0, 0, 0, 0, 0, 0, 0], "stateRewards": ["", -2, 8, -48, 48, -4, 8, -24, 24, 4, -4, 24, -48], "withholdReward": true, "trial_id": "mdp_904238083902", "block": "test3", "trialIndex": 80, "score": 59, "costs": 0, "simulationMode": [null, null, null], "rewards": [-2, 8, 48], "path": ["0", "0", "1", "2", "4"], "rt": [1061, 260, 991], "actions": ["up", "up", "left"], "actionTimes": [3404, 4178, 5688], "queries": {"click": {"state": {"target": [], "time": []}, "edge": {"target": [], "time": []}}, "mouseover": {"state": {"target": [], "time": []}, "edge": {"target": [], "time": []}}, "mouseout": {"state": {"target": [], "time": []}, "edge": {"target": [], "time": []}}}, "displayed_time": "10.38", "trialTime": 10957, "trial_type": "mouselab-mdp", "trial_index": 93, "time_elapsed": 1488659, "internal_node_id": "0.0-4.0-5.0-16.0"}}, {"uniqueid": "w58601620:a29219035", "current_trial": 94, "dateTime": 1664369471302, "trialdata": {"revealed_states": [], "num_clicks_accrued": [0, 0, 0, 0, 0, 0, 0, 0, 0, 0, 0, 0, 0], "stateRewards": ["", 4, -8, -48, 48, -2, 8, -48, 48, -2, -4, 24, -48], "withholdReward": true, "trial_id": "mdp_400558136089", "block": "test3", "trialIndex": 81, "score": -47, "costs": 0, "simulationMode": [null, null, null], "rewards": [4, -8, -48], "path": ["0", "0", "1", "2", "3"], "rt": [1719, 26, 238], "actions": ["up", "up", "right"], "actionTimes": [3150, 3704, 4470], "queries": {"click": {"state": {"target": [], "time": []}, "edge": {"target": [], "time": []}}, "mouseover": {"state": {"target": [], "time": []}, "edge": {"target": [], "time": []}}, "mouseout": {"state": {"target": ["0"], "time": [866]}, "edge": {"target": [], "time": []}}}, "displayed_time": "9.43", "trialTime": 10345, "trial_type": "mouselab-mdp", "trial_index": 94, "time_elapsed": 1499953, "internal_node_id": "0.0-4.0-5.0-17.0"}}, {"uniqueid": "w58601620:a29219035", "current_trial": 95, "dateTime": 1664369484646, "trialdata": {"revealed_states": [], "num_clicks_accrued": [0, 0, 0, 0, 0, 0, 0, 0, 0, 0, 0, 0, 0], "stateRewards": ["", 2, -4, 48, 24, 2, 8, 24, 24, -2, 4, 24, 24], "withholdReward": false, "trial_id": "mdp_813974524300", "block": "test3", "trialIndex": 82, "score": 39, "costs": 0, "simulationMode": [null, null, null], "rewards": [2, 8, 24], "path": ["0", "0", "5", "6", "8"], "rt": [1694, 552, 218], "actions": ["right", "right", "down"], "actionTimes": [4177, 5254, 6001], "queries": {"click": {"state": {"target": [], "time": []}, "edge": {"target": [], "time": []}}, "mouseover": {"state": {"target": ["0"], "time": [3400]}, "edge": {"target": [], "time": []}}, "mouseout": {"state": {"target": ["0", "0"], "time": [2674, 3441]}, "edge": {"target": [], "time": []}}}, "displayed_time": "12.49", "trialTime": 12880, "trial_type": "mouselab-mdp", "trial_index": 95, "time_elapsed": 1513297, "internal_node_id": "0.0-4.0-5.0-18.0"}}, {"uniqueid": "w58601620:a29219035", "current_trial": 96, "dateTime": 1664369497106, "trialdata": {"revealed_states": [], "num_clicks_accrued": [0, 0, 0, 0, 0, 0, 0, 0, 0, 0, 0, 0, 0], "stateRewards": ["", -4, 8, 24, 24, -2, 8, -48, 48, 4, -8, 48, -48], "withholdReward": true, "trial_id": "mdp_295249220524", "block": "test3", "trialIndex": 83, "score": -37, "costs": 0, "simulationMode": [null, null, null], "rewards": [-2, 8, -48], "path": ["0", "0", "5", "6", "7"], "rt": [2413, 1527, 474], "actions": ["right", "right", "up"], "actionTimes": [4573, 6621, 7605], "queries": {"click": {"state": {"target": [], "time": []}, "edge": {"target": [], "time": []}}, "mouseover": {"state": {"target": ["9"], "time": [3025]}, "edge": {"target": [], "time": []}}, "mouseout": {"state": {"target": ["0"], "time": [29