{"condition": 1, "counterbalance": 0, "assignmentId": "a72763507", "workerId": "w86005371", "hitId": "h65567561", "currenttrial": 224, "bonus": 0, "data": [{"current_trial": 0, "dateTime": 1664368435723, "trialdata": {"internal_node_id": "0.0-0.0", "success": true, "time_elapsed": 7097, "trial_index": 0, "trial_type": "fullscreen"}, "uniqueid": "w86005371:a72763507"}, {"current_trial": 1, "dateTime": 1664368472411, "trialdata": {"internal_node_id": "0.0-1.0", "rt": 36681, "time_elapsed": 43786, "trial_id": "exp_instructions_no_distractor", "trial_index": 1, "trial_type": "instructions", "view_history": [{"page_index": 0, "viewing_time": 36679}]}, "uniqueid": "w86005371:a72763507"}, {"current_trial": 2, "dateTime": 1664368478111, "trialdata": {"internal_node_id": "0.0-2.0-0.0", "success": true, "time_elapsed": 49486, "trial_index": 2, "trial_type": "fullscreen"}, "uniqueid": "w86005371:a72763507"}, {"current_trial": 3, "dateTime": 1664368885124, "trialdata": {"internal_node_id": "0.0-2.0-1.0", "rt": 407077, "time_elapsed": 456498, "trial_id": "mouselab_instructions_1", "trial_index": 3, "trial_type": "instructions", "view_history": [{"page_index": 0, "viewing_time": 215971}, {"page_index": 1, "viewing_time": 47429}, {"page_index": 2, "viewing_time": 42531}, {"page_index": 3, "viewing_time": 70299}, {"page_index": 4, "viewing_time": 30846}]}, "uniqueid": "w86005371:a72763507"}, {"current_trial": 4, "dateTime": 1664368914809, "trialdata": {"actionTimes": [25070, 25909, 26576], "actions": ["up", "up", "right"], "block": "test", "costs": -1.5, "displayed_time": "27.10", "internal_node_id": "0.0-2.0-2.0-0.0", "num_clicks_accrued": [0, 0, 0, 0, 0, 0, 0, 0, 0, 0, 0, 0, 0], "path": ["0", "0", "1", "2", "3"], "queries": {"click": {"edge": {"target": [], "time": []}, "state": {"target": ["1", "9", "5", "2", "4", "3"], "time": [10769, 15384, 16390, 18433, 20053, 20857]}}, "mouseout": {"edge": {"target": [], "time": []}, "state": {"target": ["5", "0", "1", "9", "5", "5", "1", "2", "4", "2", "3", "2", "2", "3", "2", "1", "2", "3", "0"], "time": [1530, 8025, 14999, 15797, 16108, 16908, 17174, 19021, 20353, 20480, 21465, 21745, 22026, 22425, 22547, 23418, 24028, 29181, 29219]}}, "mouseover": {"edge": {"target": [], "time": []}, "state": {"target": ["1", "9", "5", "5", "2", "4", "3"], "time": [8169, 15070, 15860, 16195, 17662, 19880, 20687]}}}, "revealed_states": [], "rewards": [10, 10, 10], "rt": [22735, 322, 151], "score": 30.5, "simulationMode": [null, null, null], "stateRewards": ["", 10, 10, 10, -10, -10, -10, -10, 10, -10, -10, -10, -10], "time_elapsed": 486183, "trialIndex": 0, "trialTime": 29573, "trial_id": "practice_1", "trial_index": 4, "trial_type": "mouselab-mdp", "withholdReward": false}, "uniqueid": "w86005371:a72763507"}, {"current_trial": 5, "dateTime": 1664368944745, "trialdata": {"actionTimes": [24131, 26374, 27785], "actions": ["up", "up", "right"], "block": "test", "costs": -3, "displayed_time": "28.31", "internal_node_id": "0.0-2.0-2.0-1.0", "num_clicks_accrued": [0, 0, 0, 0, 0, 0, 0, 0, 0, 0, 0, 0, 0], "path": ["0", "0", "1", "2", "3"], "queries": {"click": {"edge": {"target": [], "time": []}, "state": {"target": ["2", "1", "10", "9", "6", "5", "3", "4", "11", "12", "8", "7"], "time": [5482, 7334, 8555, 9221, 10164, 11392, 13858, 14659, 15850, 17398, 19214, 19985]}}, "mouseout": {"edge": {"target": [], "time": []}, "state": {"target": ["0", "1", "2", "1", "9", "10", "9", "5", "6", "5", "7", "1", "11", "11", "2", "3", "2", "4", "11", "10", "12", "8", "6", "7"], "time": [2367, 2486, 6978, 7855, 8170, 8855, 9714, 9834, 10539, 12337, 12761, 12791, 12833, 13145, 13402, 14202, 14275, 15235, 16264, 16377, 18491, 19475, 19645, 20746]}}, "mouseover": {"edge": {"target": [], "time": []}, "state": {"target": ["1", "2", "1", "9", "10", "9", "5", "6", "5", "7", "11", "11", "3", "4", "11", "12", "8", "7"], "time": [2431, 2911, 7004, 8146, 8368, 8970, 9778, 9953, 11211, 12383, 12817, 13101, 13455, 14378, 15635, 16504, 18620, 19894]}}}, "revealed_states": [], "rewards": [10, 10, 10], "rt": [22496, 1707, 879], "score": 29, "simulationMode": [null, null, null], "stateRewards": ["", 10, 10, 10, 10, 10, -10, -10, 10, 10, 10, -10, -10], "time_elapsed": 516120, "trialIndex": 1, "trialTime": 29878, "trial_id": "practice_2", "trial_index": 5, "trial_type": "mouselab-mdp", "withholdReward": false}, "uniqueid": "w86005371:a72763507"}, {"current_trial": 6, "dateTime": 1664369040081, "trialdata": {"internal_node_id": "0.0-2.0-3.0", "rt": 95337, "time_elapsed": 611455, "trial_id": "mouselab_instructions_2_scarce", "trial_index": 6, "trial_type": "instructions", "view_history": [{"page_index": 0, "viewing_time": 62382}, {"page_index": 1, "viewing_time": 17519}, {"page_index": 2, "viewing_time": 15435}]}, "uniqueid": "w86005371:a72763507"}, {"current_trial": 7, "dateTime": 1664369094676, "trialdata": {"correct": {"Q0": "$-48 to $48", "Q1": "The cost is always $0.25.", "Q2": "The better I perform the higher my bonus will be.", "Q3": "No, the amount of cash at each node of the web may be different each time.", "Q4": "The values of the nodes walked through from start to finish.", "Q5": "No, the spider might forget to count the money on some rounds."}, "internal_node_id": "0.0-2.0-4.0", "question_order": [0, 1, 2, 3, 4, 5], "response": {"Q0": "$-10 to $10", "Q1": "The cost is always $0.25.", "Q2": "The better I perform the higher my bonus will be.", "Q3": "No, the amount of cash at each node of the web may be different each time.", "Q4": "The values of the nodes walked through from start to finish.", "Q5": "No, the spider might forget to count the money on some rounds."}, "rt": 54560, "time_elapsed": 666051, "trial_id": "mouselab_quiz_scarce", "trial_index": 7, "trial_type": "survey-multi-choice"}, "uniqueid": "w86005371:a72763507"}, {"current_trial": 8, "dateTime": 1664369103158, "trialdata": {"internal_node_id": "0.0-2.1-0.1", "success": true, "time_elapsed": 674533, "trial_index": 8, "trial_type": "fullscreen"}, "uniqueid": "w86005371:a72763507"}, {"current_trial": 9, "dateTime": 1664369121176, "trialdata": {"internal_node_id": "0.0-2.1-1.1", "rt": 18017, "time_elapsed": 692551, "trial_id": "mouselab_instructions_1", "trial_index": 9, "trial_type": "instructions", "view_history": [{"page_index": 0, "viewing_time": 2966}, {"page_index": 1, "viewing_time": 5898}, {"page_index": 2, "viewing_time": 3775}, {"page_index": 3, "viewing_time": 1273}, {"page_index": 4, "viewing_time": 4104}]}, "uniqueid": "w86005371:a72763507"}, {"current_trial": 10, "dateTime": 1664369130013, "trialdata": {"actionTimes": [3284, 3843, 4524], "actions": ["up", "up", "left"], "block": "test", "costs": 0, "displayed_time": "5.04", "internal_node_id": "0.0-2.1-2.1-0.1", "num_clicks_accrued": [0, 0, 0, 0, 0, 0, 0, 0, 0, 0, 0, 0, 0], "path": ["0", "0", "1", "2", "4"], "queries": {"click": {"edge": {"target": [], "time": []}, "state": {"target": [], "time": []}}, "mouseout": {"edge": {"target": [], "time": []}, "state": {"target": ["1", "2", "4", "2", "1", "0"], "time": [1566, 1974, 2207, 2279, 5087, 5136]}}, "mouseover": {"edge": {"target": [], "time": []}, "state": {"target": ["1", "2", "4", "2"], "time": [1533, 1582, 2094, 2255]}}}, "revealed_states": [], "rewards": [10, 10, -10], "rt": [2156, 35, 149], "score": 12, "simulationMode": [null, null, null], "stateRewards": ["", 10, 10, 10, -10, -10, -10, -10, 10, -10, -10, -10, -10], "time_elapsed": 701388, "trialIndex": 2, "trialTime": 8790, "trial_id": "practice_1", "trial_index": 10, "trial_type": "mouselab-mdp", "withholdReward": false}, "uniqueid": "w86005371:a72763507"}, {"current_trial": 11, "dateTime": 1664369135507, "trialdata": {"actionTimes": [2347, 3308, 3875], "actions": ["right", "right", "down"], "block": "test", "costs": 0, "displayed_time": "4.39", "internal_node_id": "0.0-2.1-2.1-1.1", "num_clicks_accrued": [0, 0, 0, 0, 0, 0, 0, 0, 0, 0, 0, 0, 0], "path": ["0", "0", "5", "6", "8"], "queries": {"click": {"edge": {"target": [], "time": []}, "state": {"target": [], "time": []}}, "mouseout": {"edge": {"target": [], "time": []}, "state": {"target": ["0", "0", "5"], "time": [1499, 4549, 4734]}}, "mouseover": {"edge": {"target": [], "time": []}, "state": {"target": [], "time": []}}}, "revealed_states": [], "rewards": [10, -10, 10], "rt": [452, 441, 33], "score": 12, "simulationMode": [null, null, null], "stateRewards": ["", 10, 10, 10, 10, 10, -10, -10, 10, 10, 10, -10, -10], "time_elapsed": 706881, "trialIndex": 3, "trialTime": 5445, "trial_id": "practice_2", "trial_index": 11, "trial_type": "mouselab-mdp", "withholdReward": false}, "uniqueid": "w86005371:a72763507"}, {"current_trial": 12, "dateTime": 1664369142299, "trialdata": {"internal_node_id": "0.0-2.1-3.1", "rt": 6789, "time_elapsed": 713673, "trial_id": "mouselab_instructions_2_scarce", "trial_index": 12, "trial_type": "instructions", "view_history": [{"page_index": 0, "viewing_time": 4492}, {"page_index": 1, "viewing_time": 1098}, {"page_index": 2, "viewing_time": 1198}]}, "uniqueid": "w86005371:a72763507"}, {"current_trial": 13, "dateTime": 1664369170601, "trialdata": {"correct": {"Q0": "$-48 to $48", "Q1": "The cost is always $0.25.", "Q2": "The better I perform the higher my bonus will be.", "Q3": "No, the amount of cash at each node of the web may be different each time.", "Q4": "The values of the nodes walked through from start to finish.", "Q5": "No, the spider might forget to count the money on some rounds."}, "internal_node_id": "0.0-2.1-4.1", "question_order": [0, 1, 2, 3, 4, 5], "response": {"Q0": "$-48 to $48", "Q1": "The cost is always $0.25.", "Q2": "The better I perform the higher my bonus will be.", "Q3": "No, the amount of cash at each node of the web may be different each time.", "Q4": "The values of the nodes walked through from start to finish.", "Q5": "No, the spider might forget to count the money on some rounds."}, "rt": 28299, "time_elapsed": 741976, "trial_id": "mouselab_quiz_scarce", "trial_index": 13, "trial_type": "survey-multi-choice"}, "uniqueid": "w86005371:a72763507"}, {"current_trial": 14, "dateTime": 1664369192463, "trialdata": {"internal_node_id": "0.0-4.0-0.0", "response": " ", "rt": 21843, "stimulus": "\n<h1> Get ready to start the game! </h1>\n\nThank you for reading the instructions. Get ready start with the first of 4 block(s) of this game.\n<br><br>\nIn this first block, you will complete 30 rounds of this game before moving on.\n<br><br>\nRemember, the more money the spider gets, the bigger your bonus will be!\n<br><br>\n<div style='text-align: center;'>Press <code>space</code> to begin.</div>\n\n<br><br>\n(If, at any point, the <code>space</code> key does not take you to the next page, click once on the text and try again.)", "time_elapsed": 763838, "trial_id": "mdp_ready_1", "trial_index": 14, "trial_type": "html-keyboard-response"}, "uniqueid": "w86005371:a72763507"}, {"current_trial": 15, "dateTime": 1664369218753, "trialdata": {"actionTimes": [23092, 23658, 24417], "actions": ["left", "left", "down"], "block": "test1", "costs": -1.5, "displayed_time": "24.93", "internal_node_id": "0.0-4.0-1.0-0.0", "num_clicks_accrued": [0, 0, 0, 0, 0, 0, 0, 0, 0, 0, 0, 0, 0], "path": ["0", "0", "9", "10", "12"], "queries": {"click": {"edge": {"target": [], "time": []}, "state": {"target": ["5", "4", "12", "9", "1", "10"], "time": [7177, 11995, 15075, 17777, 19973, 21841]}}, "mouseout": {"edge": {"target": [], "time": []}, "state": {"target": ["8", "4", "4", "0", "1", "5", "1", "4", "1", "1", "10", "12", "9", "5", "0", "1", "1", "9", "10", "9", "0"], "time": [1666, 1771, 1896, 6050, 6753, 11425, 11493, 12897, 13011, 14080, 14543, 15522, 18159, 18889, 18920, 19392, 20905, 20994, 22548, 22578, 25542]}}, "mouseover": {"edge": {"target": [], "time": []}, "state": {"target": ["1", "5", "1", "4", "1", "1", "10", "12", "9", "0", "1", "1", "10"], "time": [6146, 6891, 11464, 11528, 12945, 14055, 14425, 14624, 17320, 18912, 19088, 19752, 21130]}}}, "revealed_states": [], "rewards": [-4, 8, 24], "rt": [20612, 45, 238], "score": 31.5, "simulationMode": [null, null, null], "stateRewards": ["", 4, 4, -48, -48, 4, 4, -24, -24, -4, 8, -48, 24], "time_elapsed": 790127, "trialIndex": 4, "trialTime": 26248, "trial_id": "mdp_669785455541", "trial_index": 15, "trial_type": "mouselab-mdp", "withholdReward": true}, "uniqueid": "w86005371:a72763507"}, {"current_trial": 16, "dateTime": 1664369239833, "trialdata": {"actionTimes": [17916, 18528, 19218], "actions": ["up", "up", "left"], "block": "test1", "costs": -1.75, "displayed_time": "19.74", "internal_node_id": "0.0-4.0-1.0-1.0", "num_clicks_accrued": [0, 0, 0, 0, 0, 0, 0, 0, 0, 0, 0, 0, 0], "path": ["0", "0", "1", "2", "4"], "queries": {"click": {"edge": {"target": [], "time": []}, "state": {"target": ["7", "12", "9", "10", "4", "2", "1"], "time": [4053, 6250, 8548, 9428, 12895, 14069, 14782]}}, "mouseout": {"edge": {"target": [], "time": []}, "state": {"target": ["0", "7", "7", "11", "10", "12", "9", "10", "9", "6", "2", "3", "2", "4", "2", "2", "1", "0"], "time": [1286, 3281, 5181, 5542, 5656, 6687, 9058, 10518, 10567, 11407, 12242, 12394, 12456, 13490, 13603, 14504, 20265, 20314]}}, "mouseover": {"edge": {"target": [], "time": []}, "state": {"target": ["7", "7", "11", "10", "12", "9", "10", "6", "2", "3", "2", "4", "2", "2", "1"], "time": [3258, 3688, 5487, 5598, 5918, 8043, 9329, 11375, 12041, 12289, 12416, 12506, 13555, 13882, 14559]}}}, "revealed_states": [], "rewards": [-2, -4, 48], "rt": [16428, 76, 182], "score": 45.25, "simulationMode": [null, null, null], "stateRewards": ["", -2, -4, -48, 48, -4, 4, -48, 24, -4, -8, 24, 48], "time_elapsed": 811208, "trialIndex": 5, "trialTime": 21043, "trial_id": "mdp_264482284450", "trial_index": 16, "trial_type": "mouselab-mdp", "withholdReward": true}, "uniqueid": "w86005371:a72763507"}, {"current_trial": 17, "dateTime": 1664369256799, "trialdata": {"actionTimes": [13386, 14669, 15472], "actions": ["up", "up", "left"], "block": "test1", "costs": -1.25, "displayed_time": "16.00", "internal_node_id": "0.0-4.0-1.0-2.0", "num_clicks_accrued": [0, 0, 0, 0, 0, 0, 0, 0, 0, 0, 0, 0, 0], "path": ["0", "0", "1", "2", "4"], "queries": {"click": {"edge": {"target": [], "time": []}, "state": {"target": ["12", "7", "4", "1", "2"], "time": [6720, 8257, 9431, 10589, 11188]}}, "mouseout": {"edge": {"target": [], "time": []}, "state": {"target": ["0", "1", "9", "12", "10", "7", "6", "7", "4", "2", "1", "2", "1", "5", "6", "5", "2", "1"], "time": [2842, 6065, 6331, 7379, 7406, 7812, 7973, 8981, 10033, 10386, 10946, 12029, 12339, 12358, 12372, 12732, 16229, 16316]}}, "mouseover": {"edge": {"target": [], "time": []}, "state": {"target": ["1", "9", "12", "10", "7", "6", "7", "4", "2", "1", "2", "5", "6", "5"], "time": [6029, 6155, 6555, 7397, 7699, 7836, 8076, 9062, 10073, 10442, 10986, 12348, 12366, 12725]}}}, "revealed_states": [], "rewards": [-4, -4, 48], "rt": [10135, 762, 278], "score": 43.75, "simulationMode": [null, null, null], "stateRewards": ["", -4, -4, -48, 48, -4, -8, -24, -48, -2, 8, 48, 24], "time_elapsed": 828174, "trialIndex": 6, "trialTime": 16929, "trial_id": "mdp_365393526663", "trial_index": 17, "trial_type": "mouselab-mdp", "withholdReward": true}, "uniqueid": "w86005371:a72763507"}, {"current_trial": 18, "dateTime": 1664369268710, "trialdata": {"actionTimes": [6072, 6607, 7208], "actions": ["left", "left", "up"], "block": "test1", "costs": -1, "displayed_time": "10.35", "internal_node_id": "0.0-4.0-1.0-3.0", "num_clicks_accrued": [0, 0, 0, 0, 0, 0, 0, 0, 0, 0, 0, 0, 0], "path": ["0", "0", "9", "10", "11"], "queries": {"click": {"edge": {"target": [], "time": []}, "state": {"target": ["3", "11", "9", "10"], "time": [2034, 3262, 4429, 5113]}}, "mouseout": {"edge": {"target": [], "time": []}, "state": {"target": ["0", "1", "3", "1", "11", "10", "9", "10"], "time": [1438, 1719, 2785, 2824, 3931, 3962, 4911, 11150]}}, "mouseover": {"edge": {"target": [], "time": []}, "state": {"target": ["1", "3", "1", "11", "10", "9", "10"], "time": [1712, 1800, 2809, 3041, 3947, 4314, 4975]}}}, "revealed_states": [], "rewards": [4, 8, 48], "rt": [4732, 14, 82], "score": 64, "simulationMode": [null, null, null], "stateRewards": ["", -2, -4, -24, 48, -2, -8, -48, -24, 4, 8, 48, 24], "time_elapsed": 840085, "trialIndex": 7, "trialTime": 11877, "trial_id": "mdp_625355871626", "trial_index": 18, "trial_type": "mouselab-mdp", "withholdReward": false}, "uniqueid": "w86005371:a72763507"}, {"current_trial": 19, "dateTime": 1664369282111, "trialdata": {"actionTimes": [10754, 11319, 11901], "actions": ["up", "up", "right"], "block": "test1", "costs": -1.5, "displayed_time": "12.42", "internal_node_id": "0.0-4.0-1.0-4.0", "num_clicks_accrued": [0, 0, 0, 0, 0, 0, 0, 0, 0, 0, 0, 0, 0], "path": ["0", "0", "1", "2", "3"], "queries": {"click": {"edge": {"target": [], "time": []}, "state": {"target": ["8", "7", "11", "3", "1", "2"], "time": [4589, 5886, 7048, 8145, 9170, 9762]}}, "mouseout": {"edge": {"target": [], "time": []}, "state": {"target": ["0", "5", "6", "8", "6", "7", "7", "11", "2", "3", "2", "1"], "time": [3953, 3999, 4232, 5117, 5164, 5445, 6477, 7670, 7727, 8792, 8815, 9416]}}, "mouseover": {"edge": {"target": [], "time": []}, "state": {"target": ["5", "6", "8", "6", "7", "7", "11", "2", "3", "2", "1", "2"], "time": [3990, 4191, 4272, 5134, 5197, 5605, 6782, 7710, 8064, 8807, 9016, 9624]}}}, "revealed_states": [], "rewards": [-4, 8, 48], "rt": [7356, 33, 64], "score": 55.5, "simulationMode": [null, null, null], "stateRewards": ["", -4, 8, 48, -48, 2, -4, 24, -24, -2, 4, -24, -24], "time_elapsed": 853486, "trialIndex": 8, "trialTime": 13365, "trial_id": "mdp_804988042722", "trial_index": 19, "trial_type": "mouselab-mdp", "withholdReward": true}, "uniqueid": "w86005371:a72763507"}, {"current_trial": 20, "dateTime": 1664369292844, "trialdata": {"actionTimes": [5420, 6100, 6731], "actions": ["left", "left", "down"], "block": "test1", "costs": -0.75, "displayed_time": "9.68", "internal_node_id": "0.0-4.0-1.0-5.0", "num_clicks_accrued": [0, 0, 0, 0, 0, 0, 0, 0, 0, 0, 0, 0, 0], "path": ["0", "0", "9", "10", "12"], "queries": {"click": {"edge": {"target": [], "time": []}, "state": {"target": ["12", "9", "10"], "time": [2561, 4115, 4638]}}, "mouseout": {"edge": {"target": [], "time": []}, "state": {"target": ["2", "2", "0", "9", "12", "9", "2", "9", "9", "10", "9"], "time": [931, 980, 2087, 2158, 3120, 3183, 3454, 3535, 4426, 8648, 8696]}}, "mouseover": {"edge": {"target": [], "time": []}, "state": {"target": ["9", "12", "9", "2", "9", "9", "10"], "time": [2128, 2447, 3175, 3279, 3520, 3920, 4539]}}}, "revealed_states": [], "rewards": [2, -4, 48], "rt": [3753, 148, 109], "score": 50.25, "simulationMode": [null, null, null], "stateRewards": ["", 4, -8, -24, 24, 2, -4, 24, 24, 2, -4, 48, 48], "time_elapsed": 864219, "trialIndex": 9, "trialTime": 10698, "trial_id": "mdp_457607480918", "trial_index": 20, "trial_type": "mouselab-mdp", "withholdReward": true}, "uniqueid": "w86005371:a72763507"}, {"current_trial": 21, "dateTime": 1664369304569, "trialdata": {"actionTimes": [8643, 9269, 10145], "actions": ["right", "right", "up"], "block": "test1", "costs": -1.5, "displayed_time": "10.66", "internal_node_id": "0.0-4.0-1.0-6.0", "num_clicks_accrued": [0, 0, 0, 0, 0, 0, 0, 0, 0, 0, 0, 0, 0], "path": ["0", "0", "5", "6", "7"], "queries": {"click": {"edge": {"target": [], "time": []}, "state": {"target": ["4", "8", "11", "7", "5", "6"], "time": [2636, 3941, 5069, 6070, 7294, 7783]}}, "mouseout": {"edge": {"target": [], "time": []}, "state": {"target": ["0", "4", "2", "5", "8", "5", "11", "11", "1", "7", "6", "5", "6"], "time": [2173, 3417, 3466, 3587, 4506, 4532, 4609, 5733, 5771, 6853, 7101, 7541, 11378]}}, "mouseover": {"edge": {"target": [], "time": []}, "state": {"target": ["4", "2", "5", "8", "5", "11", "11", "1", "7", "6", "5", "6"], "time": [2549, 3457, 3569, 3672, 4521, 4602, 4891, 5756, 5803, 6956, 7156, 7597]}}}, "revealed_states": [], "rewards": [-2, 4, 48], "rt": [7522, 92, 366], "score": 53.5, "simulationMode": [null, null, null], "stateRewards": ["", -4, -4, -24, -24, -2, 4, 48, -24, -2, -4, -24, 48], "time_elapsed": 875943, "trialIndex": 10, "trialTime": 11690, "trial_id": "mdp_855903341564", "trial_index": 21, "trial_type": "mouselab-mdp", "withholdReward": true}, "uniqueid": "w86005371:a72763507"}, {"current_trial": 22, "dateTime": 1664369315583, "trialdata": {"actionTimes": [4219, 4829, 5794], "actions": ["up", "up", "right"], "block": "test1", "costs": -0.75, "displayed_time": "10.09", "internal_node_id": "0.0-4.0-1.0-7.0", "num_clicks_accrued": [0, 0, 0, 0, 0, 0, 0, 0, 0, 0, 0, 0, 0], "path": ["0", "0", "1", "2", "3"], "queries": {"click": {"edge": {"target": [], "time": []}, "state": {"target": ["3", "1", "2"], "time": [1940, 2885, 3274]}}, "mouseout": {"edge": {"target": [], "time": []}, "state": {"target": ["8", "8", "8", "5", "1", "3", "1"], "time": [565, 578, 648, 697, 1649, 2524, 3116]}}, "mouseover": {"edge": {"target": [], "time": []}, "state": {"target": ["1", "3", "1", "2"], "time": [1603, 1740, 2660, 3165]}}}, "revealed_states": [], "rewards": [2, -4, 48], "rt": [3137, 87, 447], "score": 50.25, "simulationMode": [null, null, null], "stateRewards": ["", 2, -4, 48, -48, -2, 8, -48, 24, -2, -8, 48, 48], "time_elapsed": 886958, "trialIndex": 11, "trialTime": 10980, "trial_id": "mdp_949326095747", "trial_index": 22, "trial_type": "mouselab-mdp", "withholdReward": true}, "uniqueid": "w86005371:a72763507"}, {"current_trial": 23, "dateTime": 1664369334296, "trialdata": {"actionTimes": [11993, 12564, 13468], "actions": ["up", "up", "left"], "block": "test1", "costs": -2, "displayed_time": "14.00", "internal_node_id": "0.0-4.0-1.0-8.0", "num_clicks_accrued": [0, 0, 0, 0, 0, 0, 0, 0, 0, 0, 0, 0, 0], "path": ["0", "0", "1", "2", "4"], "queries": {"click": {"edge": {"target": [], "time": []}, "state": {"target": ["11", "8", "12", "4", "1", "2", "7", "3"], "time": [2175, 3352, 4365, 5276, 6679, 7280, 9764, 10541]}}, "mouseout": {"edge": {"target": [], "time": []}, "state": {"target": ["2", "2", "4", "0", "9", "10", "11", "1", "6", "8", "12", "10", "4", "1", "1", "2", "3", "7", "3", "5", "6"], "time": [457, 508, 738, 1686, 1741, 1878, 2806, 2863, 2959, 3855, 4713, 4752, 5894, 5981, 7110, 9186, 9232, 10141, 11104, 17681, 18108]}}, "mouseover": {"edge": {"target": [], "time": []}, "state": {"target": ["9", "10", "11", "1", "6", "8", "12", "10", "4", "1", "1", "2", "3", "7", "3"], "time": [1709, 1781, 1932, 2846, 2943, 3217, 4104, 4728, 5129, 5950, 6581, 7143, 9209, 9480, 10212]}}}, "revealed_states": [], "rewards": [-4, 4, 48], "rt": [10730, 53, 373], "score": 51, "simulationMode": [null, null, null], "stateRewards": ["", -4, 4, -24, 48, 2, 4, -48, 24, 4, -8, -24, 24], "time_elapsed": 905671, "trialIndex": 12, "trialTime": 18677, "trial_id": "mdp_740130150937", "trial_index": 23, "trial_type": "mouselab-mdp", "withholdReward": true}, "uniqueid": "w86005371:a72763507"}, {"current_trial": 24, "dateTime": 1664369346007, "trialdata": {"actionTimes": [8329, 8971, 9628], "actions": ["up", "up", "left"], "block": "test1", "costs": -0.75, "displayed_time": "11.01", "internal_node_id": "0.0-4.0-1.0-9.0", "num_clicks_accrued": [0, 0, 0, 0, 0, 0, 0, 0, 0, 0, 0, 0, 0], "path": ["0", "0", "1", "2", "4"], "queries": {"click": {"edge": {"target": [], "time": []}, "state": {"target": ["4", "1", "2"], "time": [3600, 5120, 6118]}}, "mouseout": {"edge": {"target": [], "time": []}, "state": {"target": ["0", "1", "2", "4", "2", "3", "2", "1", "2", "11"], "time": [2638, 2708, 2877, 4066, 4182, 4592, 4743, 5375, 6733, 7311]}}, "mouseover": {"edge": {"target": [], "time": []}, "state": {"target": ["1", "2", "4", "2", "3", "2", "1", "2", "11"], "time": [2676, 2734, 3318, 4118, 4247, 4695, 4769, 5990, 6836]}}}, "revealed_states": [], "rewards": [-2, 8, 48], "rt": [6324, 120, 141], "score": 58.25, "simulationMode": [null, null, null], "stateRewards": ["", -2, 8, -48, 48, 4, -8, -48, 48, 4, -4, -24, 48], "time_elapsed": 917382, "trialIndex": 13, "trialTime": 11678, "trial_id": "mdp_144739116828", "trial_index": 24, "trial_type": "mouselab-mdp", "withholdReward": true}, "uniqueid": "w86005371:a72763507"}, {"current_trial": 25, "dateTime": 1664369357436, "trialdata": {"actionTimes": [7505, 8167, 9012], "actions": ["right", "right", "up"], "block": "test1", "costs": -1.25, "displayed_time": "10.54", "internal_node_id": "0.0-4.0-1.0-10.0", "num_clicks_accrued": [0, 0, 0, 0, 0, 0, 0, 0, 0, 0, 0, 0, 0], "path": ["0", "0", "5", "6", "7"], "queries": {"click": {"edge": {"target": [], "time": []}, "state": {"target": ["11", "8", "7", "5", "6"], "time": [2294, 4132, 5029, 6151, 6575]}}, "mouseout": {"edge": {"target": [], "time": []}, "state": {"target": ["11", "5", "0", "9", "11", "9", "0", "6", "7", "6", "8", "6", "7", "5", "6", "8"], "time": [756, 1010, 1989, 2020, 2872, 2905, 2920, 2955, 3673, 3731, 4706, 4747, 5851, 6379, 10189, 11018]}}, "mouseover": {"edge": {"target": [], "time": []}, "state": {"target": ["9", "11", "9", "0", "6", "7", "6", "8", "6", "7", "5", "6"], "time": [2012, 2156, 2897, 2914, 2947, 3636, 3699, 3778, 4724, 4771, 6069, 6420]}}}, "revealed_states": [], "rewards": [-4, 8, 48], "rt": [5975, 143, 336], "score": 55.75, "simulationMode": [null, null, null], "stateRewards": ["", 2, 8, -48, 24, -4, 8, 48, -24, 2, 8, 24, 24], "time_elapsed": 928811, "trialIndex": 14, "trialTime": 11395, "trial_id": "mdp_175372499314", "trial_index": 25, "trial_type": "mouselab-mdp", "withholdReward": true}, "uniqueid": "w86005371:a72763507"}, {"current_trial": 26, "dateTime": 1664369369173, "trialdata": {"actionTimes": [6802, 7411, 8106], "actions": ["left", "left", "down"], "block": "test1", "costs": -1.25, "displayed_time": "8.98", "internal_node_id": "0.0-4.0-1.0-11.0", "num_clicks_accrued": [0, 0, 0, 0, 0, 0, 0, 0, 0, 0, 0, 0, 0], "path": ["0", "0", "9", "10", "12"], "queries": {"click": {"edge": {"target": [], "time": []}, "state": {"target": ["4", "3", "12", "9", "10"], "time": [1618, 2976, 4285, 5325, 5768]}}, "mouseout": {"edge": {"target": [], "time": []}, "state": {"target": ["0", "4", "2", "3", "3", "12", "9", "1", "9", "10", "9", "7"], "time": [781, 2174, 2214, 2277, 3517, 4741, 4781, 4980, 5605, 6405, 6438, 11275]}}, "mouseover": {"edge": {"target": [], "time": []}, "state": {"target": ["4", "2", "3", "3", "12", "9", "1", "9", "10"], "time": [1495, 2190, 2229, 2887, 4052, 4755, 4964, 5165, 5653]}}}, "revealed_states": [], "rewards": [4, 4, 48], "rt": [5830, 99, 175], "score": 59.75, "simulationMode": [null, null, null], "stateRewards": ["", -2, -8, -24, -48, -2, -4, 48, -48, 4, 4, -48, 48], "time_elapsed": 940548, "trialIndex": 15, "trialTime": 11702, "trial_id": "mdp_156977432949", "trial_index": 26, "trial_type": "mouselab-mdp", "withholdReward": false}, "uniqueid": "w86005371:a72763507"}, {"current_trial": 27, "dateTime": 1664369387152, "trialdata": {"actionTimes": [14810, 15387, 16052], "actions": ["left", "left", "down"], "block": "test1", "costs": -3, "displayed_time": "16.57", "internal_node_id": "0.0-4.0-1.0-12.0", "num_clicks_accrued": [0, 0, 0, 0, 0, 0, 0, 0, 0, 0, 0, 0, 0], "path": ["0", "0", "9", "10", "12"], "queries": {"click": {"edge": {"target": [], "time": []}, "state": {"target": ["11", "8", "7", "12", "4", "3", "2", "1", "5", "6", "9", "10"], "time": [2466, 3626, 4386, 5334, 6719, 7313, 7957, 8499, 9158, 9632, 10481, 11183]}}, "mouseout": {"edge": {"target": [], "time": []}, "state": {"target": ["6", "6", "0", "11", "1", "7", "8", "6", "7", "9", "12", "10", "4", "9", "9", "4", "2", "3", "2", "1", "5", "6", "5", "0", "9", "10", "9", "10", "11", "9"], "time": [779, 787, 1693, 3005, 3046, 3093, 4087, 4134, 4892, 4995, 5764, 5788, 6158, 6222, 6406, 6966, 7021, 7703, 8215, 8886, 9388, 9901, 9957, 10272, 10854, 11783, 11846, 12039, 17091, 17130]}}, "mouseover": {"edge": {"target": [], "time": []}, "state": {"target": ["11", "1", "7", "8", "6", "7", "9", "12", "10", "4", "9", "9", "4", "2", "3", "2", "1", "5", "6", "0", "9", "10"], "time": [2349, 3037, 3069, 3461, 4104, 4151, 4962, 5148, 5780, 5829, 6206, 6398, 6461, 6989, 7069, 7816, 8263, 8987, 9428, 10253, 10342, 10940]}}}, "revealed_states": [], "rewards": [2, 4, 48], "rt": [13016, 44, 140], "score": 56, "simulationMode": [null, null, null], "stateRewards": ["", 4, -4, 48, 24, 2, 4, 24, -24, 2, 4, 24, 48], "time_elapsed": 958527, "trialIndex": 16, "trialTime": 17942, "trial_id": "mdp_736351885282", "trial_index": 27, "trial_type": "mouselab-mdp", "withholdReward": false}, "uniqueid": "w86005371:a72763507"}, {"current_trial": 28, "dateTime": 1664369400423, "trialdata": {"actionTimes": [9870, 10466, 11166], "actions": ["up", "up", "right"], "block": "test1", "costs": -2.5, "displayed_time": "11.68", "internal_node_id": "0.0-4.0-1.0-13.0", "num_clicks_accrued": [0, 0, 0, 0, 0, 0, 0, 0, 0, 0, 0, 0, 0], "path": ["0", "0", "1", "2", "3"], "queries": {"click": {"edge": {"target": [], "time": []}, "state": {"target": ["4", "8", "6", "5", "12", "11", "7", "3", "2", "1"], "time": [1982, 3153, 3924, 4307, 5515, 6595, 7419, 7962, 8719, 9099]}}, "mouseout": {"edge": {"target": [], "time": []}, "state": {"target": ["0", "1", "4", "6", "8", "6", "5", "0", "9", "12", "10", "11", "1", "7", "3", "2", "1", "9"], "time": [878, 1603, 2648, 2751, 3682, 4176, 5006, 5046, 5094, 5863, 5911, 7031, 7095, 7752, 8597, 8926, 12239, 12278]}}, "mouseover": {"edge": {"target": [], "time": []}, "state": {"target": ["1", "4", "6", "8", "6", "5", "0", "9", "12", "10", "11", "1", "7", "3", "2", "1"], "time": [1592, 1729, 2737, 2937, 3720, 4234, 5030, 5062, 5295, 5881, 5935, 7080, 7159, 7808, 8638, 8974]}}}, "revealed_states": [], "rewards": [2, -8, 48], "rt": [8747, 78, 194], "score": 44.5, "simulationMode": [null, null, null], "stateRewards": ["", 2, -8, 48, -24, -4, -8, -24, 48, -2, 4, 24, -48], "time_elapsed": 971797, "trialIndex": 17, "trialTime": 13232, "trial_id": "mdp_186932504904", "trial_index": 28, "trial_type": "mouselab-mdp", "withholdReward": false}, "uniqueid": "w86005371:a72763507"}, {"current_trial": 29, "dateTime": 1664369415490, "trialdata": {"actionTimes": [11695, 12403, 13127], "actions": ["up", "up", "right"], "block": "test1", "costs": -1.5, "displayed_time": "13.65", "internal_node_id": "0.0-4.0-1.0-14.0", "num_clicks_accrued": [0, 0, 0, 0, 0, 0, 0, 0, 0, 0, 0, 0, 0], "path": ["0", "0", "1", "2", "3"], "queries": {"click": {"edge": {"target": [], "time": []}, "state": {"target": ["11", "12", "4", "7", "3", "2"], "time": [1983, 4381, 6430, 7404, 8130, 10875]}}, "mouseout": {"edge": {"target": [], "time": []}, "state": {"target": ["0", "9", "11", "1", "7", "6", "5", "12", "12", "8", "8", "12", "0", "5", "2", "4", "2", "3", "7", "7", "3", "6", "2", "1", "2", "1"], "time": [1571, 1640, 2382, 2449, 2770, 2817, 2842, 3019, 3279, 3482, 4067, 4991, 5047, 5161, 5528, 6904, 6945, 6969, 7018, 7907, 8507, 8738, 10089, 10626, 14296, 14337]}}, "mouseover": {"edge": {"target": [], "time": []}, "state": {"target": ["9", "11", "1", "7", "6", "5", "12", "12", "8", "8", "12", "0", "5", "2", "4", "2", "3", "7", "7", "3", "6", "2", "1", "2"], "time": [1592, 1948, 2442, 2497, 2811, 2834, 2961, 3250, 3418, 4027, 4219, 5033, 5064, 5272, 6283, 6928, 6953, 7001, 7355, 7995, 8620, 9027, 10426, 10722]}}}, "revealed_states": [], "rewards": [-2, 8, 48], "rt": [10628, 190, 212], "score": 57.5, "simulationMode": [null, null, null], "stateRewards": ["", -2, 8, 48, -24, 2, 4, -48, -24, -4, 8, -48, -48], "time_elapsed": 986864, "trialIndex": 18, "trialTime": 15031, "trial_id": "mdp_539167561933", "trial_index": 29, "trial_type": "mouselab-mdp", "withholdReward": false}, "uniqueid": "w86005371:a72763507"}, {"current_trial": 30, "dateTime": 1664369426614, "trialdata": {"actionTimes": [3744, 4326, 5245], "actions": ["left", "left", "up"], "block": "test1", "costs": -0.5, "displayed_time": "10.33", "internal_node_id": "0.0-4.0-1.0-15.0", "num_clicks_accrued": [0, 0, 0, 0, 0, 0, 0, 0, 0, 0, 0, 0, 0], "path": ["0", "0", "9", "10", "11"], "queries": {"click": {"edge": {"target": [], "time": []}, "state": {"target": ["11", "9"], "time": [2182, 2951]}}, "mouseout": {"edge": {"target": [], "time": []}, "state": {"target": ["0", "11", "9", "10", "9"], "time": [1055, 2751, 3247, 6258, 6312]}}, "mouseover": {"edge": {"target": [], "time": []}, "state": {"target": ["11", "9", "10"], "time": [2098, 2847, 3311]}}}, "revealed_states": [], "rewards": [4, -8, 48], "rt": [2420, 56, 391], "score": 48.5, "simulationMode": [null, null, null], "stateRewards": ["", -2, -4, -24, -48, 2, -8, -24, -24, 4, -8, 48, 48], "time_elapsed": 997989, "trialIndex": 19, "trialTime": 11088, "trial_id": "mdp_950599994674", "trial_index": 30, "trial_type": "mouselab-mdp", "withholdReward": true}, "uniqueid": "w86005371:a72763507"}, {"current_trial": 31, "dateTime": 1664369437409, "trialdata": {"actionTimes": [6415, 7150, 8220], "actions": ["right", "right", "up"], "block": "test1", "costs": -1, "displayed_time": "10.41", "internal_node_id": "0.0-4.0-1.0-16.0", "num_clicks_accrued": [0, 0, 0, 0, 0, 0, 0, 0, 0, 0, 0, 0, 0], "path": ["0", "0", "5", "6", "7"], "queries": {"click": {"edge": {"target": [], "time": []}, "state": {"target": ["3", "12", "7", "5"], "time": [2216, 3265, 4219, 5439]}}, "mouseout": {"edge": {"target": [], "time": []}, "state": {"target": ["0", "1", "1", "3", "1", "10", "12", "9", "7", "7", "6", "5"], "time": [631, 933, 1887, 2791, 2855, 3016, 3730, 3752, 3808, 4893, 5021, 5830]}}, "mouseover": {"edge": {"target": [], "time": []}, "state": {"target": ["1", "3", "1", "10", "12", "9", "7", "7", "6", "5", "6"], "time": [1846, 2159, 2831, 2910, 3087, 3743, 3792, 4111, 4926, 5190, 5869]}}}, "revealed_states": [], "rewards": [4, 4, 48], "rt": [5010, 206, 554], "score": 60, "simulationMode": [null, null, null], "stateRewards": ["", 2, -4, -48, 24, 4, 4, 48, -48, -2, -4, -24, -48], "time_elapsed": 1008783, "trialIndex": 20, "trialTime": 10758, "trial_id": "mdp_858916930936", "trial_index": 31, "trial_type": "mouselab-mdp", "withholdReward": false}, "uniqueid": "w86005371:a72763507"}, {"current_trial": 32, "dateTime": 1664369449950, "trialdata": {"actionTimes": [9812, 10399, 10927], "actions": ["up", "up", "right"], "block": "test1", "costs": -1.5, "displayed_time": "11.76", "internal_node_id": "0.0-4.0-1.0-17.0", "num_clicks_accrued": [0, 0, 0, 0, 0, 0, 0, 0, 0, 0, 0, 0, 0], "path": ["0", "0", "1", "2", "3"], "queries": {"click": {"edge": {"target": [], "time": []}, "state": {"target": ["11", "8", "4", "3", "1", "2"], "time": [4388, 5412, 6617, 7232, 8078, 8891]}}, "mouseout": {"edge": {"target": [], "time": []}, "state": {"target": ["6", "6", "5", "0", "9", "1", "11", "7", "8", "6", "7", "4", "2", "3", "1", "2", "1", "0"], "time": [3174, 3225, 3248, 3281, 3344, 3497, 4890, 5002, 5856, 5889, 5929, 7026, 7080, 7800, 8661, 11868, 11979, 12108]}}, "mouseover": {"edge": {"target": [], "time": []}, "state": {"target": ["11", "7", "8", "6", "7", "4", "2", "3", "1", "2"], "time": [4233, 4993, 5252, 5865, 5903, 6448, 7053, 7112, 7937, 8802]}}}, "revealed_states": [], "rewards": [-2, 8, 48], "rt": [6062, 66, 7], "score": 57.5, "simulationMode": [null, null, null], "stateRewards": ["", -2, 8, 48, -48, 4, -8, 24, 24, 4, 4, -48, -24], "time_elapsed": 1021324, "trialIndex": 21, "trialTime": 12495, "trial_id": "mdp_746937869927", "trial_index": 32, "trial_type": "mouselab-mdp", "withholdReward": true}, "uniqueid": "w86005371:a72763507"}, {"current_trial": 33, "dateTime": 1664369462236, "trialdata": {"actionTimes": [6365, 6966, 7832], "actions": ["right", "right", "down"], "block": "test1", "costs": -0.75, "displayed_time": "10.91", "internal_node_id": "0.0-4.0-1.0-18.0", "num_clicks_accrued": [0, 0, 0, 0, 0, 0, 0, 0, 0, 0, 0, 0, 0], "path": ["0", "0", "5", "6", "8"], "queries": {"click": {"edge": {"target": [], "time": []}, "state": {"target": ["11", "8", "5"], "time": [3725, 4815, 5891]}}, "mouseout": {"edge": {"target": [], "time": []}, "state": {"target": ["0", "9", "11", "1", "6", "8"], "time": [3292, 3371, 4349, 4397, 4661, 5657]}}, "mouseover": {"edge": {"target": [], "time": []}, "state": {"target": ["9", "11", "1", "6", "8", "5"], "time": [3340, 3540, 4387, 4628, 4684, 5721]}}}, "revealed_states": [], "rewards": [2, 8, 48], "rt": [3473, 75, 356], "score": 62.25, "simulationMode": [null, null, null], "stateRewards": ["", -4, -8, -24, 24, 2, 8, 24, 48, 2, 4, 24, -48], "time_elapsed": 1033611, "trialIndex": 22, "trialTime": 12250, "trial_id": "mdp_122352383932", "trial_index": 33, "trial_type": "mouselab-mdp", "withholdReward": true}, "uniqueid": "w86005371:a72763507"}, {"current_trial": 34, "dateTime": 1664369476249, "trialdata": {"actionTimes": [8849, 10276, 10847], "actions": ["right", "right", "down"], "block": "test1", "costs": -1.5, "displayed_time": "11.38", "internal_node_id": "0.0-4.0-1.0-19.0", "num_clicks_accrued": [0, 0, 0, 0, 0, 0, 0, 0, 0, 0, 0, 0, 0], "path": ["0", "0", "5", "6", "8"], "queries": {"click": {"edge": {"target": [], "time": []}, "state": {"target": ["12", "4", "7", "3", "11", "8"], "time": [2551, 3511, 4417, 5065, 6359, 7145]}}, "mouseout": {"edge": {"target": [], "time": []}, "state": {"target": ["5", "5", "0", "9", "0", "9", "12", "4", "4", "2", "3", "7", "3", "2", "11", "5", "8", "8"], "time": [960, 1014, 1045, 1189, 2158, 2317, 3037, 3119, 3984, 4047, 4103, 4870, 5556, 5588, 6751, 6829, 8230, 13657]}}, "mouseover": {"edge": {"target": [], "time": []}, "state": {"target": ["9", "12", "4", "4", "2", "3", "7", "3", "2", "11", "5", "8"], "time": [2238, 2456, 3103, 3438, 4015, 4071, 4294, 4919, 5564, 6253, 6815, 6869]}}}, "revealed_states": [], "rewards": [4, 8, 48], "rt": [7118, 900, 52], "score": 63.5, "simulationMode": [null, null, null], "stateRewards": ["", 2, 4, -24, -24, 4, 8, -48, 48, 2, 4, -24, -48], "time_elapsed": 1047624, "trialIndex": 23, "trialTime": 13977, "trial_id": "mdp_565165082781", "trial_index": 34, "trial_type": "mouselab-mdp", "withholdReward": false}, "uniqueid": "w86005371:a72763507"}, {"current_trial": 35, "dateTime": 1664369492715, "trialdata": {"actionTimes": [8253, 8790, 9667], "actions": ["right", "right", "down"], "block": "test1", "costs": -1.25, "displayed_time": "10.68", "internal_node_id": "0.0-4.0-1.0-20.0", "num_clicks_accrued": [0, 0, 0, 0, 0, 0, 0, 0, 0, 0, 0, 0, 0], "path": ["0", "0", "5", "6", "8"], "queries": {"click": {"edge": {"target": [], "time": []}, "state": {"target": ["11", "3", "8", "6", "5"], "time": [2878, 3775, 4856, 6197, 7347]}}, "mouseout": {"edge": {"target": [], "time": []}, "state": {"target": ["5", "0", "11", "3", "8", "8", "6", "5"], "time": [1424, 1479, 3375, 4359, 4479, 5359, 7153, 16180]}}, "mouseover": {"edge": {"target": [], "time": []}, "state": {"target": ["11", "3", "8", "8", "6", "5"], "time": [2753, 3670, 4454, 4633, 6032, 7225]}}}, "revealed_states": [], "rewards": [4, -8, 48], "rt": [6581, 10, 354], "score": 47.75, "simulationMode": [null, null, null], "stateRewards": ["", 4, 8, -24, 48, 4, -8, -48, 48, -4, 8, -24, -48], "time_elapsed": 1064090, "trialIndex": 24, "trialTime": 16431, "trial_id": "mdp_376126356841", "trial_index": 35, "trial_type": "mouselab-mdp", "withholdReward": true}, "uniqueid": "w86005371:a72763507"}, {"current_trial": 36, "dateTime": 1664369506607, "trialdata": {"actionTimes": [11318, 11862, 12511], "actions": ["up", "up", "right"], "block": "test1", "costs": -2, "displayed_time": "13.02", "internal_node_id": "0.0-4.0-1.0-21.0", "num_clicks_accrued": [0, 0, 0, 0, 0, 0, 0, 0, 0, 0, 0, 0, 0], "path": ["0", "0", "1", "2", "3"], "queries": {"click": {"edge": {"target": [], "time": []}, "state": {"target": ["12", "3", "2", "1", "7", "8", "11", "4"], "time": [2510, 3415, 4204, 4965, 6727, 7367, 8039, 8557]}}, "mouseout": {"edge": {"target": [], "time": []}, "state": {"target": ["9", "9", "12", "9", "2", "3", "2", "1", "7", "7", "6", "8", "0", "9", "11", "4"], "time": [1187, 1988, 2964, 2989, 3037, 4026, 4787, 6196, 6388, 7053, 7134, 7647, 7710, 7774, 8387, 13463]}}, "mouseover": {"edge": {"target": [], "time": []}, "state": {"target": ["9", "12", "9", "2", "3", "2", "1", "7", "7", "6", "8", "0", "9", "11", "4"], "time": [1947, 2324, 2983, 3022, 3317, 4098, 4829, 6260, 6597, 7086, 7206, 7694, 7734, 7942, 8429]}}}, "revealed_states": [], "rewards": [2, -8, 48], "rt": [9710, 6, 140], "score": 45, "simulationMode": [null, null, null], "stateRewards": ["", 2, -8, 48, -24, 2, 8, 24, -24, 4, -4, -48, -48], "time_elapsed": 1077982, "trialIndex": 25, "trialTime": 13857, "trial_id": "mdp_130946197263", "trial_index": 36, "trial_type": "mouselab-mdp", "withholdReward": true}, "uniqueid": "w86005371:a72763507"}, {"current_trial": 37, "dateTime": 1664369524932, "trialdata": {"actionTimes": [14542, 15204, 15912], "actions": ["right", "right", "down"], "block": "test1", "costs": -3, "displayed_time": "16.42", "internal_node_id": "0.0-4.0-1.0-22.0", "num_clicks_accrued": [0, 0, 0, 0, 0, 0, 0, 0, 0, 0, 0, 0, 0], "path": ["0", "0", "5", "6", "8"], "queries": {"click": {"edge": {"target": [], "time": []}, "state": {"target": ["11", "8", "4", "3", "7", "12", "2", "1", "9", "10", "5", "6"], "time": [2957, 3773, 5110, 5824, 6592, 7340, 9800, 10328, 11039, 11481, 12190, 12735]}}, "mouseout": {"edge": {"target": [], "time": []}, "state": {"target": ["0", "9", "10", "11", "5", "8", "6", "7", "2", "4", "2", "3", "7", "9", "12", "9", "1", "2", "1", "9", "10", "9", "0", "5", "6", "5", "0", "5", "8", "8"], "time": [1936, 1968, 2000, 3405, 3485, 4164, 4197, 4237, 4604, 5565, 5630, 6232, 6975, 7088, 9317, 9373, 9550, 10102, 10703, 11312, 11697, 11744, 11807, 12573, 13102, 13141, 13974, 14007, 14117, 17677]}}, "mouseover": {"edge": {"target": [], "time": []}, "state": {"target": ["9", "10", "11", "5", "8", "6", "7", "2", "4", "2", "3", "7", "9", "12", "9", "1", "2", "1", "9", "10", "0", "5", "6", "0"], "time": [1952, 1982, 2804, 3467, 3532, 4182, 4213, 4565, 5055, 5590, 5689, 6367, 7072, 7136, 9353, 9541, 9598, 10184, 10783, 11432, 11760, 12072, 12613, 13174]}}}, "revealed_states": [], "rewards": [-4, -8, 24], "rt": [13054, 139, 193], "score": 14, "simulationMode": [null, null, null], "stateRewards": ["", -2, -4, -24, -48, -4, -8, -48, 24, -4, -8, -24, -48], "time_elapsed": 1096307, "trialIndex": 26, "trialTime": 18291, "trial_id": "mdp_475782454549", "trial_index": 37, "trial_type": "mouselab-mdp", "withholdReward": true}, "uniqueid": "w86005371:a72763507"}, {"current_trial": 38, "dateTime": 1664369535429, "trialdata": {"actionTimes": [7169, 8722, 9333], "actions": ["up", "up", "left"], "block": "test1", "costs": -1.25, "displayed_time": "9.86", "internal_node_id": "0.0-4.0-1.0-23.0", "num_clicks_accrued": [0, 0, 0, 0, 0, 0, 0, 0, 0, 0, 0, 0, 0], "path": ["0", "0", "1", "2", "4"], "queries": {"click": {"edge": {"target": [], "time": []}, "state": {"target": ["3", "12", "7", "8", "4"], "time": [1458, 2982, 3809, 4992, 5721]}}, "mouseout": {"edge": {"target": [], "time": []}, "state": {"target": ["0", "3", "11", "10", "12", "9", "7", "6", "8", "8", "5", "1", "4", "11", "4", "1"], "time": [725, 1993, 2120, 2241, 3446, 3477, 4256, 4278, 4361, 5287, 5319, 5374, 6119, 6593, 10039, 10121]}}, "mouseover": {"edge": {"target": [], "time": []}, "state": {"target": ["3", "11", "10", "12", "9", "7", "6", "8", "8", "5", "1", "4", "11"], "time": [1352, 2064, 2215, 2868, 3469, 3598, 4263, 4296, 4879, 5295, 5336, 5616, 6208]}}}, "revealed_states": [], "rewards": [2, -8, 48], "rt": [6352, 1031, 78], "score": 45.75, "simulationMode": [null, null, null], "stateRewards": ["", 2, -8, -24, 48, 4, -8, -24, -24, 2, 8, -24, 24], "time_elapsed": 1106804, "trialIndex": 27, "trialTime": 10460, "trial_id": "mdp_480787552818", "trial_index": 38, "trial_type": "mouselab-mdp", "withholdReward": true}, "uniqueid": "w86005371:a72763507"}, {"current_trial": 39, "dateTime": 1664369546173, "trialdata": {"actionTimes": [4003, 4570, 5123], "actions": ["right", "right", "up"], "block": "test1", "costs": -0.5, "displayed_time": "10.23", "internal_node_id": "0.0-4.0-1.0-24.0", "num_clicks_accrued": [0, 0, 0, 0, 0, 0, 0, 0, 0, 0, 0, 0, 0], "path": ["0", "0", "5", "6", "7"], "queries": {"click": {"edge": {"target": [], "time": []}, "state": {"target": ["11", "7"], "time": [1803, 2753]}}, "mouseout": {"edge": {"target": [], "time": []}, "state": {"target": ["0", "11", "1", "7", "6"], "time": [1551, 2280, 2336, 3087, 3385]}}, "mouseover": {"edge": {"target": [], "time": []}, "state": {"target": ["11", "1", "7", "6"], "time": [1664, 2313, 2520, 3361]}}}, "revealed_states": [], "rewards": [4, -8, 48], "rt": [2783, 50, 35], "score": 48.5, "simulationMode": [null, null, null], "stateRewards": ["", -2, -8, 24, -24, 4, -8, 48, 48, -4, -8, -24, -48], "time_elapsed": 1117548, "trialIndex": 28, "trialTime": 10709, "trial_id": "mdp_286767261523", "trial_index": 39, "trial_type": "mouselab-mdp", "withholdReward": true}, "uniqueid": "w86005371:a72763507"}, {"current_trial": 40, "dateTime": 1664369557386, "trialdata": {"actionTimes": [4842, 6263, 6936], "actions": ["left", "left", "down"], "block": "test1", "costs": -0.5, "displayed_time": "10.19", "internal_node_id": "0.0-4.0-1.0-25.0", "num_clicks_accrued": [0, 0, 0, 0, 0, 0, 0, 0, 0, 0, 0, 0, 0], "path": ["0", "0", "9", "10", "12"], "queries": {"click": {"edge": {"target": [], "time": []}, "state": {"target": ["11", "12"], "time": [2220, 3677]}}, "mouseout": {"edge": {"target": [], "time": []}, "state": {"target": ["0", "1", "11", "1", "6", "8", "12"], "time": [1005, 1850, 2691, 2730, 2772, 2925, 7986]}}, "mouseover": {"edge": {"target": [], "time": []}, "state": {"target": ["1", "11", "1", "6", "8", "12"], "time": [1731, 2097, 2724, 2755, 2916, 3596]}}}, "revealed_states": [], "rewards": [4, -4, 48], "rt": [3660, 886, 137], "score": 52.5, "simulationMode": [null, null, null], "stateRewards": ["", -4, 8, -24, 24, -2, -8, 24, -24, 4, -4, -48, 48], "time_elapsed": 1128760, "trialIndex": 29, "trialTime": 11176, "trial_id": "mdp_297684722007", "trial_index": 40, "trial_type": "mouselab-mdp", "withholdReward": true}, "uniqueid": "w86005371:a72763507"}, {"current_trial": 41, "dateTime": 1664369568403, "trialdata": {"actionTimes": [4048, 4600, 5663], "actions": ["up", "up", "left"], "block": "test1", "costs": -0.5, "displayed_time": "10.19", "internal_node_id": "0.0-4.0-1.0-26.0", "num_clicks_accrued": [0, 0, 0, 0, 0, 0, 0, 0, 0, 0, 0, 0, 0], "path": ["0", "0", "1", "2", "4"], "queries": {"click": {"edge": {"target": [], "time": []}, "state": {"target": ["7", "4"], "time": [2091, 2987]}}, "mouseout": {"edge": {"target": [], "time": []}, "state": {"target": ["0", "0", "7", "1", "4", "1", "5"], "time": [902, 1689, 2489, 2536, 6535, 6583, 6754]}}, "mouseover": {"edge": {"target": [], "time": []}, "state": {"target": ["7", "1", "4"], "time": [1800, 2520, 2840]}}}, "revealed_states": [], "rewards": [-4, -4, 48], "rt": [2867, 25, 538], "score": 44.5, "simulationMode": [null, null, null], "stateRewards": ["", -4, -4, -24, 48, 2, 4, -24, -48, -2, 4, 24, 24], "time_elapsed": 1139778, "trialIndex": 30, "trialTime": 10983, "trial_id": "mdp_360934723192", "trial_index": 41, "trial_type": "mouselab-mdp", "withholdReward": true}, "uniqueid": "w86005371:a72763507"}, {"current_trial": 42, "dateTime": 1664369578602, "trialdata": {"actionTimes": [3492, 4197, 5514], "actions": ["left", "left", "down"], "block": "test1", "costs": -0.25, "displayed_time": "9.29", "internal_node_id": "0.0-4.0-1.0-27.0", "num_clicks_accrued": [0, 0, 0, 0, 0, 0, 0, 0, 0, 0, 0, 0, 0], "path": ["0", "0", "9", "10", "12"], "queries": {"click": {"edge": {"target": [], "time": []}, "state": {"target": ["12"], "time": [2432]}}, "mouseout": {"edge": {"target": [], "time": []}, "state": {"target": ["0", "12"], "time": [1654, 9859]}}, "mouseover": {"edge": {"target": [], "time": []}, "state": {"target": ["12"], "time": [2342]}}}, "revealed_states": [], "rewards": [-4, -4, 48], "rt": [2213, 186, 800], "score": 44.75, "simulationMode": [null, null, null], "stateRewards": ["", 2, 4, 24, 48, -2, 8, 24, -24, -4, -4, 48, 48], "time_elapsed": 1149977, "trialIndex": 31, "trialTime": 10161, "trial_id": "mdp_753439303214", "trial_index": 42, "trial_type": "mouselab-mdp", "withholdReward": true}, "uniqueid": "w86005371:a72763507"}, {"current_trial": 43, "dateTime": 1664369589067, "trialdata": {"actionTimes": [6477, 7439, 9087], "actions": ["up", "up", "left"], "block": "test1", "costs": -1, "displayed_time": "9.62", "internal_node_id": "0.0-4.0-1.0-28.0", "num_clicks_accrued": [0, 0, 0, 0, 0, 0, 0, 0, 0, 0, 0, 0, 0], "path": ["0", "0", "1", "2", "4"], "queries": {"click": {"edge": {"target": [], "time": []}, "state": {"target": ["7", "11", "3", "4"], "time": [1938, 3367, 4242, 5355]}}, "mouseout": {"edge": {"target": [], "time": []}, "state": {"target": ["0", "7", "10", "12", "10", "11", "4", "2", "3", "2", "4"], "time": [1622, 2459, 2805, 3099, 3124, 3817, 3877, 4068, 4629, 4702, 5870]}}, "mouseover": {"edge": {"target": [], "time": []}, "state": {"target": ["7", "10", "12", "10", "11", "4", "2", "3", "2", "4"], "time": [1912, 2763, 2827, 3116, 3141, 3853, 3893, 4141, 4654, 5254]}}}, "revealed_states": [], "rewards": [-2, -8, 48], "rt": [5392, 433, 1127], "score": 42, "simulationMode": [null, null, null], "stateRewards": ["", -2, -8, -24, 48, -2, -8, -48, -48, 2, -8, -48, 24], "time_elapsed": 1160441, "trialIndex": 32, "trialTime": 10427, "trial_id": "mdp_288324580942", "trial_index": 43, "trial_type": "mouselab-mdp", "withholdReward": false}, "uniqueid": "w86005371:a72763507"}, {"current_trial": 44, "dateTime": 1664369599730, "trialdata": {"actionTimes": [4671, 5277, 6268], "actions": ["right", "right", "down"], "block": "test1", "costs": -0.5, "displayed_time": "9.24", "internal_node_id": "0.0-4.0-1.0-29.0", "num_clicks_accrued": [0, 0, 0, 0, 0, 0, 0, 0, 0, 0, 0, 0, 0], "path": ["0", "0", "5", "6", "8"], "queries": {"click": {"edge": {"target": [], "time": []}, "state": {"target": ["12", "8"], "time": [2880, 3801]}}, "mouseout": {"edge": {"target": [], "time": []}, "state": {"target": ["6", "6", "3", "3", "0", "12", "0", "5", "6"], "time": [1558, 1609, 1765, 1884, 2629, 3311, 3358, 3383, 3438]}}, "mouseover": {"edge": {"target": [], "time": []}, "state": {"target": ["12", "0", "5", "6", "8"], "time": [2797, 3350, 3369, 3391, 3735]}}}, "revealed_states": [], "rewards": [2, -4, 48], "rt": [2439, 82, 469], "score": 50.5, "simulationMode": [null, null, null], "stateRewards": ["", -2, -8, -48, 24, 2, -4, -48, 48, 2, 4, 24, -24], "time_elapsed": 1171105, "trialIndex": 33, "trialTime": 10627, "trial_id": "mdp_849341543762", "trial_index": 44, "trial_type": "mouselab-mdp", "withholdReward": true}, "uniqueid": "w86005371:a72763507"}, {"current_trial": 45, "dateTime": 1664369608859, "trialdata": {"internal_node_id": "0.0-4.0-2.0", "response": " ", "rt": 9125, "stimulus": "<h1> End of block! </h1>\n\nYou have reached the end of the block 1/4. If you need a short break, feel free to take one now before moving on.\n\n<br><br>\nIn the next block, you will complete another 30 rounds of this game.\n\n<br><br>\n<div style='text-align: center;'>Press <code>space</code> to begin.</div>\n<br><br>\n<div style='text-align: center;'>(If the experiment doesn't continue, try clicking on the text and then pressing <code>space</code>.)</div>", "time_elapsed": 1180234, "trial_id": "mdp_ready_2", "trial_index": 45, "trial_type": "html-keyboard-response"}, "uniqueid": "w86005371:a72763507"}, {"current_trial": 46, "dateTime": 1664369620408, "trialdata": {"actionTimes": [7249, 8374, 9661], "actions": ["right", "right", "up"], "block": "test2", "costs": -1, "displayed_time": "10.85", "internal_node_id": "0.0-4.0-3.0-0.0", "num_clicks_accrued": [0, 0, 0, 0, 0, 0, 0, 0, 0, 0, 0, 0, 0], "path": ["0", "0", "5", "6", "7"], "queries": {"click": {"edge": {"target": [], "time": []}, "state": {"target": ["11", "7", "5", "6"], "time": [2632, 3689, 5383, 5800]}}, "mouseout": {"edge": {"target": [], "time": []}, "state": {"target": ["8", "8", "0", "1", "9", "0", "11", "2", "3", "7", "6", "8", "5", "6", "8", "8", "8"], "time": [1000, 1077, 1164, 1260, 1637, 2207, 3190, 3295, 3446, 4199, 4255, 5092, 5581, 6189, 6376, 6798, 10612]}}, "mouseover": {"edge": {"target": [], "time": []}, "state": {"target": ["11", "2", "3", "7", "6", "8", "5", "6", "8", "8"], "time": [2542, 3278, 3348, 3542, 4225, 4295, 5188, 5645, 6213, 6630]}}}, "revealed_states": [], "rewards": [4, -4, 48], "rt": [5410, 603, 752], "score": 52, "simulationMode": [null, null, null], "stateRewards": ["", 4, -8, 48, 24, 4, -4, 48, 48, -4, 8, -48, 24], "time_elapsed": 1191783, "trialIndex": 34, "trialTime": 11515, "trial_id": "mdp_303828806348", "trial_index": 46, "trial_type": "mouselab-mdp", "withholdReward": true}, "uniqueid": "w86005371:a72763507"}, {"current_trial": 47, "dateTime": 1664369630100, "trialdata": {"actionTimes": [6121, 6745, 7337], "actions": ["up", "up", "right"], "block": "test2", "costs": -1, "displayed_time": "9.01", "internal_node_id": "0.0-4.0-3.0-1.0", "num_clicks_accrued": [0, 0, 0, 0, 0, 0, 0, 0, 0, 0, 0, 0, 0], "path": ["0", "0", "1", "2", "3"], "queries": {"click": {"edge": {"target": [], "time": []}, "state": {"target": ["4", "12", "7", "3"], "time": [2083, 3569, 4493, 5176]}}, "mouseout": {"edge": {"target": [], "time": []}, "state": {"target": ["0", "4", "2", "1", "0", "12", "0", "7"], "time": [1754, 2633, 2673, 2715, 2811, 3994, 4044, 5003]}}, "mouseover": {"edge": {"target": [], "time": []}, "state": {"target": ["4", "2", "1", "0", "12", "0", "7", "3"], "time": [1994, 2657, 2706, 2793, 3459, 4035, 4443, 5116]}}}, "revealed_states": [], "rewards": [2, 4, 48], "rt": [5119, 95, 67], "score": 58, "simulationMode": [null, null, null], "stateRewards": ["", 2, 4, 48, -48, 2, 4, 24, -24, 2, -4, -24, -48], "time_elapsed": 1201474, "trialIndex": 35, "trialTime": 9652, "trial_id": "mdp_706591889062", "trial_index": 47, "trial_type": "mouselab-mdp", "withholdReward": true}, "uniqueid": "w86005371:a72763507"}, {"current_trial": 48, "dateTime": 1664369642550, "trialdata": {"actionTimes": [5992, 6805, 7787], "actions": ["left", "left", "down"], "block": "test2", "costs": -0.75, "displayed_time": "11.19", "internal_node_id": "0.0-4.0-3.0-2.0", "num_clicks_accrued": [0, 0, 0, 0, 0, 0, 0, 0, 0, 0, 0, 0, 0], "path": ["0", "0", "9", "10", "12"], "queries": {"click": {"edge": {"target": [], "time": []}, "state": {"target": ["8", "4", "12"], "time": [2473, 3344, 4905]}}, "mouseout": {"edge": {"target": [], "time": []}, "state": {"target": ["3", "3", "1", "0", "8", "8", "8", "5", "4", "1", "9", "12", "12", "9"], "time": [577, 630, 661, 1751, 2190, 2239, 2863, 2887, 3892, 3996, 4037, 4148, 5438, 5502]}}, "mouseover": {"edge": {"target": [], "time": []}, "state": {"target": ["8", "8", "8", "5", "4", "1", "9", "12", "12", "9", "0"], "time": [1982, 2214, 2327, 2881, 3216, 3940, 4021, 4060, 4735, 5486, 5518]}}}, "revealed_states": [], "rewards": [-4, 8, 48], "rt": [4816, 294, 473], "score": 56.25, "simulationMode": [null, null, null], "stateRewards": ["", -2, 8, 24, -48, -4, -8, -24, -48, -4, 8, -24, 48], "time_elapsed": 1213925, "trialIndex": 36, "trialTime": 12412, "trial_id": "mdp_464339499860", "trial_index": 48, "trial_type": "mouselab-mdp", "withholdReward": true}, "uniqueid": "w86005371:a72763507"}, {"current_trial": 49, "dateTime": 1664369660114, "trialdata": {"actionTimes": [13199, 13803, 16132], "actions": ["right", "right", "down"], "block": "test2", "costs": -1, "displayed_time": "16.66", "internal_node_id": "0.0-4.0-3.0-3.0", "num_clicks_accrued": [0, 0, 0, 0, 0, 0, 0, 0, 0, 0, 0, 0, 0], "path": ["0", "0", "5", "6", "8"], "queries": {"click": {"edge": {"target": [], "time": []}, "state": {"target": ["3", "12", "7", "8"], "time": [9129, 10710, 11560, 12352]}}, "mouseout": {"edge": {"target": [], "time": []}, "state": {"target": ["0", "0", "6", "5", "0", "3", "2", "11", "12", "5", "6", "7", "6", "8", "5"], "time": [1489, 1494, 1747, 1852, 8574, 10043, 10059, 10356, 11125, 11205, 11333, 12031, 12086, 12735, 17315]}}, "mouseover": {"edge": {"target": [], "time": []}, "state": {"target": ["3", "2", "11", "12", "5", "6", "7", "6", "8", "5"], "time": [8702, 10052, 10204, 10485, 11188, 11222, 11485, 12046, 12182, 12806]}}}, "revealed_states": [], "rewards": [2, 4, 48], "rt": [10744, 86, 1812], "score": 58, "simulationMode": [null, null, null], "stateRewards": ["", 2, 8, -24, -48, 2, 4, -24, 48, 2, -8, 48, -24], "time_elapsed": 1231488, "trialIndex": 37, "trialTime": 17524, "trial_id": "mdp_791659307216", "trial_index": 49, "trial_type": "mouselab-mdp", "withholdReward": true}, "uniqueid": "w86005371:a72763507"}, {"current_trial": 50, "dateTime": 1664369672575, "trialdata": {"actionTimes": [5422, 6077, 7854], "actions": ["left", "left", "up"], "block": "test2", "costs": -0.75, "displayed_time": "10.54", "internal_node_id": "0.0-4.0-3.0-4.0", "num_clicks_accrued": [0, 0, 0, 0, 0, 0, 0, 0, 0, 0, 0, 0, 0], "path": ["0", "0", "9", "10", "11"], "queries": {"click": {"edge": {"target": [], "time": []}, "state": {"target": ["7", "4", "11"], "time": [2871, 3864, 4572]}}, "mouseout": {"edge": {"target": [], "time": []}, "state": {"target": ["0", "9", "11", "7", "1", "4", "11", "9"], "time": [1953, 2017, 2473, 3522, 3593, 4357, 8540, 8621]}}, "mouseover": {"edge": {"target": [], "time": []}, "state": {"target": ["9", "11", "7", "1", "4", "11"], "time": [1993, 2159, 2769, 3586, 3682, 4398]}}}, "revealed_states": [], "rewards": [4, -4, 48], "rt": [3886, 138, 1261], "score": 52.25, "simulationMode": [null, null, null], "stateRewards": ["", 2, -8, 48, -24, 2, -4, 24, 48, 4, -4, 48, -24], "time_elapsed": 1243950, "trialIndex": 38, "trialTime": 12425, "trial_id": "mdp_656500928756", "trial_index": 50, "trial_type": "mouselab-mdp", "withholdReward": true}, "uniqueid": "w86005371:a72763507"}, {"current_trial": 51, "dateTime": 1664369681856, "trialdata": {"actionTimes": [3091, 4341, 4965], "actions": ["right", "right", "down"], "block": "test2", "costs": -0.5, "displayed_time": "8.83", "internal_node_id": "0.0-4.0-3.0-5.0", "num_clicks_accrued": [0, 0, 0, 0, 0, 0, 0, 0, 0, 0, 0, 0, 0], "path": ["0", "0", "5", "6", "8"], "queries": {"click": {"edge": {"target": [], "time": []}, "state": {"target": ["11", "8"], "time": [1413, 2216]}}, "mouseout": {"edge": {"target": [], "time": []}, "state": {"target": ["0", "11", "1", "5", "8", "8"], "time": [1196, 1843, 1892, 1923, 2732, 6051]}}, "mouseover": {"edge": {"target": [], "time": []}, "state": {"target": ["11", "1", "5", "8"], "time": [1290, 1883, 1909, 1940]}}}, "revealed_states": [], "rewards": [4, 8, 48], "rt": [2273, 736, 90], "score": 64.5, "simulationMode": [null, null, null], "stateRewards": ["", 2, 4, -24, -24, 4, 8, -48, 48, 2, 4, -24, -48], "time_elapsed": 1253231, "trialIndex": 39, "trialTime": 9247, "trial_id": "mdp_565165082781", "trial_index": 51, "trial_type": "mouselab-mdp", "withholdReward": true}, "uniqueid": "w86005371:a72763507"}, {"current_trial": 52, "dateTime": 1664369693662, "trialdata": {"actionTimes": [5520, 6171, 6939], "actions": ["up", "up", "left"], "block": "test2", "costs": -1, "displayed_time": "10.02", "internal_node_id": "0.0-4.0-3.0-6.0", "num_clicks_accrued": [0, 0, 0, 0, 0, 0, 0, 0, 0, 0, 0, 0, 0], "path": ["0", "0", "1", "2", "4"], "queries": {"click": {"edge": {"target": [], "time": []}, "state": {"target": ["3", "12", "7", "4"], "time": [1779, 2804, 3822, 4621]}}, "mouseout": {"edge": {"target": [], "time": []}, "state": {"target": ["0", "3", "1", "9", "12", "7", "2", "4", "1", "0"], "time": [1392, 2362, 2393, 2426, 3369, 4252, 4387, 11194, 11338, 11371]}}, "mouseover": {"edge": {"target": [], "time": []}, "state": {"target": ["3", "1", "9", "12", "7", "2", "4"], "time": [1730, 2378, 2418, 2732, 3669, 4306, 4563]}}}, "revealed_states": [], "rewards": [2, -8, 48], "rt": [4503, 125, 258], "score": 46, "simulationMode": [null, null, null], "stateRewards": ["", 2, -8, -24, 48, 4, -8, -24, -24, 2, 8, -24, 24], "time_elapsed": 1265037, "trialIndex": 40, "trialTime": 11770, "trial_id": "mdp_480787552818", "trial_index": 52, "trial_type": "mouselab-mdp", "withholdReward": false}, "uniqueid": "w86005371:a72763507"}, {"current_trial": 53, "dateTime": 1664369716935, "trialdata": {"actionTimes": [16595, 17170, 18157], "actions": ["right", "right", "up"], "block": "test2", "costs": -2.5, "displayed_time": "18.68", "internal_node_id": "0.0-4.0-3.0-7.0", "num_clicks_accrued": [0, 0, 0, 0, 0, 0, 0, 0, 0, 0, 0, 0, 0], "path": ["0", "0", "5", "6", "7"], "queries": {"click": {"edge": {"target": [], "time": []}, "state": {"target": ["11", "7", "4", "12", "3", "8", "10", "9", "5", "6"], "time": [2011, 3164, 4211, 5149, 6006, 6755, 12947, 13444, 14161, 14601]}}, "mouseout": {"edge": {"target": [], "time": []}, "state": {"target": ["0", "9", "11", "1", "5", "7", "2", "4", "10", "12", "12", "9", "1", "3", "6", "8", "0", "9", "10", "9", "5", "6", "11", "4", "2", "1"], "time": [1641, 1763, 2497, 2549, 2594, 3746, 3818, 4668, 4723, 4772, 5615, 5656, 5696, 6378, 6456, 10135, 10184, 10217, 13210, 13831, 14383, 15402, 21217, 21561, 21737, 21923]}}, "mouseover": {"edge": {"target": [], "time": []}, "state": {"target": ["9", "11", "1", "5", "7", "2", "4", "10", "12", "12", "9", "1", "3", "6", "8", "0", "9", "10", "9", "5", "6"], "time": [1688, 1864, 2539, 2572, 3129, 3795, 4130, 4709, 4732, 5067, 5640, 5672, 5921, 6442, 6496, 10169, 10202, 10552, 13307, 13895, 14472]}}}, "revealed_states": [], "rewards": [-2, -8, 24], "rt": [15356, 42, 461], "score": 16.5, "simulationMode": [null, null, null], "stateRewards": ["", -4, -8, -24, -48, -2, -8, 24, -48, -4, -8, 24, -48], "time_elapsed": 1288310, "trialIndex": 41, "trialTime": 23235, "trial_id": "mdp_621812384092", "trial_index": 53, "trial_type": "mouselab-mdp", "withholdReward": true}, "uniqueid": "w86005371:a72763507"}, {"current_trial": 54, "dateTime": 1664369727678, "trialdata": {"actionTimes": [5735, 7128, 7710], "actions": ["up", "up", "right"], "block": "test2", "costs": -1, "displayed_time": "9.80", "internal_node_id": "0.0-4.0-3.0-8.0", "num_clicks_accrued": [0, 0, 0, 0, 0, 0, 0, 0, 0, 0, 0, 0, 0], "path": ["0", "0", "1", "2", "3"], "queries": {"click": {"edge": {"target": [], "time": []}, "state": {"target": ["11", "3", "1", "2"], "time": [1947, 3072, 4274, 5056]}}, "mouseout": {"edge": {"target": [], "time": []}, "state": {"target": ["0", "11", "11", "2", "3", "1", "2", "1", "0"], "time": [1104, 1290, 2305, 2377, 3549, 4472, 9835, 9868, 9893]}}, "mouseover": {"edge": {"target": [], "time": []}, "state": {"target": ["11", "11", "2", "3", "1", "2"], "time": [1272, 1817, 2353, 2954, 3714, 4961]}}}, "revealed_states": [], "rewards": [4, 4, 48], "rt": [4945, 875, 54], "score": 60, "simulationMode": [null, null, null], "stateRewards": ["", 4, 4, 48, -24, 2, -4, 48, 24, -4, -4, -48, 24], "time_elapsed": 1299053, "trialIndex": 42, "trialTime": 10706, "trial_id": "mdp_496003763005", "trial_index": 54, "trial_type": "mouselab-mdp", "withholdReward": false}, "uniqueid": "w86005371:a72763507"}, {"current_trial": 55, "dateTime": 1664369745750, "trialdata": {"actionTimes": [13636, 14689, 15277], "actions": ["left", "left", "down"], "block": "test2", "costs": -3, "displayed_time": "15.80", "internal_node_id": "0.0-4.0-3.0-9.0", "num_clicks_accrued": [0, 0, 0, 0, 0, 0, 0, 0, 0, 0, 0, 0, 0], "path": ["0", "0", "9", "10", "12"], "queries": {"click": {"edge": {"target": [], "time": []}, "state": {"target": ["11", "12", "4", "7", "3", "8", "2", "1", "10", "9", "5", "6"], "time": [1619, 2384, 3576, 4249, 4835, 5606, 7578, 8226, 9130, 9631, 10577, 11264]}}, "mouseout": {"edge": {"target": [], "time": []}, "state": {"target": ["0", "11", "10", "12", "4", "4", "2", "3", "7", "3", "6", "8", "5", "1", "2", "1", "9", "10", "9", "0", "5", "6"], "time": [568, 2045, 2093, 2758, 2953, 3913, 3968, 3991, 4664, 5164, 5397, 6182, 6270, 6703, 7904, 8753, 8832, 9369, 10077, 10150, 10973, 11662]}}, "mouseover": {"edge": {"target": [], "time": []}, "state": {"target": ["11", "10", "12", "4", "4", "2", "3", "7", "3", "6", "8", "5", "1", "2", "1", "9", "10", "9", "0", "5", "6"], "time": [1542, 2070, 2109, 2855, 3463, 3951, 3984, 4042, 4720, 5263, 5476, 6221, 6534, 7470, 8088, 8808, 9025, 9416, 10103, 10220, 10998]}}}, "revealed_states": [], "rewards": [-2, 8, 24], "rt": [12749, 517, 69], "score": 32, "simulationMode": [null, null, null], "stateRewards": ["", -4, 8, 24, -24, 4, -8, -24, -24, -2, 8, -48, 24], "time_elapsed": 1317125, "trialIndex": 43, "trialTime": 18038, "trial_id": "mdp_240302100183", "trial_index": 55, "trial_type": "mouselab-mdp", "withholdReward": false}, "uniqueid": "w86005371:a72763507"}, {"current_trial": 56, "dateTime": 1664369759069, "trialdata": {"actionTimes": [8953, 9630, 10876], "actions": ["left", "left", "down"], "block": "test2", "costs": -1.5, "displayed_time": "11.40", "internal_node_id": "0.0-4.0-3.0-10.0", "num_clicks_accrued": [0, 0, 0, 0, 0, 0, 0, 0, 0, 0, 0, 0, 0], "path": ["0", "0", "9", "10", "12"], "queries": {"click": {"edge": {"target": [], "time": []}, "state": {"target": ["7", "12", "4", "11", "3", "8"], "time": [2657, 3610, 4632, 5832, 6553, 7801]}}, "mouseout": {"edge": {"target": [], "time": []}, "state": {"target": ["0", "0", "5", "6", "7", "9", "12", "4", "11", "11", "3", "6", "8", "8"], "time": [860, 2207, 2255, 2399, 3103, 3191, 4229, 5093, 5189, 6215, 6904, 6983, 7239, 8189]}}, "mouseover": {"edge": {"target": [], "time": []}, "state": {"target": ["5", "6", "7", "9", "12", "4", "11", "11", "3", "6", "8", "8"], "time": [2222, 2286, 2599, 3183, 3504, 4503, 5126, 5672, 6399, 6969, 7007, 7672]}}}, "revealed_states": [], "rewards": [-4, 8, 24], "rt": [7101, 149, 725], "score": 31.5, "simulationMode": [null, null, null], "stateRewards": ["", 4, 4, -48, -48, 4, 4, -24, -24, -4, 8, -48, 24], "time_elapsed": 1330444, "trialIndex": 44, "trialTime": 13283, "trial_id": "mdp_669785455541", "trial_index": 56, "trial_type": "mouselab-mdp", "withholdReward": false}, "uniqueid": "w86005371:a72763507"}, {"current_trial": 57, "dateTime": 1664369769660, "trialdata": {"actionTimes": [4400, 5653, 6720], "actions": ["right", "right", "up"], "block": "test2", "costs": -0.75, "displayed_time": "9.98", "internal_node_id": "0.0-4.0-3.0-11.0", "num_clicks_accrued": [0, 0, 0, 0, 0, 0, 0, 0, 0, 0, 0, 0, 0], "path": ["0", "0", "5", "6", "7"], "queries": {"click": {"edge": {"target": [], "time": []}, "state": {"target": ["4", "12", "7"], "time": [1645, 2576, 3413]}}, "mouseout": {"edge": {"target": [], "time": []}, "state": {"target": ["0", "4", "11", "10", "12", "9", "7", "6", "8"], "time": [804, 2182, 2301, 2365, 2970, 2994, 4010, 7588, 7609]}}, "mouseover": {"edge": {"target": [], "time": []}, "state": {"target": ["4", "11", "10", "12", "9", "7", "6"], "time": [1444, 2238, 2327, 2397, 2988, 3066, 4052]}}}, "revealed_states": [], "rewards": [4, 4, 48], "rt": [3430, 735, 545], "score": 60.25, "simulationMode": [null, null, null], "stateRewards": ["", 2, -4, -48, 24, 4, 4, 48, -48, -2, -4, -24, -48], "time_elapsed": 1341035, "trialIndex": 45, "trialTime": 10555, "trial_id": "mdp_858916930936", "trial_index": 57, "trial_type": "mouselab-mdp", "withholdReward": true}, "uniqueid": "w86005371:a72763507"}, {"current_trial": 58, "dateTime": 1664369781002, "trialdata": {"actionTimes": [8852, 9619, 10215], "actions": ["left", "left", "up"], "block": "test2", "costs": -1.5, "displayed_time": "10.74", "internal_node_id": "0.0-4.0-3.0-12.0", "num_clicks_accrued": [0, 0, 0, 0, 0, 0, 0, 0, 0, 0, 0, 0, 0], "path": ["0", "0", "9", "10", "11"], "queries": {"click": {"edge": {"target": [], "time": []}, "state": {"target": ["11", "3", "4", "7", "8", "12"], "time": [1598, 2396, 3145, 3924, 4610, 5443]}}, "mouseout": {"edge": {"target": [], "time": []}, "state": {"target": ["0", "11", "4", "2", "3", "2", "4", "2", "7", "6", "8", "12", "12", "10", "1", "7"], "time": [784, 2042, 2081, 2113, 2875, 2930, 3549, 3594, 4313, 4358, 4961, 5154, 6779, 7179, 7235, 8251]}}, "mouseover": {"edge": {"target": [], "time": []}, "state": {"target": ["11", "4", "2", "3", "2", "4", "2", "7", "6", "8", "12", "12", "10", "1"], "time": [1473, 2073, 2090, 2306, 2890, 3042, 3572, 3667, 4335, 4391, 5131, 5265, 6802, 7218]}}}, "revealed_states": [], "rewards": [2, 4, 24], "rt": [7898, 240, 83], "score": 33.5, "simulationMode": [null, null, null], "stateRewards": ["", -4, 8, 24, -24, 4, 8, -24, -48, 2, 4, 24, -24], "time_elapsed": 1352377, "trialIndex": 46, "trialTime": 11303, "trial_id": "mdp_782187007008", "trial_index": 58, "trial_type": "mouselab-mdp", "withholdReward": false}, "uniqueid": "w86005371:a72763507"}, {"current_trial": 59, "dateTime": 1664369792057, "trialdata": {"actionTimes": [5009, 5651, 6306], "actions": ["up", "up", "right"], "block": "test2", "costs": -0.5, "displayed_time": "10.67", "internal_node_id": "0.0-4.0-3.0-13.0", "num_clicks_accrued": [0, 0, 0, 0, 0, 0, 0, 0, 0, 0, 0, 0, 0], "path": ["0", "0", "1", "2", "3"], "queries": {"click": {"edge": {"target": [], "time": []}, "state": {"target": ["11", "3"], "time": [2357, 3183]}}, "mouseout": {"edge": {"target": [], "time": []}, "state": {"target": ["0", "9", "10", "11", "2", "3", "7", "3", "1", "9"], "time": [1998, 2037, 2091, 2797, 2853, 3607, 4479, 7386, 7489, 7969]}}, "mouseover": {"edge": {"target": [], "time": []}, "state": {"target": ["9", "10", "11", "2", "3", "7"], "time": [2012, 2052, 2188, 2829, 2877, 3693]}}}, "revealed_states": [], "rewards": [4, -4, 48], "rt": [3349, 115, 133], "score": 52.5, "simulationMode": [null, null, null], "stateRewards": ["", 4, -4, 48, 24, 2, -8, 24, -48, -2, -4, -48, -48], "time_elapsed": 1363432, "trialIndex": 47, "trialTime": 11016, "trial_id": "mdp_655302318695", "trial_index": 59, "trial_type": "mouselab-mdp", "withholdReward": true}, "uniqueid": "w86005371:a72763507"}, {"current_trial": 60, "dateTime": 1664369810700, "trialdata": {"actionTimes": [5635, 6262, 7338], "actions": ["left", "left", "up"], "block": "test2", "costs": -0.75, "displayed_time": "9.82", "internal_node_id": "0.0-4.0-3.0-14.0", "num_clicks_accrued": [0, 0, 0, 0, 0, 0, 0, 0, 0, 0, 0, 0, 0], "path": ["0", "0", "9", "10", "11"], "queries": {"click": {"edge": {"target": [], "time": []}, "state": {"target": ["4", "8", "11"], "time": [1880, 2783, 4597]}}, "mouseout": {"edge": {"target": [], "time": []}, "state": {"target": ["9", "1", "2", "4", "8", "10", "10"], "time": [511, 1305, 1465, 2342, 3343, 3431, 3913]}}, "mouseover": {"edge": {"target": [], "time": []}, "state": {"target": ["1", "2", "4", "8", "10", "10", "11"], "time": [1264, 1369, 1739, 2469, 3407, 3887, 4201]}}}, "revealed_states": [], "rewards": [-4, 4, 48], "rt": [4824, 109, 565], "score": 52.25, "simulationMode": [null, null, null], "stateRewards": ["", 2, -4, 48, -48, -4, -8, -48, 24, -4, 4, 48, 48], "time_elapsed": 1382075, "trialIndex": 48, "trialTime": 18604, "trial_id": "mdp_544803968425", "trial_index": 60, "trial_type": "mouselab-mdp", "withholdReward": true}, "uniqueid": "w86005371:a72763507"}, {"current_trial": 61, "dateTime": 1664369822698, "trialdata": {"actionTimes": [8296, 8842, 9372], "actions": ["up", "up", "left"], "block": "test2", "costs": -1, "displayed_time": "11.20", "internal_node_id": "0.0-4.0-3.0-15.0", "num_clicks_accrued": [0, 0, 0, 0, 0, 0, 0, 0, 0, 0, 0, 0, 0], "path": ["0", "0", "1", "2", "4"], "queries": {"click": {"edge": {"target": [], "time": []}, "state": {"target": ["7", "12", "11", "4"], "time": [4406, 5398, 6288, 7080]}}, "mouseout": {"edge": {"target": [], "time": []}, "state": {"target": ["11", "11", "11", "12", "0", "1", "3", "7", "9", "12", "10", "11", "4", "2", "1"], "time": [1593, 1648, 1681, 1893, 2608, 4004, 4165, 4925, 5197, 5879, 5982, 6822, 7639, 7688, 11406]}}, "mouseover": {"edge": {"target": [], "time": []}, "state": {"target": ["1", "3", "7", "9", "12", "10", "11", "4", "2", "1"], "time": [3947, 4116, 4204, 5030, 5262, 5910, 6166, 6913, 7671, 7727]}}}, "revealed_states": [], "rewards": [-2, -4, 48], "rt": [5110, 20, 17], "score": 46, "simulationMode": [null, null, null], "stateRewards": ["", -2, -4, 48, 48, 2, 4, -48, 24, 4, -8, 24, -24], "time_elapsed": 1394072, "trialIndex": 49, "trialTime": 11960, "trial_id": "mdp_628613319495", "trial_index": 61, "trial_type": "mouselab-mdp", "withholdReward": false}, "uniqueid": "w86005371:a72763507"}, {"current_trial": 62, "dateTime": 1664369832191, "trialdata": {"actionTimes": [3125, 3712, 4333], "actions": ["right", "right", "down"], "block": "test2", "costs": -0.25, "displayed_time": "9.03", "internal_node_id": "0.0-4.0-3.0-16.0", "num_clicks_accrued": [0, 0, 0, 0, 0, 0, 0, 0, 0, 0, 0, 0, 0], "path": ["0", "0", "5", "6", "8"], "queries": {"click": {"edge": {"target": [], "time": []}, "state": {"target": ["8"], "time": [2131]}}, "mouseout": {"edge": {"target": [], "time": []}, "state": {"target": ["9", "0", "8", "5", "3"], "time": [1725, 1749, 2526, 2565, 2784]}}, "mouseover": {"edge": {"target": [], "time": []}, "state": {"target": ["9", "0", "8", "5", "3"], "time": [1718, 1735, 1868, 2557, 2774]}}}, "revealed_states": [], "rewards": [2, 8, 48], "rt": [2101, 80, 97], "score": 62.75, "simulationMode": [null, null, null], "stateRewards": ["", -2, 4, 48, -24, 2, 8, 24, 48, 2, 4, -24, -48], "time_elapsed": 1403566, "trialIndex": 50, "trialTime": 9453, "trial_id": "mdp_892412058587", "trial_index": 62, "trial_type": "mouselab-mdp", "withholdReward": true}, "uniqueid": "w86005371:a72763507"}, {"current_trial": 63, "dateTime": 1664369844367, "trialdata": {"actionTimes": [8513, 9823, 10378], "actions": ["left", "left", "up"], "block": "test2", "costs": -1.5, "displayed_time": "10.88", "internal_node_id": "0.0-4.0-3.0-17.0", "num_clicks_accrued": [0, 0, 0, 0, 0, 0, 0, 0, 0, 0, 0, 0, 0], "path": ["0", "0", "9", "10", "11"], "queries": {"click": {"edge": {"target": [], "time": []}, "state": {"target": ["11", "3", "12", "7", "4", "8"], "time": [2429, 3422, 4771, 5675, 6444, 7320]}}, "mouseout": {"edge": {"target": [], "time": []}, "state": {"target": ["0", "11", "2", "3", "2", "4", "4", "9", "12", "7", "7", "2", "4", "6", "8"], "time": [2155, 2960, 3055, 4177, 4216, 4271, 4465, 4561, 5185, 5298, 6067, 6236, 6824, 6919, 11350]}}, "mouseover": {"edge": {"target": [], "time": []}, "state": {"target": ["11", "2", "3", "2", "4", "4", "9", "12", "7", "7", "2", "4", "6", "8"], "time": [2282, 3015, 3089, 4187, 4232, 4449, 4538, 4617, 5265, 5626, 6138, 6340, 6897, 7200]}}}, "revealed_states": [], "rewards": [-4, 4, 24], "rt": [6715, 794, 27], "score": 27.5, "simulationMode": [null, null, null], "stateRewards": ["", -4, -4, 24, -48, -2, 8, -24, -48, -4, 4, 24, -48], "time_elapsed": 1415742, "trialIndex": 51, "trialTime": 12138, "trial_id": "mdp_934626330092", "trial_index": 63, "trial_type": "mouselab-mdp", "withholdReward": true}, "uniqueid": "w86005371:a72763507"}, {"current_trial": 64, "dateTime": 1664369854241, "trialdata": {"actionTimes": [5595, 6226, 6792], "actions": ["up", "up", "right"], "block": "test2", "costs": -0.75, "displayed_time": "9.15", "internal_node_id": "0.0-4.0-3.0-18.0", "num_clicks_accrued": [0, 0, 0, 0, 0, 0, 0, 0, 0, 0, 0, 0, 0], "path": ["0", "0", "1", "2", "3"], "queries": {"click": {"edge": {"target": [], "time": []}, "state": {"target": ["4", "7", "3"], "time": [2338, 3134, 4375]}}, "mouseout": {"edge": {"target": [], "time": []}, "state": {"target": ["0", "1", "2", "4", "2", "3", "7", "3", "3", "5"], "time": [1063, 1640, 1721, 2780, 2820, 2862, 3533, 3685, 5113, 7978]}}, "mouseover": {"edge": {"target": [], "time": []}, "state": {"target": ["1", "2", "4", "2", "3", "7", "3", "3"], "time": [1609, 1671, 2217, 2805, 2837, 2948, 3582, 4231]}}}, "revealed_states": [], "rewards": [4, 4, 48], "rt": [4446, 101, 47], "score": 60.25, "simulationMode": [null, null, null], "stateRewards": ["", 4, 4, 48, -48, -2, -8, -48, -24, 2, 4, -24, -48], "time_elapsed": 1425616, "trialIndex": 52, "trialTime": 9835, "trial_id": "mdp_239929662917", "trial_index": 64, "trial_type": "mouselab-mdp", "withholdReward": true}, "uniqueid": "w86005371:a72763507"}, {"current_trial": 65, "dateTime": 1664369863590, "trialdata": {"actionTimes": [2515, 3120, 3948], "actions": ["left", "left", "down"], "block": "test2", "costs": -0.25, "displayed_time": "8.90", "internal_node_id": "0.0-4.0-3.0-19.0", "num_clicks_accrued": [0, 0, 0, 0, 0, 0, 0, 0, 0, 0, 0, 0, 0], "path": ["0", "0", "9", "10", "12"], "queries": {"click": {"edge": {"target": [], "time": []}, "state": {"target": ["12"], "time": [1467]}}, "mouseout": {"edge": {"target": [], "time": []}, "state": {"target": ["0", "9", "12", "10", "11", "1", "0"], "time": [788, 1260, 1928, 1979, 2032, 5036, 5066]}}, "mouseover": {"edge": {"target": [], "time": []}, "state": {"target": ["9", "12", "10", "11"], "time": [1208, 1384, 1956, 1993]}}}, "revealed_states": [], "rewards": [-4, 8, 48], "rt": [1618, 88, 312], "score": 56.75, "simulationMode": [null, null, null], "stateRewards": ["", 4, 8, 48, -48, -4, 8, -24, -24, -4, 8, 48, 48], "time_elapsed": 1434965, "trialIndex": 53, "trialTime": 9312, "trial_id": "mdp_377640328420", "trial_index": 65, "trial_type": "mouselab-mdp", "withholdReward": true}, "uniqueid": "w86005371:a72763507"}, {"current_trial": 66, "dateTime": 1664369874405, "trialdata": {"actionTimes": [4922, 5482, 6066], "actions": ["right", "right", "up"], "block": "test2", "costs": -0.75, "displayed_time": "9.93", "internal_node_id": "0.0-4.0-3.0-20.0", "num_clicks_accrued": [0, 0, 0, 0, 0, 0, 0, 0, 0, 0, 0, 0, 0], "path": ["0", "0", "5", "6", "7"], "queries": {"click": {"edge": {"target": [], "time": []}, "state": {"target": ["7", "4", "11"], "time": [1598, 2614, 3421]}}, "mouseout": {"edge": {"target": [], "time": []}, "state": {"target": ["0", "7", "2", "4", "11", "1"], "time": [1242, 2171, 2285, 3166, 3958, 4061]}}, "mouseover": {"edge": {"target": [], "time": []}, "state": {"target": ["7", "2", "4", "11", "1"], "time": [1370, 2236, 2387, 3243, 4021]}}}, "revealed_states": [], "rewards": [2, 4, 24], "rt": [4006, 34, 53], "score": 34.25, "simulationMode": [null, null, null], "stateRewards": ["", 4, 4, -24, -48, 2, 4, 24, -48, 2, 4, 24, 24], "time_elapsed": 1445779, "trialIndex": 54, "trialTime": 10779, "trial_id": "mdp_223558518218", "trial_index": 66, "trial_type": "mouselab-mdp", "withholdReward": false}, "uniqueid": "w86005371:a72763507"}, {"current_trial": 67, "dateTime": 1664369886144, "trialdata": {"actionTimes": [3067, 3705, 4284], "actions": ["up", "up", "right"], "block": "test2", "costs": -0.25, "displayed_time": "8.88", "internal_node_id": "0.0-4.0-3.0-21.0", "num_clicks_accrued": [0, 0, 0, 0, 0, 0, 0, 0, 0, 0, 0, 0, 0], "path": ["0", "0", "1", "2", "3"], "queries": {"click": {"edge": {"target": [], "time": []}, "state": {"target": ["3"], "time": [2253]}}, "mouseout": {"edge": {"target": [], "time": []}, "state": {"target": ["0", "1", "3", "3", "0"], "time": [1272, 1345, 1489, 9888, 9952]}}, "mouseover": {"edge": {"target": [], "time": []}, "state": {"target": ["1", "3", "3"], "time": [1312, 1464, 2124]}}}, "revealed_states": [], "rewards": [2, 8, 48], "rt": [2196, 116, 59], "score": 62.75, "simulationMode": [null, null, null], "stateRewards": ["", 2, 8, 48, 24, -4, 4, -48, 24, 2, 8, 48, 48], "time_elapsed": 1457519, "trialIndex": 55, "trialTime": 11701, "trial_id": "mdp_367344599162", "trial_index": 67, "trial_type": "mouselab-mdp", "withholdReward": false}, "uniqueid": "w86005371:a72763507"}, {"current_trial": 68, "dateTime": 1664369898090, "trialdata": {"actionTimes": [7920, 8487, 9084], "actions": ["right", "right", "down"], "block": "test2", "costs": -1.5, "displayed_time": "10.29", "internal_node_id": "0.0-4.0-3.0-22.0", "num_clicks_accrued": [0, 0, 0, 0, 0, 0, 0, 0, 0, 0, 0, 0, 0], "path": ["0", "0", "5", "6", "8"], "queries": {"click": {"edge": {"target": [], "time": []}, "state": {"target": ["12", "4", "11", "3", "7", "8"], "time": [2575, 3575, 4818, 5642, 6281, 6918]}}, "mouseout": {"edge": {"target": [], "time": []}, "state": {"target": ["0", "0", "12", "10", "4", "11", "11", "2", "3", "7", "6"], "time": [983, 2336, 3246, 3275, 4078, 4182, 5224, 5328, 6042, 6657, 6705]}}, "mouseover": {"edge": {"target": [], "time": []}, "state": {"target": ["12", "10", "4", "11", "11", "2", "3", "7", "6", "8"], "time": [2417, 3262, 3325, 4111, 4694, 5305, 5552, 6065, 6682, 6737]}}}, "revealed_states": [], "rewards": [-4, 8, 48], "rt": [6646, 49, 79], "score": 55.5, "simulationMode": [null, null, null], "stateRewards": ["", -2, 4, -24, -48, -4, 8, -24, 48, 4, 4, -48, 24], "time_elapsed": 1469465, "trialIndex": 56, "trialTime": 11908, "trial_id": "mdp_341117665701", "trial_index": 68, "trial_type": "mouselab-mdp", "withholdReward": true}, "uniqueid": "w86005371:a72763507"}, {"current_trial": 69, "dateTime": 1664369909661, "trialdata": {"actionTimes": [3871, 4435, 4970], "actions": ["up", "up", "right"], "block": "test2", "costs": -0.5, "displayed_time": "10.33", "internal_node_id": "0.0-4.0-3.0-23.0", "num_clicks_accrued": [0, 0, 0, 0, 0, 0, 0, 0, 0, 0, 0, 0, 0], "path": ["0", "0", "1", "2", "3"], "queries": {"click": {"edge": {"target": [], "time": []}, "state": {"target": ["11", "3"], "time": [2108, 2923]}}, "mouseout": {"edge": {"target": [], "time": []}, "state": {"target": ["8", "8", "1", "9", "10", "11", "2", "3", "7"], "time": [650, 662, 1080, 1831, 1889, 2562, 2624, 3382, 5951]}}, "mouseover": {"edge": {"target": [], "time": []}, "state": {"target": ["9", "10", "11", "2", "3", "7"], "time": [1799, 1864, 1937, 2601, 2650, 3429]}}}, "revealed_states": [], "rewards": [2, -4, 48], "rt": [2550, 47, 13], "score": 50.5, "simulationMode": [null, null, null], "stateRewards": ["", 2, -4, 48, -48, 2, 4, -24, 24, -4, -8, 24, -48], "time_elapsed": 1481036, "trialIndex": 57, "trialTime": 11535, "trial_id": "mdp_238810765895", "trial_index": 69, "trial_type": "mouselab-mdp", "withholdReward": true}, "uniqueid": "w86005371:a72763507"}, {"current_trial": 70, "dateTime": 1664369921012, "trialdata": {"actionTimes": [5815, 6429, 7012], "actions": ["up", "up", "right"], "block": "test2", "costs": -0.75, "displayed_time": "10.94", "internal_node_id": "0.0-4.0-3.0-24.0", "num_clicks_accrued": [0, 0, 0, 0, 0, 0, 0, 0, 0, 0, 0, 0, 0], "path": ["0", "0", "1", "2", "3"], "queries": {"click": {"edge": {"target": [], "time": []}, "state": {"target": ["12", "4", "3"], "time": [2827, 3812, 4801]}}, "mouseout": {"edge": {"target": [], "time": []}, "state": {"target": ["0", "0", "9", "12", "9", "4", "2", "3"], "time": [960, 2441, 2537, 3290, 3330, 4409, 4488, 5264]}}, "mouseover": {"edge": {"target": [], "time": []}, "state": {"target": ["9", "12", "9", "4", "2", "3"], "time": [2474, 2705, 3322, 3755, 4448, 4528]}}}, "revealed_states": [], "rewards": [2, 8, 48], "rt": [3888, 91, 71], "score": 62.25, "simulationMode": [null, null, null], "stateRewards": ["", 2, 8, 48, 24, 2, 8, 48, 48, -2, -4, -24, -48], "time_elapsed": 1492387, "trialIndex": 58, "trialTime": 11312, "trial_id": "mdp_717636349175", "trial_index": 70, "trial_type": "mouselab-mdp", "withholdReward": true}, "uniqueid": "w86005371:a72763507"}, {"current_trial": 71, "dateTime": 1664369930712, "trialdata": {"actionTimes": [7027, 7592, 8193], "actions": ["up", "up", "left"], "block": "test2", "costs": -1.5, "displayed_time": "9.18", "internal_node_id": "0.0-4.0-3.0-25.0", "num_clicks_accrued": [0, 0, 0, 0, 0, 0, 0, 0, 0, 0, 0, 0, 0], "path": ["0", "0", "1", "2", "4"], "queries": {"click": {"edge": {"target": [], "time": []}, "state": {"target": ["7", "11", "12", "8", "3", "4"], "time": [2191, 3159, 3936, 4804, 5738, 6278]}}, "mouseout": {"edge": {"target": [], "time": []}, "state": {"target": ["5", "0", "0", "5", "7", "11", "10", "12", "8", "3", "2", "4", "2", "1", "0"], "time": [699, 732, 1489, 1537, 2697, 3667, 3730, 4387, 5372, 5989, 6101, 8845, 8935, 8999, 9041]}}, "mouseover": {"edge": {"target": [], "time": []}, "state": {"target": ["5", "7", "11", "10", "12", "8", "3", "2", "4"], "time": [1507, 2098, 3002, 3690, 3765, 4715, 5455, 6021, 6174]}}}, "revealed_states": [], "rewards": [-4, -4, 48], "rt": [5861, 36, 68], "score": 43.5, "simulationMode": [null, null, null], "stateRewards": ["", -4, -4, 24, 48, 4, -4, -24, 24, -4, -4, 24, 24], "time_elapsed": 1502087, "trialIndex": 59, "trialTime": 9665, "trial_id": "mdp_357725458160", "trial_index": 71, "trial_type": "mouselab-mdp", "withholdReward": true}, "uniqueid": "w86005371:a72763507"}, {"current_trial": 72, "dateTime": 1664369940154, "trialdata": {"actionTimes": [5361, 5910, 6550], "actions": ["up", "up", "right"], "block": "test2", "costs": -1, "displayed_time": "9.13", "internal_node_id": "0.0-4.0-3.0-26.0", "num_clicks_accrued": [0, 0, 0, 0, 0, 0, 0, 0, 0, 0, 0, 0, 0], "path": ["0", "0", "1", "2", "3"], "queries": {"click": {"edge": {"target": [], "time": []}, "state": {"target": ["4", "11", "7", "3"], "time": [2111, 2857, 3712, 4396]}}, "mouseout": {"edge": {"target": [], "time": []}, "state": {"target": ["0", "0", "1", "4", "11", "1", "7", "7", "3"], "time": [875, 1764, 1825, 2633, 3257, 3307, 3386, 4195, 4987]}}, "mouseover": {"edge": {"target": [], "time": []}, "state": {"target": ["1", "4", "11", "1", "7", "7", "3"], "time": [1809, 1905, 2690, 3290, 3354, 3554, 4317]}}}, "revealed_states": [], "rewards": [-2, -8, 48], "rt": [4250, 41, 113], "score": 42, "simulationMode": [null, null, null], "stateRewards": ["", -2, -8, 48, 24, 4, -8, 24, 48, 4, -4, 24, -48], "time_elapsed": 1511528, "trialIndex": 60, "trialTime": 9405, "trial_id": "mdp_871576155740", "trial_index": 72, "trial_type": "mouselab-mdp", "withholdReward": true}, "uniqueid": "w86005371:a72763507"}, {"current_trial": 73, "dateTime": 1664369952167, "trialdata": {"actionTimes": [5976, 6501, 7095], "actions": ["right", "right", "down"], "block": "test2", "costs": -1.25, "displayed_time": "9.06", "internal_node_id": "0.0-4.0-3.0-27.0", "num_clicks_accrued": [0, 0, 0, 0, 0, 0, 0, 0, 0, 0, 0, 0, 0], "path": ["0", "0", "5", "6", "8"], "queries": {"click": {"edge": {"target": [], "time": []}, "state": {"target": ["12", "3", "4", "7", "8"], "time": [1922, 2827, 3628, 4321, 5099]}}, "mouseout": {"edge": {"target": [], "time": []}, "state": {"target": ["0", "9", "12", "9", "1", "3", "2", "4", "2", "3", "7", "6", "8", "1", "4", "9"], "time": [1504, 1562, 2337, 2362, 2387, 3322, 3394, 4055, 4080, 4102, 4800, 4840, 5433, 5481, 5527, 7872]}}, "mouseover": {"edge": {"target": [], "time": []}, "state": {"target": ["9", "12", "9", "1", "3", "2", "4", "2", "7", "6", "8", "1"], "time": [1545, 1881, 2355, 2379, 2737, 3348, 3474, 4064, 4136, 4815, 4855, 5473]}}}, "revealed_states": [], "rewards": [-2, 4, 48], "rt": [4922, 4, 82], "score": 53.75, "simulationMode": [null, null, null], "stateRewards": ["", -4, 8, 24, -24, -2, 4, -24, 48, -2, 8, -48, -24], "time_elapsed": 1523542, "trialIndex": 61, "trialTime": 11978, "trial_id": "mdp_799359103169", "trial_index": 73, "trial_type": "mouselab-mdp", "withholdReward": true}, "uniqueid": "w86005371:a72763507"}, {"current_trial": 74, "dateTime": 1664369964434, "trialdata": {"actionTimes": [5532, 6110, 7173], "actions": ["right", "right", "up"], "block": "test2", "costs": -0.5, "displayed_time": "11.33", "internal_node_id": "0.0-4.0-3.0-28.0", "num_clicks_accrued": [0, 0, 0, 0, 0, 0, 0, 0, 0, 0, 0, 0, 0], "path": ["0", "0", "5", "6", "7"], "queries": {"click": {"edge": {"target": [], "time": []}, "state": {"target": ["11", "7"], "time": [3652, 4589]}}, "mouseout": {"edge": {"target": [], "time": []}, "state": {"target": ["0", "0", "0", "11", "1", "7", "7", "5"], "time": [854, 1375, 2802, 4034, 4073, 4114, 5104, 7961]}}, "mouseover": {"edge": {"target": [], "time": []}, "state": {"target": ["11", "1", "7", "7"], "time": [3537, 4058, 4098, 4500]}}}, "revealed_states": [], "rewards": [4, 8, 48], "rt": [3215, 59, 538], "score": 64.5, "simulationMode": [null, null, null], "stateRewards": ["", 2, -8, -48, 24, 4, 8, 48, -48, 2, -4, 24, 24], "time_elapsed": 1535809, "trialIndex": 62, "trialTime": 12234, "trial_id": "mdp_130475327289", "trial_index": 74, "trial_type": "mouselab-mdp", "withholdReward": true}, "uniqueid": "w86005371:a72763507"}, {"current_trial": 75, "dateTime": 1664369975931, "trialdata": {"actionTimes": [4262, 4935, 5517], "actions": ["up", "up", "right"], "block": "test2", "costs": -0.25, "displayed_time": "10.80", "internal_node_id": "0.0-4.0-3.0-29.0", "num_clicks_accrued": [0, 0, 0, 0, 0, 0, 0, 0, 0, 0, 0, 0, 0], "path": ["0", "0", "1", "2", "3"], "queries": {"click": {"edge": {"target": [], "time": []}, "state": {"target": ["3"], "time": [3352]}}, "mouseout": {"edge": {"target": [], "time": []}, "state": {"target": ["0", "0", "3", "3", "0"], "time": [2405, 3062, 7876, 8012, 8292]}}, "mouseover": {"edge": {"target": [], "time": []}, "state": {"target": ["3"], "time": [3174]}}}, "revealed_states": [], "rewards": [2, 8, 48], "rt": [1476, 154, 66], "score": 62.75, "simulationMode": [null, null, null], "stateRewards": ["", 2, 8, 48, -48, -2, -4, -24, 24, 4, -4, 48, -48], "time_elapsed": 1547306, "trialIndex": 63, "trialTime": 11460, "trial_id": "mdp_105734044587", "trial_index": 75, "trial_type": "mouselab-mdp", "withholdReward": true}, "uniqueid": "w86005371:a72763507"}, {"current_trial": 76, "dateTime": 1664369978110, "trialdata": {"internal_node_id": "0.0-4.0-4.0", "response": " ", "rt": 2174, "stimulus": "<h1> End of block! </h1>\n\nYou have reached the end of the block 2/4. If you need a short break, feel free to take one now before moving on.\n\n<br><br>\nIn the next block, you will complete another 30 rounds of this game.\n\n<br><br>\n<div style='text-align: center;'>Press <code>space</code> to begin.</div>\n<br><br>\n<div style='text-align: center;'>(If the experiment doesn't continue, try clicking on the text and then pressing <code>space</code>.)</div>", "time_elapsed": 1549485, "trial_id": "mdp_ready_3", "trial_index": 76, "trial_type": "html-keyboard-response"}, "uniqueid": "w86005371:a72763507"}, {"current_trial": 77, "dateTime": 1664369987997, "trialdata": {"actionTimes": [3033, 3597, 4812], "actions": ["left", "left", "up"], "block": "test3", "costs": -0.25, "displayed_time": "9.41", "internal_node_id": "0.0-4.0-5.0-0.0", "num_clicks_accrued": [0, 0, 0, 0, 0, 0, 0, 0, 0, 0, 0, 0, 0], "path": ["0", "0", "9", "10", "11"], "queries": {"click": {"edge": {"target": [], "time": []}, "state": {"target": ["11"], "time": [2092]}}, "mouseout": {"edge": {"target": [], "time": []}, "state": {"target": ["0", "0", "11", "9"], "time": [1018, 1818, 5777, 5816]}}, "mouseover": {"edge": {"target": [], "time": []}, "state": {"target": ["11"], "time": [1963]}}}, "revealed_states": [], "rewards": [-2, 8, 48], "rt": [1626, 48, 679], "score": 58.75, "simulationMode": [null, null, null], "stateRewards": ["", -2, -4, -24, -24, 4, 8, 24, 24, -2, 8, 48, 48], "time_elapsed": 1559372, "trialIndex": 64, "trialTime": 9854, "trial_id": "mdp_620787912291", "trial_index": 77, "trial_type": "mouselab-mdp", "withholdReward": true}, "uniqueid": "w86005371:a72763507"}, {"current_trial": 78, "dateTime": 1664369998689, "trialdata": {"actionTimes": [3881, 4464, 5080], "actions": ["right", "right", "down"], "block": "test3", "costs": -0.5, "displayed_time": "9.98", "internal_node_id": "0.0-4.0-5.0-1.0", "num_clicks_accrued": [0, 0, 0, 0, 0, 0, 0, 0, 0, 0, 0, 0, 0], "path": ["0", "0", "5", "6", "8"], "queries": {"click": {"edge": {"target": [], "time": []}, "state": {"target": ["4", "8"], "time": [2108, 3089]}}, "mouseout": {"edge": {"target": [], "time": []}, "state": {"target": ["2", "4", "2", "8", "8", "8"], "time": [1966, 2561, 2591, 2656, 6273, 7154]}}, "mouseover": {"edge": {"target": [], "time": []}, "state": {"target": ["2", "4", "2", "8", "8"], "time": [1582, 2079, 2582, 2647, 3008]}}}, "revealed_states": [], "rewards": [-4, -8, 48], "rt": [2909, 64, 95], "score": 40.5, "simulationMode": [null, null, null], "stateRewards": ["", -4, 4, -24, -24, -4, -8, 24, 48, 4, -4, 24, 48], "time_elapsed": 1570064, "trialIndex": 65, "trialTime": 10654, "trial_id": "mdp_175395325183", "trial_index": 78, "trial_type": "mouselab-mdp", "withholdReward": true}, "uniqueid": "w86005371:a72763507"}, {"current_trial": 79, "dateTime": 1664370019509, "trialdata": {"actionTimes": [17066, 18436, 19053], "actions": ["right", "right", "down"], "block": "test3", "costs": -2, "displayed_time": "19.56", "internal_node_id": "0.0-4.0-5.0-2.0", "num_clicks_accrued": [0, 0, 0, 0, 0, 0, 0, 0, 0, 0, 0, 0, 0], "path": ["0", "0", "5", "6", "8"], "queries": {"click": {"edge": {"target": [], "time": []}, "state": {"target": ["12", "3", "4", "11", "7", "8", "5", "1"], "time": [1696, 2556, 3399, 4097, 4819, 5478, 12878, 13503]}}, "mouseout": {"edge": {"target": [], "time": []}, "state": {"target": ["0", "0", "9", "12", "12", "2", "3", "2", "4", "11", "7", "6", "8", "5", "3", "2", "1", "1", "2", "5", "1", "6", "5"], "time": [656, 1323, 1378, 1563, 2050, 2108, 3135, 3246, 3904, 4496, 5209, 5251, 6958, 7000, 7231, 8040, 8091, 9129, 12364, 13191, 14599, 20345, 20384]}}, "mouseover": {"edge": {"target": [], "time": []}, "state": {"target": ["9", "12", "12", "2", "3", "2", "4", "11", "7", "6", "8", "5", "2", "1", "1", "2", "5", "1", "6"], "time": [1346, 1521, 1601, 2099, 2459, 3169, 3335, 4023, 4643, 5228, 5281, 6993, 7415, 8066, 8491, 9178, 12654, 13292, 14697]}}}, "revealed_states": [], "rewards": [2, 4, 24], "rt": [16113, 847, 94], "score": 33, "simulationMode": [null, null, null], "stateRewards": ["", -4, 8, 24, 24, 2, 4, -48, 24, -2, -4, -24, -24], "time_elapsed": 1590884, "trialIndex": 66, "trialTime": 20778, "trial_id": "mdp_752328329546", "trial_index": 79, "trial_type": "mouselab-mdp", "withholdReward": true}, "uniqueid": "w86005371:a72763507"}, {"current_trial": 80, "dateTime": 1664370039100, "trialdata": {"actionTimes": [15647, 16454, 17432], "actions": ["up", "up", "left"], "block": "test3", "costs": -2.5, "displayed_time": "17.97", "internal_node_id": "0.0-4.0-5.0-3.0", "num_clicks_accrued": [0, 0, 0, 0, 0, 0, 0, 0, 0, 0, 0, 0, 0], "path": ["0", "0", "1", "2", "4"], "queries": {"click": {"edge": {"target": [], "time": []}, "state": {"target": ["3", "4", "11", "12", "8", "7", "10", "6", "2", "1"], "time": [1665, 2388, 3012, 3619, 4335, 4940, 11048, 12211, 12868, 15110]}}, "mouseout": {"edge": {"target": [], "time": []}, "state": {"target": ["0", "3", "2", "4", "11", "10", "12", "8", "6", "7", "1", "9", "10", "2", "10", "9", "6", "2", "1", "3"], "time": [770, 2160, 2216, 2809, 3370, 3433, 4046, 4727, 4775, 6384, 6536, 7505, 9908, 10388, 11689, 11723, 12441, 13723, 14045, 14885]}}, "mouseover": {"edge": {"target": [], "time": []}, "state": {"target": ["3", "2", "4", "11", "10", "12", "8", "6", "7", "1", "9", "10", "2", "10", "9", "6", "2", "1", "1"], "time": [1488, 2184, 2251, 2857, 3400, 3489, 4301, 4744, 4791, 6488, 6592, 7506, 9988, 10710, 11705, 12085, 12826, 13795, 14967]}}}, "revealed_states": [], "rewards": [2, 4, 24], "rt": [14626, 280, 454], "score": 32.5, "simulationMode": [null, null, null], "stateRewards": ["", 2, 4, -48, 24, -4, -4, -24, 24, 2, -4, 24, -24], "time_elapsed": 1610475, "trialIndex": 67, "trialTime": 19556, "trial_id": "mdp_163600331068", "trial_index": 80, "trial_type": "mouselab-mdp", "withholdReward": true}, "uniqueid": "w86005371:a72763507"}, {"current_trial": 81, "dateTime": 1664370048801, "trialdata": {"actionTimes": [5210, 5759, 6558], "actions": ["left", "left", "up"], "block": "test3", "costs": -0.75, "displayed_time": "9.19", "internal_node_id": "0.0-4.0-5.0-4.0", "num_clicks_accrued": [0, 0, 0, 0, 0, 0, 0, 0, 0, 0, 0, 0, 0], "path": ["0", "0", "9", "10", "11"], "queries": {"click": {"edge": {"target": [], "time": []}, "state": {"target": ["7", "4", "11"], "time": [2322, 3135, 4312]}}, "mouseout": {"edge": {"target": [], "time": []}, "state": {"target": ["1", "1", "0", "9", "0", "6", "6", "7", "2", "4", "11", "11", "10"], "time": [597, 652, 721, 985, 1568, 2074, 2186, 2746, 2986, 3578, 3658, 4784, 4866]}}, "mouseover": {"edge": {"target": [], "time": []}, "state": {"target": ["6", "6", "7", "2", "4", "11", "11", "10", "9"], "time": [1986, 2137, 2218, 2833, 3035, 3619, 4232, 4841, 4890]}}}, "revealed_states": [], "rewards": [-4, 8, 48], "rt": [4031, 24, 292], "score": 56.25, "simulationMode": [null, null, null], "stateRewards": ["", 4, -8, -48, -24, 2, -8, -48, 48, -4, 8, 48, -48], "time_elapsed": 1620176, "trialIndex": 68, "trialTime": 9665, "trial_id": "mdp_605757196263", "trial_index": 81, "trial_type": "mouselab-mdp", "withholdReward": true}, "uniqueid": "w86005371:a72763507"}, {"current_trial": 82, "dateTime": 1664370069666, "trialdata": {"actionTimes": [4312, 4835, 5718], "actions": ["up", "up", "right"], "block": "test3", "costs": -0.25, "displayed_time": "10.61", "internal_node_id": "0.0-4.0-5.0-5.0", "num_clicks_accrued": [0, 0, 0, 0, 0, 0, 0, 0, 0, 0, 0, 0, 0], "path": ["0", "0", "1", "2", "3"], "queries": {"click": {"edge": {"target": [], "time": []}, "state": {"target": ["3"], "time": [3309]}}, "mouseout": {"edge": {"target": [], "time": []}, "state": {"target": ["9", "9", "11", "0", "1"], "time": [1128, 1182, 1277, 2979, 3035]}}, "mouseover": {"edge": {"target": [], "time": []}, "state": {"target": ["1", "3"], "time": [3027, 3122]}}}, "revealed_states": [], "rewards": [2, 4, 48], "rt": [1707, 3, 355], "score": 58.75, "simulationMode": [null, null, null], "stateRewards": ["", 2, 4, 48, -24, 2, -8, -24, -24, 2, -8, -24, -48], "time_elapsed": 1641041, "trialIndex": 69, "trialTime": 20831, "trial_id": "mdp_274832552938", "trial_index": 82, "trial_type": "mouselab-mdp", "withholdReward": true}, "uniqueid": "w86005371:a72763507"}, {"current_trial": 83, "dateTime": 1664370085324, "trialdata": {"actionTimes": [8107, 8957, 9480], "actions": ["right", "right", "up"], "block": "test3", "costs": -1.25, "displayed_time": "12.25", "internal_node_id": "0.0-4.0-5.0-6.0", "num_clicks_accrued": [0, 0, 0, 0, 0, 0, 0, 0, 0, 0, 0, 0, 0], "path": ["0", "0", "5", "6", "7"], "queries": {"click": {"edge": {"target": [], "time": []}, "state": {"target": ["11", "8", "3", "4", "7"], "time": [3997, 5030, 5814, 6502, 7092]}}, "mouseout": {"edge": {"target": [], "time": []}, "state": {"target": ["3", "3", "1", "4", "1", "0", "0", "9", "10", "11", "10", "12", "8", "8", "6", "7", "3", "2", "4", "2", "7", "0"], "time": [2253, 2306, 2347, 2602, 2762, 2874, 3628, 3675, 3749, 4469, 4523, 4660, 4804, 5429, 5470, 5549, 6258, 6338, 6828, 6851, 7371, 7430]}}, "mouseover": {"edge": {"target": [], "time": []}, "state": {"target": ["9", "10", "11", "10", "12", "8", "8", "6", "7", "3", "2", "4", "2", "7", "0"], "time": [3644, 3716, 3940, 4494, 4556, 4765, 4935, 5447, 5492, 5661, 6284, 6387, 6835, 6916, 7419]}}}, "revealed_states": [], "rewards": [2, 4, 48], "rt": [4869, 320, 6], "score": 57.75, "simulationMode": [null, null, null], "stateRewards": ["", 2, -8, 24, -48, 2, 4, 48, -48, -2, -8, -48, 48], "time_elapsed": 1656699, "trialIndex": 70, "trialTime": 15621, "trial_id": "mdp_629420544881", "trial_index": 83, "trial_type": "mouselab-mdp", "withholdReward": false}, "uniqueid": "w86005371:a72763507"}, {"current_trial": 84, "dateTime": 1664370101502, "trialdata": {"actionTimes": [5820, 6713, 7651], "actions": ["left", "left", "down"], "block": "test3", "costs": -0.25, "displayed_time": "14.15", "internal_node_id": "0.0-4.0-5.0-7.0", "num_clicks_accrued": [0, 0, 0, 0, 0, 0, 0, 0, 0, 0, 0, 0, 0], "path": ["0", "0", "9", "10", "12"], "queries": {"click": {"edge": {"target": [], "time": []}, "state": {"target": ["12"], "time": [4697]}}, "mouseout": {"edge": {"target": [], "time": []}, "state": {"target": ["12", "0", "12", "0", "5"], "time": [2860, 4478, 5224, 9044, 9264]}}, "mouseover": {"edge": {"target": [], "time": []}, "state": {"target": ["12"], "time": [4551]}}}, "revealed_states": [], "rewards": [4, -8, 48], "rt": [1680, 366, 417], "score": 48.75, "simulationMode": [null, null, null], "stateRewards": ["", -2, -4, -24, -48, 2, -8, -24, -24, 4, -8, 48, 48], "time_elapsed": 1672877, "trialIndex": 71, "trialTime": 16141, "trial_id": "mdp_950599994674", "trial_index": 84, "trial_type": "mouselab-mdp", "withholdReward": true}, "uniqueid": "w86005371:a72763507"}, {"current_trial": 85, "dateTime