{"condition": 0, "counterbalance": 0, "assignmentId": "a41931176", "workerId": "w60586713", "hitId": "h86816014", "currenttrial": 473, "bonus": 0, "data": [{"uniqueid": "w60586713:a41931176", "current_trial": 0, "dateTime": 1664464140791, "trialdata": {"success": true, "trial_type": "fullscreen", "trial_index": 0, "time_elapsed": 6895, "internal_node_id": "0.0-0.0"}}, {"uniqueid": "w60586713:a41931176", "current_trial": 1, "dateTime": 1664464181610, "trialdata": {"view_history": [{"page_index": 0, "viewing_time": 40779}], "rt": 40784, "trial_id": "exp_instructions_distractor", "trial_type": "instructions", "trial_index": 1, "time_elapsed": 47717, "internal_node_id": "0.0-1.0"}}, {"uniqueid": "w60586713:a41931176", "current_trial": 2, "dateTime": 1664464219465, "trialdata": {"view_history": [{"page_index": 0, "viewing_time": 37844}], "rt": 37845, "trial_id": "color_game_instructions", "trial_type": "instructions", "trial_index": 2, "time_elapsed": 85572, "internal_node_id": "0.0-2.0"}}, {"uniqueid": "w60586713:a41931176", "current_trial": 3, "dateTime": 1664464229687, "trialdata": {"rt": 10212, "stimulus": "<h1> Get ready to start the game! </h1>\n\nThank you for reading the instructions. Get ready start with the first of 5 block(s) of this game.\n<br><br>\nIn this first block, you will complete 90 rounds of this game before moving on.\n<br><br>\nRemember, the better you perform, the bigger your bonus will be!\n<br><br>\n<div style='text-align: center;'>Press <code>space</code> to begin.</div>", "response": " ", "trial_id": "stroop_1_ready_1", "trial_type": "html-keyboard-response", "trial_index": 3, "time_elapsed": 95794, "internal_node_id": "0.0-3.0"}}, {"uniqueid": "w60586713:a41931176", "current_trial": 4, "dateTime": 1664464369442, "trialdata": {"rt": 139689, "stimulus": "<p id='stroop-text' class='stroop-green'>BRAIN</p>", "response": "g", "stimulus-type": "unrelated", "word": "BRAIN", "color": "green", "correct_response": "g", "trial_id": "stroop-trial-1-unrelated-1", "trial_type": "html-keyboard-response", "trial_index": 4, "time_elapsed": 235546, "internal_node_id": "0.0-4.0-0.0"}}, {"uniqueid": "w60586713:a41931176", "current_trial": 5, "dateTime": 1664464371434, "trialdata": {"rt": 1478, "stimulus": "<p id='stroop-text' class='stroop-blue'>SHIP</p>", "response": "b", "stimulus-type": "unrelated", "word": "SHIP", "color": "blue", "correct_response": "b", "trial_id": "stroop-trial-1-unrelated-27", "trial_type": "html-keyboard-response", "trial_index": 5, "time_elapsed": 237540, "internal_node_id": "0.0-4.0-1.0"}}, {"uniqueid": "w60586713:a41931176", "current_trial": 6, "dateTime": 1664464373420, "trialdata": {"rt": 1477, "stimulus": "<p id='stroop-text' class='stroop-red'>BLUE</p>", "response": "r", "stimulus-type": "incongruent", "word": "blue", "color": "red", "correct_response": "r", "trial_id": "stroop-trial-1-incongruent-11", "trial_type": "html-keyboard-response", "trial_index": 6, "time_elapsed": 239527, "internal_node_id": "0.0-4.0-2.0"}}, {"uniqueid": "w60586713:a41931176", "current_trial": 7, "dateTime": 1664464375403, "trialdata": {"rt": 1472, "stimulus": "<p id='stroop-text' class='stroop-blue'>BOTTLE</p>", "response": "b", "stimulus-type": "unrelated", "word": "BOTTLE", "color": "blue", "correct_response": "b", "trial_id": "stroop-trial-1-unrelated-17", "trial_type": "html-keyboard-response", "trial_index": 7, "time_elapsed": 241508, "internal_node_id": "0.0-4.0-3.0"}}, {"uniqueid": "w60586713:a41931176", "current_trial": 8, "dateTime": 1664464377350, "trialdata": {"rt": 1436, "stimulus": "<p id='stroop-text' class='stroop-red'>YELLOW</p>", "response": "y", "stimulus-type": "incongruent", "word": "yellow", "color": "red", "correct_response": "r", "trial_id": "stroop-trial-1-incongruent-5", "trial_type": "html-keyboard-response", "trial_index": 8, "time_elapsed": 243454, "internal_node_id": "0.0-4.0-4.0"}}, {"uniqueid": "w60586713:a41931176", "current_trial": 9, "dateTime": 1664464380585, "trialdata": {"rt": 2726, "stimulus": "<p id='stroop-text' class='stroop-yellow'>BLUE</p>", "response": "y", "stimulus-type": "incongruent", "word": "blue", "color": "yellow", "correct_response": "y", "trial_id": "stroop-trial-1-incongruent-18", "trial_type": "html-keyboard-response", "trial_index": 9, "time_elapsed": 246691, "internal_node_id": "0.0-4.0-5.0"}}, {"uniqueid": "w60586713:a41931176", "current_trial": 10, "dateTime": 1664464383240, "trialdata": {"rt": 2146, "stimulus": "<p id='stroop-text' class='stroop-red'>RED</p>", "response": "r", "stimulus-type": "congruent", "word": "red", "color": "red", "correct_response": "r", "trial_id": "stroop-trial-1-congruent-11", "trial_type": "html-keyboard-response", "trial_index": 10, "time_elapsed": 249347, "internal_node_id": "0.0-4.0-6.0"}}, {"uniqueid": "w60586713:a41931176", "current_trial": 11, "dateTime": 1664464384950, "trialdata": {"rt": 1200, "stimulus": "<p id='stroop-text' class='stroop-yellow'>GREEN</p>", "response": "g", "stimulus-type": "incongruent", "word": "green", "color": "yellow", "correct_response": "y", "trial_id": "stroop-trial-1-incongruent-17", "trial_type": "html-keyboard-response", "trial_index": 11, "time_elapsed": 251056, "internal_node_id": "0.0-4.0-7.0"}}, {"uniqueid": "w60586713:a41931176", "current_trial": 12, "dateTime": 1664464386885, "trialdata": {"rt": 1425, "stimulus": "<p id='stroop-text' class='stroop-green'>YELLOW</p>", "response": "y", "stimulus-type": "incongruent", "word": "yellow", "color": "green", "correct_response": "g", "trial_id": "stroop-trial-1-incongruent-1", "trial_type": "html-keyboard-response", "trial_index": 12, "time_elapsed": 252991, "internal_node_id": "0.0-4.0-8.0"}}, {"uniqueid": "w60586713:a41931176", "current_trial": 13, "dateTime": 1664464388328, "trialdata": {"rt": 931, "stimulus": "<p id='stroop-text' class='stroop-green'>YELLOW</p>", "response": "y", "stimulus-type": "incongruent", "word": "yellow", "color": "green", "correct_response": "g", "trial_id": "stroop-trial-1-incongruent-28", "trial_type": "html-keyboard-response", "trial_index": 13, "time_elapsed": 254434, "internal_node_id": "0.0-4.0-9.0"}}, {"uniqueid": "w60586713:a41931176", "current_trial": 14, "dateTime": 1664464389927, "trialdata": {"rt": 1089, "stimulus": "<p id='stroop-text' class='stroop-red'>RED</p>", "response": "r", "stimulus-type": "congruent", "word": "red", "color": "red", "correct_response": "r", "trial_id": "stroop-trial-1-congruent-15", "trial_type": "html-keyboard-response", "trial_index": 14, "time_elapsed": 256033, "internal_node_id": "0.0-4.0-10.0"}}, {"uniqueid": "w60586713:a41931176", "current_trial": 15, "dateTime": 1664464392924, "trialdata": {"rt": 2490, "stimulus": "<p id='stroop-text' class='stroop-blue'>GREEN</p>", "response": "b", "stimulus-type": "incongruent", "word": "green", "color": "blue", "correct_response": "b", "trial_id": "stroop-trial-1-incongruent-7", "trial_type": "html-keyboard-response", "trial_index": 15, "time_elapsed": 259030, "internal_node_id": "0.0-4.0-11.0"}}, {"uniqueid": "w60586713:a41931176", "current_trial": 16, "dateTime": 1664464395590, "trialdata": {"rt": 2155, "stimulus": "<p id='stroop-text' class='stroop-yellow'>YELLOW</p>", "response": "y", "stimulus-type": "congruent", "word": "yellow", "color": "yellow", "correct_response": "y", "trial_id": "stroop-trial-1-congruent-23", "trial_type": "html-keyboard-response", "trial_index": 16, "time_elapsed": 261696, "internal_node_id": "0.0-4.0-12.0"}}, {"uniqueid": "w60586713:a41931176", "current_trial": 17, "dateTime": 1664464397280, "trialdata": {"rt": 1147, "stimulus": "<p id='stroop-text' class='stroop-red'>RED</p>", "response": "r", "stimulus-type": "congruent", "word": "red", "color": "red", "correct_response": "r", "trial_id": "stroop-trial-1-congruent-22", "trial_type": "html-keyboard-response", "trial_index": 17, "time_elapsed": 263386, "internal_node_id": "0.0-4.0-13.0"}}, {"uniqueid": "w60586713:a41931176", "current_trial": 18, "dateTime": 1664464399191, "trialdata": {"rt": 1401, "stimulus": "<p id='stroop-text' class='stroop-red'>YELLOW</p>", "response": "r", "stimulus-type": "incongruent", "word": "yellow", "color": "red", "correct_response": "r", "trial_id": "stroop-trial-1-incongruent-16", "trial_type": "html-keyboard-response", "trial_index": 18, "time_elapsed": 265297, "internal_node_id": "0.0-4.0-14.0"}}, {"uniqueid": "w60586713:a41931176", "current_trial": 19, "dateTime": 1664464402125, "trialdata": {"rt": 2424, "stimulus": "<p id='stroop-text' class='stroop-blue'>GREEN</p>", "response": "b", "stimulus-type": "incongruent", "word": "green", "color": "blue", "correct_response": "b", "trial_id": "stroop-trial-1-incongruent-15", "trial_type": "html-keyboard-response", "trial_index": 19, "time_elapsed": 268231, "internal_node_id": "0.0-4.0-15.0"}}, {"uniqueid": "w60586713:a41931176", "current_trial": 20, "dateTime": 1664464404622, "trialdata": {"rt": 1982, "stimulus": "<p id='stroop-text' class='stroop-green'>YELLOW</p>", "response": "g", "stimulus-type": "incongruent", "word": "yellow", "color": "green", "correct_response": "g", "trial_id": "stroop-trial-1-incongruent-8", "trial_type": "html-keyboard-response", "trial_index": 20, "time_elapsed": 270728, "internal_node_id": "0.0-4.0-16.0"}}, {"uniqueid": "w60586713:a41931176", "current_trial": 21, "dateTime": 1664464406183, "trialdata": {"rt": 1048, "stimulus": "<p id='stroop-text' class='stroop-yellow'>YELLOW</p>", "response": "y", "stimulus-type": "congruent", "word": "yellow", "color": "yellow", "correct_response": "y", "trial_id": "stroop-trial-1-congruent-21", "trial_type": "html-keyboard-response", "trial_index": 21, "time_elapsed": 272289, "internal_node_id": "0.0-4.0-17.0"}}, {"uniqueid": "w60586713:a41931176", "current_trial": 22, "dateTime": 1664464408205, "trialdata": {"rt": 1514, "stimulus": "<p id='stroop-text' class='stroop-green'>GREEN</p>", "response": "g", "stimulus-type": "congruent", "word": "green", "color": "green", "correct_response": "g", "trial_id": "stroop-trial-1-congruent-26", "trial_type": "html-keyboard-response", "trial_index": 22, "time_elapsed": 274311, "internal_node_id": "0.0-4.0-18.0"}}, {"uniqueid": "w60586713:a41931176", "current_trial": 23, "dateTime": 1664464410069, "trialdata": {"rt": 1348, "stimulus": "<p id='stroop-text' class='stroop-blue'>BLUE</p>", "response": "b", "stimulus-type": "congruent", "word": "blue", "color": "blue", "correct_response": "b", "trial_id": "stroop-trial-1-congruent-7", "trial_type": "html-keyboard-response", "trial_index": 23, "time_elapsed": 276176, "internal_node_id": "0.0-4.0-19.0"}}, {"uniqueid": "w60586713:a41931176", "current_trial": 24, "dateTime": 1664464412603, "trialdata": {"rt": 2022, "stimulus": "<p id='stroop-text' class='stroop-yellow'>GREEN</p>", "response": "y", "stimulus-type": "incongruent", "word": "green", "color": "yellow", "correct_response": "y", "trial_id": "stroop-trial-1-incongruent-20", "trial_type": "html-keyboard-response", "trial_index": 24, "time_elapsed": 278709, "internal_node_id": "0.0-4.0-20.0"}}, {"uniqueid": "w60586713:a41931176", "current_trial": 25, "dateTime": 1664464414852, "trialdata": {"rt": 1742, "stimulus": "<p id='stroop-text' class='stroop-blue'>RED</p>", "response": "g", "stimulus-type": "incongruent", "word": "red", "color": "blue", "correct_response": "b", "trial_id": "stroop-trial-1-incongruent-23", "trial_type": "html-keyboard-response", "trial_index": 25, "time_elapsed": 280958, "internal_node_id": "0.0-4.0-21.0"}}, {"uniqueid": "w60586713:a41931176", "current_trial": 26, "dateTime": 1664464416896, "trialdata": {"rt": 1532, "stimulus": "<p id='stroop-text' class='stroop-red'>BLUE</p>", "response": "r", "stimulus-type": "incongruent", "word": "blue", "color": "red", "correct_response": "r", "trial_id": "stroop-trial-1-incongruent-2", "trial_type": "html-keyboard-response", "trial_index": 26, "time_elapsed": 283002, "internal_node_id": "0.0-4.0-22.0"}}, {"uniqueid": "w60586713:a41931176", "current_trial": 27, "dateTime": 1664464419023, "trialdata": {"rt": 1615, "stimulus": "<p id='stroop-text' class='stroop-green'>GREEN</p>", "response": "g", "stimulus-type": "congruent", "word": "green", "color": "green", "correct_response": "g", "trial_id": "stroop-trial-1-congruent-28", "trial_type": "html-keyboard-response", "trial_index": 27, "time_elapsed": 285130, "internal_node_id": "0.0-4.0-23.0"}}, {"uniqueid": "w60586713:a41931176", "current_trial": 28, "dateTime": 1664464420486, "trialdata": {"rt": 952, "stimulus": "<p id='stroop-text' class='stroop-green'>BRIDGE</p>", "response": "g", "stimulus-type": "unrelated", "word": "BRIDGE", "color": "green", "correct_response": "g", "trial_id": "stroop-trial-1-unrelated-5", "trial_type": "html-keyboard-response", "trial_index": 28, "time_elapsed": 286590, "internal_node_id": "0.0-4.0-24.0"}}, {"uniqueid": "w60586713:a41931176", "current_trial": 29, "dateTime": 1664464424667, "trialdata": {"rt": 3671, "stimulus": "<p id='stroop-text' class='stroop-blue'>BLUE</p>", "response": "b", "stimulus-type": "congruent", "word": "blue", "color": "blue", "correct_response": "b", "trial_id": "stroop-trial-1-congruent-1", "trial_type": "html-keyboard-response", "trial_index": 29, "time_elapsed": 290773, "internal_node_id": "0.0-4.0-25.0"}}, {"uniqueid": "w60586713:a41931176", "current_trial": 30, "dateTime": 1664464426472, "trialdata": {"rt": 1292, "stimulus": "<p id='stroop-text' class='stroop-red'>BOTTLE</p>", "response": "r", "stimulus-type": "unrelated", "word": "BOTTLE", "color": "red", "correct_response": "r", "trial_id": "stroop-trial-1-unrelated-3", "trial_type": "html-keyboard-response", "trial_index": 30, "time_elapsed": 292578, "internal_node_id": "0.0-4.0-26.0"}}, {"uniqueid": "w60586713:a41931176", "current_trial": 31, "dateTime": 1664464428709, "trialdata": {"rt": 1728, "stimulus": "<p id='stroop-text' class='stroop-green'>YELLOW</p>", "response": "g", "stimulus-type": "incongruent", "word": "yellow", "color": "green", "correct_response": "g", "trial_id": "stroop-trial-1-incongruent-12", "trial_type": "html-keyboard-response", "trial_index": 31, "time_elapsed": 294815, "internal_node_id": "0.0-4.0-27.0"}}, {"uniqueid": "w60586713:a41931176", "current_trial": 32, "dateTime": 1664464431720, "trialdata": {"rt": 2501, "stimulus": "<p id='stroop-text' class='stroop-red'>RED</p>", "response": "r", "stimulus-type": "congruent", "word": "red", "color": "red", "correct_response": "r", "trial_id": "stroop-trial-1-congruent-29", "trial_type": "html-keyboard-response", "trial_index": 32, "time_elapsed": 297826, "internal_node_id": "0.0-4.0-28.0"}}, {"uniqueid": "w60586713:a41931176", "current_trial": 33, "dateTime": 1664464433454, "trialdata": {"rt": 1225, "stimulus": "<p id='stroop-text' class='stroop-green'>FORK</p>", "response": "g", "stimulus-type": "unrelated", "word": "FORK", "color": "green", "correct_response": "g", "trial_id": "stroop-trial-1-unrelated-11", "trial_type": "html-keyboard-response", "trial_index": 33, "time_elapsed": 299560, "internal_node_id": "0.0-4.0-29.0"}}, {"uniqueid": "w60586713:a41931176", "current_trial": 34, "dateTime": 1664464434994, "trialdata": {"rt": 1030, "stimulus": "<p id='stroop-text' class='stroop-yellow'>RED</p>", "response": "y", "stimulus-type": "incongruent", "word": "red", "color": "yellow", "correct_response": "y", "trial_id": "stroop-trial-1-incongruent-9", "trial_type": "html-keyboard-response", "trial_index": 34, "time_elapsed": 301100, "internal_node_id": "0.0-4.0-30.0"}}, {"uniqueid": "w60586713:a41931176", "current_trial": 35, "dateTime": 1664464436054, "trialdata": {"rt": 551, "stimulus": "<p id='stroop-text' class='stroop-yellow'>YELLOW</p>", "response": "y", "stimulus-type": "congruent", "word": "yellow", "color": "yellow", "correct_response": "y", "trial_id": "stroop-trial-1-congruent-8", "trial_type": "html-keyboard-response", "trial_index": 35, "time_elapsed": 302160, "internal_node_id": "0.0-4.0-31.0"}}, {"uniqueid": "w60586713:a41931176", "current_trial": 36, "dateTime": 1664464437575, "trialdata": {"rt": 1009, "stimulus": "<p id='stroop-text' class='stroop-red'>RED</p>", "response": "r", "stimulus-type": "congruent", "word": "red", "color": "red", "correct_response": "r", "trial_id": "stroop-trial-1-congruent-17", "trial_type": "html-keyboard-response", "trial_index": 36, "time_elapsed": 303681, "internal_node_id": "0.0-4.0-32.0"}}, {"uniqueid": "w60586713:a41931176", "current_trial": 37, "dateTime": 1664464440509, "trialdata": {"rt": 2425, "stimulus": "<p id='stroop-text' class='stroop-green'>RED</p>", "response": "g", "stimulus-type": "incongruent", "word": "red", "color": "green", "correct_response": "g", "trial_id": "stroop-trial-1-incongruent-30", "trial_type": "html-keyboard-response", "trial_index": 37, "time_elapsed": 306615, "internal_node_id": "0.0-4.0-33.0"}}, {"uniqueid": "w60586713:a41931176", "current_trial": 38, "dateTime": 1664464442202, "trialdata": {"rt": 1179, "stimulus": "<p id='stroop-text' class='stroop-yellow'>DOG</p>", "response": "y", "stimulus-type": "unrelated", "word": "DOG", "color": "yellow", "correct_response": "y", "trial_id": "stroop-trial-1-unrelated-23", "trial_type": "html-keyboard-response", "trial_index": 38, "time_elapsed": 308308, "internal_node_id": "0.0-4.0-34.0"}}, {"uniqueid": "w60586713:a41931176", "current_trial": 39, "dateTime": 1664464444118, "trialdata": {"rt": 1403, "stimulus": "<p id='stroop-text' class='stroop-yellow'>DOG</p>", "response": "y", "stimulus-type": "unrelated", "word": "DOG", "color": "yellow", "correct_response": "y", "trial_id": "stroop-trial-1-unrelated-30", "trial_type": "html-keyboard-response", "trial_index": 39, "time_elapsed": 310222, "internal_node_id": "0.0-4.0-35.0"}}, {"uniqueid": "w60586713:a41931176", "current_trial": 40, "dateTime": 1664464447003, "trialdata": {"rt": 2378, "stimulus": "<p id='stroop-text' class='stroop-red'>DOG</p>", "response": "r", "stimulus-type": "unrelated", "word": "DOG", "color": "red", "correct_response": "r", "trial_id": "stroop-trial-1-unrelated-8", "trial_type": "html-keyboard-response", "trial_index": 40, "time_elapsed": 313109, "internal_node_id": "0.0-4.0-36.0"}}, {"uniqueid": "w60586713:a41931176", "current_trial": 41, "dateTime": 1664464448952, "trialdata": {"rt": 1441, "stimulus": "<p id='stroop-text' class='stroop-green'>GREEN</p>", "response": "g", "stimulus-type": "congruent", "word": "green", "color": "green", "correct_response": "g", "trial_id": "stroop-trial-1-congruent-24", "trial_type": "html-keyboard-response", "trial_index": 41, "time_elapsed": 315058, "internal_node_id": "0.0-4.0-37.0"}}, {"uniqueid": "w60586713:a41931176", "current_trial": 42, "dateTime": 1664464450406, "trialdata": {"rt": 939, "stimulus": "<p id='stroop-text' class='stroop-yellow'>YELLOW</p>", "response": "y", "stimulus-type": "congruent", "word": "yellow", "color": "yellow", "correct_response": "y", "trial_id": "stroop-trial-1-congruent-27", "trial_type": "html-keyboard-response", "trial_index": 42, "time_elapsed": 316512, "internal_node_id": "0.0-4.0-38.0"}}, {"uniqueid": "w60586713:a41931176", "current_trial": 43, "dateTime": 1664464451735, "trialdata": {"rt": 815, "stimulus": "<p id='stroop-text' class='stroop-yellow'>YELLOW</p>", "response": "y", "stimulus-type": "congruent", "word": "yellow", "color": "yellow", "correct_response": "y", "trial_id": "stroop-trial-1-congruent-13", "trial_type": "html-keyboard-response", "trial_index": 43, "time_elapsed": 317841, "internal_node_id": "0.0-4.0-39.0"}}, {"uniqueid": "w60586713:a41931176", "current_trial": 44, "dateTime": 1664464453893, "trialdata": {"rt": 1648, "stimulus": "<p id='stroop-text' class='stroop-red'>MONKEY</p>", "response": "r", "stimulus-type": "unrelated", "word": "MONKEY", "color": "red", "correct_response": "r", "trial_id": "stroop-trial-1-unrelated-26", "trial_type": "html-keyboard-response", "trial_index": 44, "time_elapsed": 320000, "internal_node_id": "0.0-4.0-40.0"}}, {"uniqueid": "w60586713:a41931176", "current_trial": 45, "dateTime": 1664464455915, "trialdata": {"rt": 1509, "stimulus": "<p id='stroop-text' class='stroop-yellow'>BOTTLE</p>", "response": "y", "stimulus-type": "unrelated", "word": "BOTTLE", "color": "yellow", "correct_response": "y", "trial_id": "stroop-trial-1-unrelated-14", "trial_type": "html-keyboard-response", "trial_index": 45, "time_elapsed": 322021, "internal_node_id": "0.0-4.0-41.0"}}, {"uniqueid": "w60586713:a41931176", "current_trial": 46, "dateTime": 1664464457736, "trialdata": {"rt": 1309, "stimulus": "<p id='stroop-text' class='stroop-green'>MONKEY</p>", "response": "g", "stimulus-type": "unrelated", "word": "MONKEY", "color": "green", "correct_response": "g", "trial_id": "stroop-trial-1-unrelated-15", "trial_type": "html-keyboard-response", "trial_index": 46, "time_elapsed": 323842, "internal_node_id": "0.0-4.0-42.0"}}, {"uniqueid": "w60586713:a41931176", "current_trial": 47, "dateTime": 1664464459207, "trialdata": {"rt": 964, "stimulus": "<p id='stroop-text' class='stroop-green'>FORK</p>", "response": "g", "stimulus-type": "unrelated", "word": "FORK", "color": "green", "correct_response": "g", "trial_id": "stroop-trial-1-unrelated-9", "trial_type": "html-keyboard-response", "trial_index": 47, "time_elapsed": 325314, "internal_node_id": "0.0-4.0-43.0"}}, {"uniqueid": "w60586713:a41931176", "current_trial": 48, "dateTime": 1664464460493, "trialdata": {"rt": 777, "stimulus": "<p id='stroop-text' class='stroop-green'>WINDOW</p>", "response": "g", "stimulus-type": "unrelated", "word": "WINDOW", "color": "green", "correct_response": "g", "trial_id": "stroop-trial-1-unrelated-21", "trial_type": "html-keyboard-response", "trial_index": 48, "time_elapsed": 326599, "internal_node_id": "0.0-4.0-44.0"}}, {"uniqueid": "w60586713:a41931176", "current_trial": 49, "dateTime": 1664464462814, "trialdata": {"rt": 1807, "stimulus": "<p id='stroop-text' class='stroop-red'>BRAIN</p>", "response": "r", "stimulus-type": "unrelated", "word": "BRAIN", "color": "red", "correct_response": "r", "trial_id": "stroop-trial-1-unrelated-29", "trial_type": "html-keyboard-response", "trial_index": 49, "time_elapsed": 328918, "internal_node_id": "0.0-4.0-45.0"}}, {"uniqueid": "w60586713:a41931176", "current_trial": 50, "dateTime": 1664464464372, "trialdata": {"rt": 1045, "stimulus": "<p id='stroop-text' class='stroop-yellow'>BLUE</p>", "response": "y", "stimulus-type": "incongruent", "word": "blue", "color": "yellow", "correct_response": "y", "trial_id": "stroop-trial-1-incongruent-29", "trial_type": "html-keyboard-response", "trial_index": 50, "time_elapsed": 330479, "internal_node_id": "0.0-4.0-46.0"}}, {"uniqueid": "w60586713:a41931176", "current_trial": 51, "dateTime": 1664464466374, "trialdata": {"rt": 1494, "stimulus": "<p id='stroop-text' class='stroop-red'>RED</p>", "response": "r", "stimulus-type": "congruent", "word": "red", "color": "red", "correct_response": "r", "trial_id": "stroop-trial-1-congruent-16", "trial_type": "html-keyboard-response", "trial_index": 51, "time_elapsed": 332480, "internal_node_id": "0.0-4.0-47.0"}}, {"uniqueid": "w60586713:a41931176", "current_trial": 52, "dateTime": 1664464468774, "trialdata": {"rt": 1891, "stimulus": "<p id='stroop-text' class='stroop-yellow'>BLUE</p>", "response": "y", "stimulus-type": "incongruent", "word": "blue", "color": "yellow", "correct_response": "y", "trial_id": "stroop-trial-1-incongruent-14", "trial_type": "html-keyboard-response", "trial_index": 52, "time_elapsed": 334880, "internal_node_id": "0.0-4.0-48.0"}}, {"uniqueid": "w60586713:a41931176", "current_trial": 53, "dateTime": 1664464470729, "trialdata": {"rt": 1446, "stimulus": "<p id='stroop-text' class='stroop-red'>CHAIR</p>", "response": "r", "stimulus-type": "unrelated", "word": "CHAIR", "color": "red", "correct_response": "r", "trial_id": "stroop-trial-1-unrelated-28", "trial_type": "html-keyboard-response", "trial_index": 53, "time_elapsed": 336835, "internal_node_id": "0.0-4.0-49.0"}}, {"uniqueid": "w60586713:a41931176", "current_trial": 54, "dateTime": 1664464472936, "trialdata": {"rt": 1693, "stimulus": "<p id='stroop-text' class='stroop-red'>GREEN</p>", "response": "r", "stimulus-type": "incongruent", "word": "green", "color": "red", "correct_response": "r", "trial_id": "stroop-trial-1-incongruent-3", "trial_type": "html-keyboard-response", "trial_index": 54, "time_elapsed": 339040, "internal_node_id": "0.0-4.0-50.0"}}, {"uniqueid": "w60586713:a41931176", "current_trial": 55, "dateTime": 1664464474226, "trialdata": {"rt": 777, "stimulus": "<p id='stroop-text' class='stroop-red'>RED</p>", "response": "r", "stimulus-type": "congruent", "word": "red", "color": "red", "correct_response": "r", "trial_id": "stroop-trial-1-congruent-30", "trial_type": "html-keyboard-response", "trial_index": 55, "time_elapsed": 340333, "internal_node_id": "0.0-4.0-51.0"}}, {"uniqueid": "w60586713:a41931176", "current_trial": 56, "dateTime": 1664464476503, "trialdata": {"rt": 1765, "stimulus": "<p id='stroop-text' class='stroop-red'>RED</p>", "response": "r", "stimulus-type": "congruent", "word": "red", "color": "red", "correct_response": "r", "trial_id": "stroop-trial-1-congruent-18", "trial_type": "html-keyboard-response", "trial_index": 56, "time_elapsed": 342607, "internal_node_id": "0.0-4.0-52.0"}}, {"uniqueid": "w60586713:a41931176", "current_trial": 57, "dateTime": 1664464478211, "trialdata": {"rt": 1192, "stimulus": "<p id='stroop-text' class='stroop-blue'>BRIDGE</p>", "response": "b", "stimulus-type": "unrelated", "word": "BRIDGE", "color": "blue", "correct_response": "b", "trial_id": "stroop-trial-1-unrelated-12", "trial_type": "html-keyboard-response", "trial_index": 57, "time_elapsed": 344317, "internal_node_id": "0.0-4.0-53.0"}}, {"uniqueid": "w60586713:a41931176", "current_trial": 58, "dateTime": 1664464479596, "trialdata": {"rt": 877, "stimulus": "<p id='stroop-text' class='stroop-red'>DOG</p>", "response": "r", "stimulus-type": "unrelated", "word": "DOG", "color": "red", "correct_response": "r", "trial_id": "stroop-trial-1-unrelated-4", "trial_type": "html-keyboard-response", "trial_index": 58, "time_elapsed": 345702, "internal_node_id": "0.0-4.0-54.0"}}, {"uniqueid": "w60586713:a41931176", "current_trial": 59, "dateTime": 1664464481695, "trialdata": {"rt": 1585, "stimulus": "<p id='stroop-text' class='stroop-green'>GREEN</p>", "response": "g", "stimulus-type": "congruent", "word": "green", "color": "green", "correct_response": "g", "trial_id": "stroop-trial-1-congruent-19", "trial_type": "html-keyboard-response", "trial_index": 59, "time_elapsed": 347801, "internal_node_id": "0.0-4.0-55.0"}}, {"uniqueid": "w60586713:a41931176", "current_trial": 60, "dateTime": 1664464483008, "trialdata": {"rt": 798, "stimulus": "<p id='stroop-text' class='stroop-green'>GREEN</p>", "response": "g", "stimulus-type": "congruent", "word": "green", "color": "green", "correct_response": "g", "trial_id": "stroop-trial-1-congruent-20", "trial_type": "html-keyboard-response", "trial_index": 60, "time_elapsed": 349114, "internal_node_id": "0.0-4.0-56.0"}}, {"uniqueid": "w60586713:a41931176", "current_trial": 61, "dateTime": 1664464484384, "trialdata": {"rt": 857, "stimulus": "<p id='stroop-text' class='stroop-red'>RED</p>", "response": "r", "stimulus-type": "congruent", "word": "red", "color": "red", "correct_response": "r", "trial_id": "stroop-trial-1-congruent-25", "trial_type": "html-keyboard-response", "trial_index": 61, "time_elapsed": 350490, "internal_node_id": "0.0-4.0-57.0"}}, {"uniqueid": "w60586713:a41931176", "current_trial": 62, "dateTime": 1664464486120, "trialdata": {"rt": 1222, "stimulus": "<p id='stroop-text' class='stroop-red'>BRAIN</p>", "response": "r", "stimulus-type": "unrelated", "word": "BRAIN", "color": "red", "correct_response": "r", "trial_id": "stroop-trial-1-unrelated-24", "trial_type": "html-keyboard-response", "trial_index": 62, "time_elapsed": 352227, "internal_node_id": "0.0-4.0-58.0"}}, {"uniqueid": "w60586713:a41931176", "current_trial": 63, "dateTime": 1664464487624, "trialdata": {"rt": 996, "stimulus": "<p id='stroop-text' class='stroop-blue'>BLUE</p>", "response": "b", "stimulus-type": "congruent", "word": "blue", "color": "blue", "correct_response": "b", "trial_id": "stroop-trial-1-congruent-5", "trial_type": "html-keyboard-response", "trial_index": 63, "time_elapsed": 353730, "internal_node_id": "0.0-4.0-59.0"}}, {"uniqueid": "w60586713:a41931176", "current_trial": 64, "dateTime": 1664464488653, "trialdata": {"rt": 518, "stimulus": "<p id='stroop-text' class='stroop-blue'>BRAIN</p>", "response": "b", "stimulus-type": "unrelated", "word": "BRAIN", "color": "blue", "correct_response": "b", "trial_id": "stroop-trial-1-unrelated-10", "trial_type": "html-keyboard-response", "trial_index": 64, "time_elapsed": 354758, "internal_node_id": "0.0-4.0-60.0"}}, {"uniqueid": "w60586713:a41931176", "current_trial": 65, "dateTime": 1664464490007, "trialdata": {"rt": 838, "stimulus": "<p id='stroop-text' class='stroop-yellow'>YELLOW</p>", "response": "y", "stimulus-type": "congruent", "word": "yellow", "color": "yellow", "correct_response": "y", "trial_id": "stroop-trial-1-congruent-4", "trial_type": "html-keyboard-response", "trial_index": 65, "time_elapsed": 356114, "internal_node_id": "0.0-4.0-61.0"}}, {"uniqueid": "w60586713:a41931176", "current_trial": 66, "dateTime": 1664464491664, "trialdata": {"rt": 1145, "stimulus": "<p id='stroop-text' class='stroop-green'>BOTTLE</p>", "response": "g", "stimulus-type": "unrelated", "word": "BOTTLE", "color": "green", "correct_response": "g", "trial_id": "stroop-trial-1-unrelated-16", "trial_type": "html-keyboard-response", "trial_index": 66, "time_elapsed": 357770, "internal_node_id": "0.0-4.0-62.0"}}, {"uniqueid": "w60586713:a41931176", "current_trial": 67, "dateTime": 1664464494346, "trialdata": {"rt": 2166, "stimulus": "<p id='stroop-text' class='stroop-blue'>DOG</p>", "response": "b", "stimulus-type": "unrelated", "word": "DOG", "color": "blue", "correct_response": "b", "trial_id": "stroop-trial-1-unrelated-18", "trial_type": "html-keyboard-response", "trial_index": 67, "time_elapsed": 360452, "internal_node_id": "0.0-4.0-63.0"}}, {"uniqueid": "w60586713:a41931176", "current_trial": 68, "dateTime": 1664464495872, "trialdata": {"rt": 1005, "stimulus": "<p id='stroop-text' class='stroop-yellow'>RED</p>", "response": "r", "stimulus-type": "incongruent", "word": "red", "color": "yellow", "correct_response": "y", "trial_id": "stroop-trial-1-incongruent-24", "trial_type": "html-keyboard-response", "trial_index": 68, "time_elapsed": 361978, "internal_node_id": "0.0-4.0-64.0"}}, {"uniqueid": "w60586713:a41931176", "current_trial": 69, "dateTime": 1664464498473, "trialdata": {"rt": 2081, "stimulus": "<p id='stroop-text' class='stroop-blue'>YELLOW</p>", "response": "b", "stimulus-type": "incongruent", "word": "yellow", "color": "blue", "correct_response": "b", "trial_id": "stroop-trial-1-incongruent-25", "trial_type": "html-keyboard-response", "trial_index": 69, "time_elapsed": 364579, "internal_node_id": "0.0-4.0-65.0"}}, {"uniqueid": "w60586713:a41931176", "current_trial": 70, "dateTime": 1664464502912, "trialdata": {"rt": 3932, "stimulus": "<p id='stroop-text' class='stroop-red'>STONE</p>", "response": "r", "stimulus-type": "unrelated", "word": "STONE", "color": "red", "correct_response": "r", "trial_id": "stroop-trial-1-unrelated-7", "trial_type": "html-keyboard-response", "trial_index": 70, "time_elapsed": 369018, "internal_node_id": "0.0-4.0-66.0"}}, {"uniqueid": "w60586713:a41931176", "current_trial": 71, "dateTime": 1664464504755, "trialdata": {"rt": 1329, "stimulus": "<p id='stroop-text' class='stroop-blue'>GREEN</p>", "response": "g", "stimulus-type": "incongruent", "word": "green", "color": "blue", "correct_response": "b", "trial_id": "stroop-trial-1-incongruent-19", "trial_type": "html-keyboard-response", "trial_index": 71, "time_elapsed": 370861, "internal_node_id": "0.0-4.0-67.0"}}, {"uniqueid": "w60586713:a41931176", "current_trial": 72, "dateTime": 1664464508837, "trialdata": {"rt": 3568, "stimulus": "<p id='stroop-text' class='stroop-red'>BLUE</p>", "response": "r", "stimulus-type": "incongruent", "word": "blue", "color": "red", "correct_response": "r", "trial_id": "stroop-trial-1-incongruent-21", "trial_type": "html-keyboard-response", "trial_index": 72, "time_elapsed": 374943, "internal_node_id": "0.0-4.0-68.0"}}, {"uniqueid": "w60586713:a41931176", "current_trial": 73, "dateTime": 1664464510312, "trialdata": {"rt": 962, "stimulus": "<p id='stroop-text' class='stroop-yellow'>YELLOW</p>", "response": "y", "stimulus-type": "congruent", "word": "yellow", "color": "yellow", "correct_response": "y", "trial_id": "stroop-trial-1-congruent-10", "trial_type": "html-keyboard-response", "trial_index": 73, "time_elapsed": 376418, "internal_node_id": "0.0-4.0-69.0"}}, {"uniqueid": "w60586713:a41931176", "current_trial": 74, "dateTime": 1664464511967, "trialdata": {"rt": 1134, "stimulus": "<p id='stroop-text' class='stroop-yellow'>GREEN</p>", "response": "y", "stimulus-type": "incongruent", "word": "green", "color": "yellow", "correct_response": "y", "trial_id": "stroop-trial-1-incongruent-13", "trial_type": "html-keyboard-response", "trial_index": 74, "time_elapsed": 378073, "internal_node_id": "0.0-4.0-70.0"}}, {"uniqueid": "w60586713:a41931176", "current_trial": 75, "dateTime": 1664464513506, "trialdata": {"rt": 1021, "stimulus": "<p id='stroop-text' class='stroop-green'>GREEN</p>", "response": "g", "stimulus-type": "congruent", "word": "green", "color": "green", "correct_response": "g", "trial_id": "stroop-trial-1-congruent-6", "trial_type": "html-keyboard-response", "trial_index": 75, "time_elapsed": 379612, "internal_node_id": "0.0-4.0-71.0"}}, {"uniqueid": "w60586713:a41931176", "current_trial": 76, "dateTime": 1664464515387, "trialdata": {"rt": 1367, "stimulus": "<p id='stroop-text' class='stroop-blue'>RED</p>", "response": "b", "stimulus-type": "incongruent", "word": "red", "color": "blue", "correct_response": "b", "trial_id": "stroop-trial-1-incongruent-27", "trial_type": "html-keyboard-response", "trial_index": 76, "time_elapsed": 381491, "internal_node_id": "0.0-4.0-72.0"}}, {"uniqueid": "w60586713:a41931176", "current_trial": 77, "dateTime": 1664464516442, "trialdata": {"rt": 542, "stimulus": "<p id='stroop-text' class='stroop-blue'>RED</p>", "response": "b", "stimulus-type": "incongruent", "word": "red", "color": "blue", "correct_response": "b", "trial_id": "stroop-trial-1-incongruent-4", "trial_type": "html-keyboard-response", "trial_index": 77, "time_elapsed": 382548, "internal_node_id": "0.0-4.0-73.0"}}, {"uniqueid": "w60586713:a41931176", "current_trial": 78, "dateTime": 1664464518173, "trialdata": {"rt": 1221, "stimulus": "<p id='stroop-text' class='stroop-yellow'>GREEN</p>", "response": "y", "stimulus-type": "incongruent", "word": "green", "color": "yellow", "correct_response": "y", "trial_id": "stroop-trial-1-incongruent-10", "trial_type": "html-keyboard-response", "trial_index": 78, "time_elapsed": 384279, "internal_node_id": "0.0-4.0-74.0"}}, {"uniqueid": "w60586713:a41931176", "current_trial": 79, "dateTime": 1664464519212, "trialdata": {"rt": 525, "stimulus": "<p id='stroop-text' class='stroop-yellow'>YELLOW</p>", "response": "y", "stimulus-type": "congruent", "word": "yellow", "color": "yellow", "correct_response": "y", "trial_id": "stroop-trial-1-congruent-3", "trial_type": "html-keyboard-response", "trial_index": 79, "time_elapsed": 385318, "internal_node_id": "0.0-4.0-75.0"}}, {"uniqueid": "w60586713:a41931176", "current_trial": 80, "dateTime": 1664464520856, "trialdata": {"rt": 1137, "stimulus": "<p id='stroop-text' class='stroop-green'>GREEN</p>", "response": "g", "stimulus-type": "congruent", "word": "green", "color": "green", "correct_response": "g", "trial_id": "stroop-trial-1-congruent-2", "trial_type": "html-keyboard-response", "trial_index": 80, "time_elapsed": 386963, "internal_node_id": "0.0-4.0-76.0"}}, {"uniqueid": "w60586713:a41931176", "current_trial": 81, "dateTime": 1664464521932, "trialdata": {"rt": 563, "stimulus": "<p id='stroop-text' class='stroop-green'>FORK</p>", "response": "g", "stimulus-type": "unrelated", "word": "FORK", "color": "green", "correct_response": "g", "trial_id": "stroop-trial-1-unrelated-2", "trial_type": "html-keyboard-response", "trial_index": 81, "time_elapsed": 388038, "internal_node_id": "0.0-4.0-77.0"}}, {"uniqueid": "w60586713:a41931176", "current_trial": 82, "dateTime": 1664464523463, "trialdata": {"rt": 1022, "stimulus": "<p id='stroop-text' class='stroop-blue'>WINDOW</p>", "response": "b", "stimulus-type": "unrelated", "word": "WINDOW", "color": "blue", "correct_response": "b", "trial_id": "stroop-trial-1-unrelated-22", "trial_type": "html-keyboard-response", "trial_index": 82, "time_elapsed": 389570, "internal_node_id": "0.0-4.0-78.0"}}, {"uniqueid": "w60586713:a41931176", "current_trial": 83, "dateTime": 1664464524356, "trialdata": {"rt": 382, "stimulus": "<p id='stroop-text' class='stroop-blue'>BRIDGE</p>", "response": "b", "stimulus-type": "unrelated", "word": "BRIDGE", "color": "blue", "correct_response": "b", "trial_id": "stroop-trial-1-unrelated-25", "trial_type": "html-keyboard-response", "trial_index": 83, "time_elapsed": 390462, "internal_node_id": "0.0-4.0-79.0"}}, {"uniqueid": "w60586713:a41931176", "current_trial": 84, "dateTime": 1664464526006, "trialdata": {"rt": 1138, "stimulus": "<p id='stroop-text' class='stroop-green'>GREEN</p>", "response": "g", "stimulus-type": "congruent", "word": "green", "color": "green", "correct_response": "g", "trial_id": "stroop-trial-1-congruent-14", "trial_type": "html-keyboard-response", "trial_index": 84, "time_elapsed": 392112, "internal_node_id": "0.0-4.0-80.0"}}, {"uniqueid": "w60586713:a41931176", "current_trial": 85, "dateTime": 1664464527543, "trialdata": {"rt": 1027, "stimulus": "<p id='stroop-text' class='stroop-red'>SHIP</p>", "response": "r", "stimulus-type": "unrelated", "word": "SHIP", "color": "red", "correct_response": "r", "trial_id": "stroop-trial-1-unrelated-6", "trial_type": "html-keyboard-response", "trial_index": 85, "time_elapsed": 393649, "internal_node_id": "0.0-4.0-81.0"}}, {"uniqueid": "w60586713:a41931176", "current_trial": 86, "dateTime": 1664464528943, "trialdata": {"rt": 893, "stimulus": "<p id='stroop-text' class='stroop-green'>GREEN</p>", "response": "g", "stimulus-type": "congruent", "word": "green", "color": "green", "correct_response": "g", "trial_id": "stroop-trial-1-congruent-9", "trial_type": "html-keyboard-response", "trial_index": 86, "time_elapsed": 395049, "internal_node_id": "0.0-4.0-82.0"}}, {"uniqueid": "w60586713:a41931176", "current_trial": 87, "dateTime": 1664464530743, "trialdata": {"rt": 1281, "stimulus": "<p id='stroop-text' class='stroop-red'>BOTTLE</p>", "response": "b", "stimulus-type": "unrelated", "word": "BOTTLE", "color": "red", "correct_response": "r", "trial_id": "stroop-trial-1-unrelated-13", "trial_type": "html-keyboard-response", "trial_index": 87, "time_elapsed": 396849, "internal_node_id": "0.0-4.0-83.0"}}, {"uniqueid": "w60586713:a41931176", "current_trial": 88, "dateTime": 1664464534493, "trialdata": {"rt": 3240, "stimulus": "<p id='stroop-text' class='stroop-yellow'>BLUE</p>", "response": "y", "stimulus-type": "incongruent", "word": "blue", "color": "yellow", "correct_response": "y", "trial_id": "stroop-trial-1-incongruent-6", "trial_type": "html-keyboard-response", "trial_index": 88, "time_elapsed": 400600, "internal_node_id": "0.0-4.0-84.0"}}, {"uniqueid": "w60586713:a41931176", "current_trial": 89, "dateTime": 1664464535821, "trialdata": {"rt": 819, "stimulus": "<p id='stroop-text' class='stroop-yellow'>GREEN</p>", "response": "y", "stimulus-type": "incongruent", "word": "green", "color": "yellow", "correct_response": "y", "trial_id": "stroop-trial-1-incongruent-26", "trial_type": "html-keyboard-response", "trial_index": 89, "time_elapsed": 401927, "internal_node_id": "0.0-4.0-85.0"}}, {"uniqueid": "w60586713:a41931176", "current_trial": 90, "dateTime": 1664464537812, "trialdata": {"rt": 1482, "stimulus": "<p id='stroop-text' class='stroop-red'>YELLOW</p>", "response": "r", "stimulus-type": "incongruent", "word": "yellow", "color": "red", "correct_response": "r", "trial_id": "stroop-trial-1-incongruent-22", "trial_type": "html-keyboard-response", "trial_index": 90, "time_elapsed": 403919, "internal_node_id": "0.0-4.0-86.0"}}, {"uniqueid": "w60586713:a41931176", "current_trial": 91, "dateTime": 1664464540230, "trialdata": {"rt": 1903, "stimulus": "<p id='stroop-text' class='stroop-green'>DOG</p>", "response": "g", "stimulus-type": "unrelated", "word": "DOG", "color": "green", "correct_response": "g", "trial_id": "stroop-trial-1-unrelated-19", "trial_type": "html-keyboard-response", "trial_index": 91, "time_elapsed": 406337, "internal_node_id": "0.0-4.0-87.0"}}, {"uniqueid": "w60586713:a41931176", "current_trial": 92, "dateTime": 1664464541307, "trialdata": {"rt": 562, "stimulus": "<p id='stroop-text' class='stroop-green'>MONKEY</p>", "response": "g", "stimulus-type": "unrelated", "word": "MONKEY", "color": "green", "correct_response": "g", "trial_id": "stroop-trial-1-unrelated-20", "trial_type": "html-keyboard-response", "trial_index": 92, "time_elapsed": 407413, "internal_node_id": "0.0-4.0-88.0"}}, {"uniqueid": "w60586713:a41931176", "current_trial": 93, "dateTime": 1664464542740, "trialdata": {"rt": 920, "stimulus": "<p id='stroop-text' class='stroop-yellow'>YELLOW</p>", "response": "y", "stimulus-type": "congruent", "word": "yellow", "color": "yellow", "correct_response": "y", "trial_id": "stroop-trial-1-congruent-12", "trial_type": "html-keyboard-response", "trial_index": 93, "time_elapsed": 408846, "internal_node_id": "0.0-4.0-89.0"}}, {"uniqueid": "w60586713:a41931176", "current_trial": 94, "dateTime": 1664464548972, "trialdata": {"rt": 5713, "stimulus": "  <h1> End of block! </h1>\n\n  You have reached the end of the block 1/5. If you need a short break, feel free to take one now before moving on.\n\n  <br><br>\n  In the next block, you will complete another 90 rounds of this game.\n\n  <br><br>\n  <div style='text-align: center;'>Press <code>space</code> to begin.</div>\n  <br><br>\n<div style='text-align: center;'>(If the experiment doesn't continue, try clicking on the text and then pressing <code>space</code>.)</div>", "response": " ", "trial_id": "stroop_1_ready_2", "trial_type": "html-keyboard-response", "trial_index": 94, "time_elapsed": 415079, "internal_node_id": "0.0-5.0"}}, {"uniqueid": "w60586713:a41931176", "current_trial": 95, "dateTime": 1664464550980, "trialdata": {"rt": 1993, "stimulus": "<p id='stroop-text' class='stroop-blue'>RED</p>", "response": "b", "stimulus-type": "incongruent", "word": "red", "color": "blue", "correct_response": "b", "trial_id": "stroop-trial-1-incongruent-23", "trial_type": "html-keyboard-response", "trial_index": 95, "time_elapsed": 417086, "internal_node_id": "0.0-6.0-0.0"}}, {"uniqueid": "w60586713:a41931176", "current_trial": 96, "dateTime": 1664464552401, "trialdata": {"rt": 911, "stimulus": "<p id='stroop-text' class='stroop-green'>GREEN</p>", "response": "g", "stimulus-type": "congruent", "word": "green", "color": "green", "correct_response": "g", "trial_id": "stroop-trial-1-congruent-24", "trial_type": "html-keyboard-response", "trial_index": 96, "time_elapsed": 418507, "internal_node_id": "0.0-6.0-1.0"}}, {"uniqueid": "w60586713:a41931176", "current_trial": 97, "dateTime": 1664464554401, "trialdata": {"rt": 1485, "stimulus": "<p id='stroop-text' class='stroop-yellow'>CHAIR</p>", "response": "y", "stimulus-type": "unrelated", "word": "CHAIR", "color": "yellow", "correct_response": "y", "trial_id": "stroop-trial-1-unrelated-8", "trial_type": "html-keyboard-response", "trial_index": 97, "time_elapsed": 420507, "internal_node_id": "0.0-6.0-2.0"}}, {"uniqueid": "w60586713:a41931176", "current_trial": 98, "dateTime": 1664464556089, "trialdata": {"rt": 1167, "stimulus": "<p id='stroop-text' class='stroop-blue'>DOG</p>", "response": "b", "stimulus-type": "unrelated", "word": "DOG", "color": "blue", "correct_response": "b", "trial_id": "stroop-trial-1-unrelated-17", "trial_type": "html-keyboard-response", "trial_index": 98, "time_elapsed": 422195, "internal_node_id": "0.0-6.0-3.0"}}, {"uniqueid": "w60586713:a41931176", "current_trial": 99, "dateTime": 1664464557456, "trialdata": {"rt": 856, "stimulus": "<p id='stroop-text' class='stroop-blue'>BLUE</p>", "response": "b", "stimulus-type": "congruent", "word": "blue", "color": "blue", "correct_response": "b", "trial_id": "stroop-trial-1-congruent-17", "trial_type": "html-keyboard-response", "trial_index": 99, "time_elapsed": 423560, "internal_node_id": "0.0-6.0-4.0"}}, {"uniqueid": "w60586713:a41931176", "current_trial": 100, "dateTime": 1664464561335, "trialdata": {"rt": 3366, "stimulus": "<p id='stroop-text' class='stroop-red'>BLUE</p>", "response": "r", "stimulus-type": "incongruent", "word": "blue", "color": "red", "correct_response": "r", "trial_id": "stroop-trial-1-incongruent-25", "trial_type": "html-keyboard-response", "trial_index": 100, "time_elapsed": 427441, "internal_node_id": "0.0-6.0-5.0"}}, {"uniqueid": "w60586713:a41931176", "current_trial": 101, "dateTime": 1664464562714, "trialdata": {"rt": 862, "stimulus": "<p id='stroop-text' class='stroop-yellow'>YELLOW</p>", "response": "y", "stimulus-type": "congruent", "word": "yellow", "color": "yellow", "correct_response": "y", "trial_id": "stroop-trial-1-congruent-11", "trial_type": "html-keyboard-response", "trial_index": 101, "time_elapsed": 428820, "internal_node_id": "0.0-6.0-6.0"}}, {"uniqueid": "w60586713:a41931176", "current_trial": 102, "dateTime": 1664464564547, "trialdata": {"rt": 1319, "stimulus": "<p id='stroop-text' class='stroop-blue'>BRAIN</p>", "response": "b", "stimulus-type": "unrelated", "word": "BRAIN", "color": "blue", "correct_response": "b", "trial_id": "stroop-trial-1-unrelated-13", "trial_type": "html-keyboard-response", "trial_index": 102, "time_elapsed": 430653, "internal_node_id": "0.0-6.0-7.0"}}, {"uniqueid": "w60586713:a41931176", "current_trial": 103, "dateTime": 1664464566159, "trialdata": {"rt": 1099, "stimulus": "<p id='stroop-text' class='stroop-yellow'>YELLOW</p>", "response": "y", "stimulus-type": "congruent", "word": "yellow", "color": "yellow", "correct_response": "y", "trial_id": "stroop-trial-1-congruent-6", "trial_type": "html-keyboard-response", "trial_index": 103, "time_elapsed": 432266, "internal_node_id": "0.0-6.0-8.0"}}, {"uniqueid": "w60586713:a41931176", "current_trial": 104, "dateTime": 1664464567794, "trialdata": {"rt": 1117, "stimulus": "<p id='stroop-text' class='stroop-blue'>BLUE</p>", "response": "b", "stimulus-type": "congruent", "word": "blue", "color": "blue", "correct_response": "b", "trial_id": "stroop-trial-1-congruent-28", "trial_type": "html-keyboard-response", "trial_index": 104, "time_elapsed": 433901, "internal_node_id": "0.0-6.0-9.0"}}, {"uniqueid": "w60586713:a41931176", "current_trial": 105, "dateTime": 1664464569395, "trialdata": {"rt": 1078, "stimulus": "<p id='stroop-text' class='stroop-yellow'>BLUE</p>", "response": "y", "stimulus-type": "incongruent", "word": "blue", "color": "yellow", "correct_response": "y", "trial_id": "stroop-trial-1-incongruent-11", "trial_type": "html-keyboard-response", "trial_index": 105, "time_elapsed": 435500, "internal_node_id": "0.0-6.0-10.0"}}, {"uniqueid": "w60586713:a41931176", "current_trial": 106, "dateTime": 1664464570802, "trialdata": {"rt": 891, "stimulus": "<p id='stroop-text' class='stroop-yellow'>SHIP</p>", "response": "y", "stimulus-type": "unrelated", "word": "SHIP", "color": "yellow", "correct_response": "y", "trial_id": "stroop-trial-1-unrelated-27", "trial_type": "html-keyboard-response", "trial_index": 106, "time_elapsed": 436908, "internal_node_id": "0.0-6.0-11.0"}}, {"uniqueid": "w60586713:a41931176", "current_trial": 107, "dateTime": 1664464572074, "trialdata": {"rt": 755, "stimulus": "<p id='stroop-text' class='stroop-yellow'>GREEN</p>", "response": "y", "stimulus-type": "incongruent", "word": "green", "color": "yellow", "correct_response": "y", "trial_id": "stroop-trial-1-incongruent-24", "trial_type": "html-keyboard-response", "trial_index": 107, "time_elapsed": 438180, "internal_node_id": "0.0-6.0-12.0"}}, {"uniqueid": "w60586713:a41931176", "current_trial": 108, "dateTime": 1664464573935, "trialdata": {"rt": 1348, "stimulus": "<p id='stroop-text' class='stroop-green'>BOAT</p>", "response": "g", "stimulus-type": "unrelated", "word": "BOAT", "color": "green", "correct_response": "g", "trial_id": "stroop-trial-1-unrelated-19", "trial_type": "html-keyboard-response", "trial_index": 108, "time_elapsed": 440042, "internal_node_id": "0.0-6.0-13.0"}}, {"uniqueid": "w60586713:a41931176", "current_trial": 109, "dateTime": 1664464576700, "trialdata": {"rt": 2255, "stimulus": "<p id='stroop-text' class='stroop-yellow'>RED</p>", "response": "y", "stimulus-type": "incongruent", "word": "red", "color": "yellow", "correct_response": "y", "trial_id": "stroop-trial-1-incongruent-12", "trial_type": "html-keyboard-response", "trial_index": 109, "time_elapsed": 442807, "internal_node_id": "0.0-6.0-14.0"}}, {"uniqueid": "w60586713:a41931176", "current_trial": 110, "dateTime": 1664464578284, "trialdata": {"rt": 1065, "stimulus": "<p id='stroop-text' class='stroop-red'>RED</p>", "response": "r", "stimulus-type": "congruent", "word": "red", "color": "red", "correct_response": "r", "trial_id": "stroop-trial-1-congruent-22", "trial_type": "html-keyboard-response", "trial_index": 110, "time_elapsed": 444390, "internal_node_id": "0.0-6.0-15.0"}}, {"uniqueid": "w60586713:a41931176", "current_trial": 111, "dateTime": 1664464581664, "trialdata": {"rt": 2854, "stimulus": "<p id='stroop-text' class='stroop-green'>RED</p>", "response": "g", "stimulus-type": "incongruent", "word": "red", "color": "green", "correct_response": "g", "trial_id": "stroop-trial-1-incongruent-1", "trial_type": "html-keyboard-response", "trial_index": 111, "time_elapsed": 447770, "internal_node_id": "0.0-6.0-16.0"}}, {"uniqueid": "w60586713:a41931176", "current_trial": 112, "dateTime": 1664464584070, "trialdata": {"rt": 1892, "stimulus": "<p id='stroop-text' class='stroop-red'>BLUE</p>", "response": "r", "stimulus-type": "incongruent", "word": "blue", "color": "red", "correct_response": "r", "trial_id": "stroop-trial-1-incongruent-26", "trial_type": "html-keyboard-response", "trial_index": 112, "time_elapsed": 450176, "internal_node_id": "0.0-6.0-17.0"}}, {"uniqueid": "w60586713:a41931176", "current_trial": 113, "dateTime": 1664464589066, "trialdata": {"rt": 4485, "stimulus": "<p id='stroop-text' class='stroop-blue'>BLUE</p>", "response": "b", "stimulus-type": "congruent", "word": "blue", "color": "blue", "correct_response": "b", "trial_id": "stroop-trial-1-congruent-18", "trial_type": "html-keyboard-response", "trial_index": 113, "time_elapsed": 455172, "internal_node_id": "0.0-6.0-18.0"}}, {"uniqueid": "w60586713:a41931176", "current_trial": 114, "dateTime": 1664464590142, "trialdata": {"rt": 561, "stimulus": "<p id='stroop-text' class='stroop-blue'>BLUE</p>", "response": "b", "stimulus-type": "congruent", "word": "blue", "color": "blue", "correct_response": "b", "trial_id": "stroop-trial-1-congruent-30", "trial_type": "html-keyboard-response", "trial_index": 114, "time_elapsed": 456248, "internal_node_id": "0.0-6.0-19.0"}}, {"uniqueid": "w60586713:a41931176", "current_trial": 115, "dateTime": 1664464592276, "trialdata": {"rt": 1620, "stimulus": "<p id='stroop-text' class='stroop-yellow'>BLUE</p>", "response": "y", "stimulus-type": "incongruent", "word": "blue", "color": "yellow", "correct_response": "y", "trial_id": "stroop-trial-1-incongruent-10", "trial_type": "html-keyboard-response", "trial_index": 115, "time_elapsed": 458382, "internal_node_id": "0.0-6.0-20.0"}}, {"uniqueid": "w60586713:a41931176", "current_trial": 116, "dateTime": 1664464593859, "trialdata": {"rt": 1068, "stimulus": "<p id='stroop-text' class='stroop-green'>YELLOW</p>", "response": "g", "stimulus-type": "incongruent", "word": "yellow", "color": "green", "correct_response": "g", "trial_id": "stroop-trial-1-incongruent-2", "trial_type": "html-keyboard-response", "trial_index": 116, "time_elapsed": 459966, "internal_node_id": "0.0-6.0-21.0"}}, {"uniqueid": "w60586713:a41931176", "current_trial": 117, "dateTime": 1664464596947, "trialdata": {"rt": 2567, "stimulus": "<p id='stroop-text' class='stroop-green'>GREEN</p>", "response": "g", "stimulus-type": "congruent", "word": "green", "color": "green", "correct_response": "g", "trial_id": "stroop-trial-1-congruent-2", "trial_type": "html-keyboard-response", "trial_index": 117, "time_elapsed": 463052, "internal_node_id": "0.0-6.0-22.0"}}, {"uniqueid": "w60586713:a41931176", "current_trial": 118, "dateTime": 1664464599624, "trialdata": {"rt": 2160, "stimulus": "<p id='stroop-text' class='stroop-red'>YELLOW</p>", "response": "y", "stimulus-type": "incongruent", "word": "yellow", "color": "red", "correct_response": "r", "trial_id": "stroop-trial-1-incongruent-18", "trial_type": "html-keyboard-response", "trial_index": 118, "time_elapsed": 465728, "internal_node_id": "0.0-6.0-23.0"}}, {"uniqueid": "w60586713:a41931176", "current_trial": 119, "dateTime": 1664464607576, "trialdata": {"rt": 7421, "stimulus": "<p id='stroop-text' class='stroop-blue'>RED</p>", "response": "b", "stimulus-type": "incongruent", "word": "red", "color": "blue", "correct_response": "b", "trial_id": "stroop-trial-1-incongruent-30", "trial_type": "html-keyboard-response", "trial_index": 119, "time_elapsed": 473682, "internal_node_id": "0.0-6.0-24.0"}}, {"uniqueid": "w60586713:a41931176", "current_trial": 120, "dateTime": 1664464609098, "trialdata": {"rt": 1008, "stimulus": "<p id='stroop-text' class='stroop-green'>DOG</p>", "response": "g", "stimulus-type": "unrelated", "word": "DOG", "color": "green", "correct_response": "g", "trial_id": "stroop-trial-1-unrelated-18", "trial_type": "html-keyboard-response", "trial_index": 120, "time_elapsed": 475204, "internal_node_id": "0.0-6.0-25.0"}}, {"uniqueid": "w60586713:a41931176", "current_trial": 121, "dateTime": 1664464611755, "trialdata": {"rt": 2125, "stimulus": "<p id='stroop-text' class='stroop-blue'>RED</p>", "response": "b", "stimulus-type": "incongruent", "word": "red", "color": "blue", "correct_response": "b", "trial_id": "stroop-trial-1-incongruent-21", "trial_type": "html-keyboard-response", "trial_index": 121, "time_elapsed": 477861, "internal_node_id": "0.0-6.0-26.0"}}, {"uniqueid": "w60586713:a41931176", "current_trial": 122, "dateTime": 1664464614743, "trialdata": {"rt": 2471, "stimulus": "<p id='stroop-text' class='stroop-green'>GREEN</p>", "response": "g", "stimulus-type": "congruent", "word": "green", "color": "green", "correct_response": "g", "trial_id": "stroop-trial-1-congruent-25", "trial_type": "html-keyboard-response", "trial_index": 122, "time_elapsed": 480849, "internal_node_id": "0.0-6.0-27.0"}}, {"uniqueid": "w60586713:a41931176", "current_trial": 123, "dateTime": 1664464619044, "trialdata": {"rt": 3784, "stimulus": "<p id='stroop-text' class='stroop-blue'>FORK</p>", "response": "b", "stimulus-type": "unrelated", "word": "FORK", "color": "blue", "correct_response": "b", "trial_id": "stroop-trial-1-unrelated-29", "trial_type": "html-keyboard-response", "trial_index": 123, "time_elapsed": 485150, "internal_node_id": "0.0-6.0-28.0"}}, {"uniqueid": "w60586713:a41931176", "current_trial": 124, "dateTime": 1664464620886, "trialdata": {"rt": 1324, "stimulus": "<p id='stroop-text' class='stroop-red'>RED</p>", "response": "r", "stimulus-type": "congruent", "word": "red", "color": "red", "correct_response": "r", "trial_id": "stroop-trial-1-congruent-27", "trial_type": "html-keyboard-response", "trial_index": 124, "time_elapsed": 486992, "internal_node_id": "0.0-6.0-29.0"}}, {"uniqueid": "w60586713:a41931176", "current_trial": 125, "dateTime": 1664464623286, "trialdata": {"rt": 1886, "stimulus": "<p id='stroop-text' class='stroop-red'>BOTTLE</p>", "response": "r", "stimulus-type": "unrelated", "word": "BOTTLE", "color": "red", "correct_response": "r", "trial_id": "stroop-trial-1-unrelated-16", "trial_type": "html-keyboard-response", "trial_index": 125, "time_elapsed": 489392, "internal_node_id": "0.0-6.0-30.0"}}, {"uniqueid": "w60586713:a41931176", "current_trial": 126, "dateTime": 1664464625030, "trialdata": {"rt": 1233, "stimulus": "<p id='stroop-text' class='stroop-blue'>RED</p>", "response": "b", "stimulus-type": "incongruent", "word": "red", "color": "blue", "correct_response": "b", "trial_id": "stroop-trial-1-incongruent-9", "trial_type": "html-keyboard-response", "trial_index": 126, "time_elapsed": 491136, "internal_node_id": "0.0-6.0-31.0"}}, {"uniqueid": "w60586713:a41931176", "current_trial": 127, "dateTime": 1664464626755, "trialdata": {"rt": 1205, "stimulus": "<p id='stroop-text' class='stroop-yellow'>BOTTLE</p>", "response": "y", "stimulus-type": "unrelated", "word": "BOTTLE", "color": "yellow", "correct_response": "y", "trial_id": "stroop-trial-1-unrelated-4", "trial_type": "html-keyboard-response", "trial_index": 127, "time_elapsed": 492861, "internal_node_id": "0.0-6.0-32.0"}}, {"uniqueid": "w60586713:a41931176", "current_trial": 128, "dateTime": 1664464630471, "trialdata": {"rt": 3200, "stimulus": "<p id='stroop-text' class='stroop-green'>BRIDGE</p>", "response": "g", "stimulus-type": "unrelated", "word": "BRIDGE", "color": "green", "correct_response": "g", "trial_id": "stroop-trial-1-unrelated-3", "trial_type": "html-keyboard-response", "trial_index": 128, "time_elapsed": 496577, "internal_node_id": "0.0-6.0-33.0"}}, {"uniqueid": "w60586713:a41931176", "current_trial": 129, "dateTime": 1664464632283, "trialdata": {"rt": 1298, "stimulus": "<p id='stroop-text' class='stroop-yellow'>RED</p>", "response": "y", "stimulus-type": "incongruent", "word": "red", "color": "yellow", "correct_response": "y", "trial_id": "stroop-trial-1-incongruent-3", "trial_type": "html-keyboard-response", "trial_index": 129, "time_elapsed": 498389, "internal_node_id": "0.0-6.0-34.0"}}, {"uniqueid": "w60586713:a41931176", "current_trial": 130, "dateTime": 1664464633702, "trialdata": {"rt": 902, "stimulus": "<p id='stroop-text' class='stroop-yellow'>YELLOW</p>", "response": "y", "stimulus-type": "congruent", "word": "yellow", "color": "yellow", "correct_response": "y", "trial_id": "stroop-trial-1-congruent-21", "trial_type": "html-keyboard-response", "trial_index": 130, "time_elapsed": 499808, "internal_node_id": "0.0-6.0-35.0"}}, {"uniqueid": "w60586713:a41931176", "current_trial": 131, "dateTime": 1664464635509, "trialdata": {"rt": 1286, "stimulus": "<p id='stroop-text' class='stroop-blue'>BLUE</p>", "response": "b", "stimulus-type": "congruent", "word": "blue", "color": "blue", "correct_response": "b", "trial_id": "stroop-trial-1-congruent-20", "trial_type": "html-keyboard-response", "trial_index": 131, "time_elapsed": 501613, "internal_node_id": "0.0-6.0-36.0"}}, {"uniqueid": "w60586713:a41931176", "current_trial": 132, "dateTime": 1664464636849, "trialdata": {"rt": 821, "stimulus": "<p id='stroop-text' class='stroop-yellow'>RED</p>", "response": "y", "stimulus-type": "incongruent", "word": "red", "color": "yellow", "correct_response": "y", "trial_id": "stroop-trial-1-incongruent-7", "trial_type": "html-keyboard-response", "trial_index": 132, "time_elapsed": 502955, "internal_node_id": "0.0-6.0-37.0"}}, {"uniqueid": "w60586713:a41931176", "current_trial": 133, "dateTime": 1664464638177, "trialdata": {"rt": 808, "stimulus": "<p id='stroop-text' class='stroop-green'>GREEN</p>", "response": "g", "stimulus-type": "congruent", "word": "green", "color": "green", "correct_response": "g", "trial_id": "stroop-trial-1-congruent-15", "trial_type": "html-keyboard-response", "trial_index": 133, "time_elapsed": 504283, "internal_node_id": "0.0-6.0-38.0"}}, {"uniqueid": "w60586713:a41931176", "current_trial": 134, "dateTime": 1664464639699, "trialdata": {"rt": 1012, "stimulus": "<p id='stroop-text' class='stroop-red'>CHAIR</p>", "response": "r", "stimulus-type": "unrelated", "word": "CHAIR", "color": "red", "correct_response": "r", "trial_id": "stroop-trial-1-unrelated-21", "trial_type": "html-keyboard-response", "trial_index": 134, "time_elapsed": 505805, "internal_node_id": "0.0-6.0-39.0"}}, {"uniqueid": "w60586713:a41931176", "current_trial": 135, "dateTime": 1664464641129, "trialdata": {"rt": 914, "stimulus": "<p id='stroop-text' class='stroop-green'>WINDOW</p>", "response": "g", "stimulus-type": "unrelated", "word": "WINDOW", "color": "green", "correct_response": "g", "trial_id": "stroop-trial-1-unrelated-14", "trial_type": "html-keyboard-response", "trial_index": 135, "time_elapsed": 507235, "internal_node_id": "0.0-6.0-40.0"}}, {"uniqueid": "w60586713:a41931176", "current_trial": 136, "dateTime": 1664464642564, "trialdata": {"rt": 925, "stimulus": "<p id='stroop-text' class='stroop-blue'>MONKEY</p>", "response": "b", "stimulus-type": "unrelated", "word": "MONKEY", "color": "blue", "correct_response": "b", "trial_id": "stroop-trial-1-unrelated-23", "trial_type": "html-keyboard-response", "trial_index": 136, "time_elapsed": 508671, "internal_node_id": "0.0-6.0-41.0"}}, {"uniqueid": "w60586713:a41931176", "current_trial": 137, "dateTime": 1664464643570, "trialdata": {"rt": 486, "stimulus": "<p id='stroop-text' class='stroop-blue'>BLUE</p>", "response": "b", "stimulus-type": "congruent", "word": "blue", "color": "blue", "correct_response": "b", "trial_id": "stroop-trial-1-congruent-3", "trial_type": "html-keyboard-response", "trial_index": 137, "time_elapsed": 509677, "internal_node_id": "0.0-6.0-42.0"}}, {"uniqueid": "w60586713:a41931176", "current_trial": 138, "dateTime": 1664464644878, "trialdata": {"rt": 796, "stimulus": "<p id='stroop-text' class='stroop-yellow'>YELLOW</p>", "response": "y", "stimulus-type": "congruent", "word": "yellow", "color": "yellow", "correct_response": "y", "trial_id": "stroop-trial-1-congruent-10", "trial_type": "html-keyboard-response", "trial_index": 138, "time_elapsed": 510985, "internal_node_id": "0.0-6.0-43.0"}}, {"uniqueid": "w60586713:a41931176", "current_trial": 139, "dateTime": 1664464645760, "trialdata": {"rt": 369, "stimulus": "<p id='stroop-text' class='stroop-yellow'>YELLOW</p>", "response": "y", "stimulus-type": "congruent", "word": "yellow", "color": "yellow", "correct_response": "y", "trial_id": "stroop-trial-1-congruent-13", "trial_type": "html-keyboard-response", "trial_index": 139, "time_elapsed": 511866, "internal_node_id": "0.0-6.0-44.0"}}, {"uniqueid": "w60586713:a41931176", "current_trial": 140, "dateTime": 1664464647596, "trialdata": {"rt": 1325, "stimulus": "<p id='stroop-text' class='stroop-red'>GREEN</p>", "response": "r", "stimulus-type": "incongruent", "word": "green", "color": "red", "correct_response": "r", "trial_id": "stroop-trial-1-incongruent-15", "trial_type": "html-keyboard-response", "trial_index": 140, "time_elapsed": 513702, "internal_node_id": "0.0-6.0-45.0"}}, {"uniqueid": "w60586713:a41931176", "current_trial": 141, "dateTime": 1664464648935, "trialdata": {"rt": 827, "stimulus": "<p id='stroop-text' class='stroop-green'>GREEN</p>", "response": "g", "stimulus-type": "congruent", "word": "green", "color": "green", "correct_response": "g", "trial_id": "stroop-trial-1-congruent-23", "trial_type": "html-keyboard-response", "trial_index": 141, "time_elapsed": 515041, "internal_node_id": "0.0-6.0-46.0"}}, {"uniqueid": "w60586713:a41931176", "current_trial": 142, "dateTime": 1664464650483, "trialdata": {"rt": 1036, "stimulus": "<p id='stroop-text' class='stroop-yellow'>GREEN</p>", "response": "y", "stimulus-type": "incongruent", "word": "green", "color": "yellow", "correct_response": "y", "trial_id": "stroop-trial-1-incongruent-22", "trial_type": "html-keyboard-response", "trial_index": 142, "time_elapsed": 516589, "internal_node_id": "0.0-6.0-47.0"}}, {"uniqueid": "w60586713:a41931176", "current_trial": 143, "dateTime": 1664464652218, "trialdata": {"rt": 1224, "stimulus": "<p id='stroop-text' class='stroop-blue'>YELLOW</p>", "response": "b", "stimulus-type": "incongruent", "word": "yellow", "color": "blue", "correct_response": "b", "trial_id": "stroop-trial-1-incongruent-13", "trial_type": "html-keyboard-response", "trial_index": 143, "time_elapsed": 518325, "internal_node_id": "0.0-6.0-48.0"}}, {"uniqueid": "w60586713:a41931176", "current_trial": 144, "dateTime": 1664464654028, "trialdata": {"rt": 1291, "stimulus": "<p id='stroop-text' class='stroop-green'>GREEN</p>", "response": "g", "stimulus-type": "congruent", "word": "green", "color": "green", "correct_response": "g", "trial_id": "stroop-trial-1-congruent-8", "trial_type": "html-keyboard-response", "trial_index": 144, "time_elapsed": 520134, "internal_node_id": "0.0-6.0-49.0"}}, {"uniqueid": "w60586713:a41931176", "current_trial": 145, "dateTime": 1664464656694, "trialdata": {"rt": 2153, "stimulus": "<p id='stroop-text' class='stroop-red'>BRAIN</p>", "response": "r", "stimulus-type": "unrelated", "word": "BRAIN", "color": "red", "correct_response": "r", "trial_id": "stroop-trial-1-unrelated-2", "trial_type": "html-keyboard-response", "trial_index": 145, "time_elapsed": 522800, "internal_node_id": "0.0-6.0-50.0"}}, {"uniqueid": "w60586713:a41931176", "current_trial": 146, "dateTime": 1664464658881, "trialdata": {"rt": 1675, "stimulus": "<p id='stroop-text' class='stroop-yellow'>SHIP</p>", "response": "y", "stimulus-type": "unrelated", "word": "SHIP", "color": "yellow", "correct_response": "y", "trial_id": "stroop-trial-1-unrelated-20", "trial_type": "html-keyboard-response", "trial_index": 146, "time_elapsed": 524987, "internal_node_id": "0.0-6.0-51.0"}}, {"uniqueid": "w60586713:a41931176", "current_trial": 147, "dateTime": 1664464659889, "trialdata": {"rt": 485, "stimulus": "<p id='stroop-text' class='stroop-yellow'>YELLOW</p>", "response": "y", "stimulus-type": "congruent", "word": "yellow", "color": "yellow", "correct_response": "y", "trial_id": "stroop-trial-1-congruent-12", "trial_type": "html-keyboard-response", "trial_index": 147, "time_elapsed": 525995, "internal_node_id": "0.0-6.0-52.0"}}, {"uniqueid": "w60586713:a41931176", "current_trial": 148, "dateTime": 1664464660833, "trialdata": {"rt": 431, "stimulus": "<p id='stroop-text' class='stroop-yellow'>FORK</p>", "response": "y", "stimulus-type": "unrelated", "word": "FORK", "color": "yellow", "correct_response": "y", "trial_id": "stroop-trial-1-unrelated-30", "trial_type": "html-keyboard-response", "trial_index": 148, "time_elapsed": 526939, "internal_node_id": "0.0-6.0-53.0"}}, {"uniqueid": "w60586713:a41931176", "current_trial": 149, "dateTime": 1664464662380, "trialdata": {"rt": 1036, "stimulus": "<p id='stroop-text' class='stroop-red'>WINDOW</p>", "response": "r", "stimulus-type": "unrelated", "word": "WINDOW", "color": "red", "correct_response": "r", "trial_id": "stroop-trial-1-unrelated-26", "trial_type": "html-keyboard-response", "trial_index": 149, "time_elapsed": 528486, "internal_node_id": "0.0-6.0-54.0"}}, {"uniqueid": "w60586713:a41931176", "current_trial": 150, "dateTime": 1664464663816, "trialdata": {"rt": 917, "stimulus": "<p id='stroop-text' class='stroop-blue'>BLUE</p>", "response": "b", "stimulus-type": "congruent", "word": "blue", "color": "blue", "correct_response": "b", "trial_id": "stroop-trial-1-congruent-1", "trial_type": "html-keyboard-response", "trial_index": 150, "time_elapsed": 529922, "internal_node_id": "0.0-6.0-55.0"}}, {"uniqueid": "w60586713:a41931176", "current_trial": 151, "dateTime": 1664464665161, "trialdata": {"rt": 827, "stimulus": "<p id='stroop-text' class='stroop-yellow'>YELLOW</p>", "response": "y", "stimulus-type": "congruent", "word": "yellow", "color": "yellow", "correct_response": "y", "trial_id": "stroop-trial-1-congruent-26", "trial_type": "html-keyboard-response", "trial_index": 151, "time_elapsed": 531267, "internal_node_id": "0.0-6.0-56.0"}}, {"uniqueid": "w60586713:a41931176", "current_trial": 152, "dateTime": 1664464666810, "trialdata": {"rt": 1137, "stimulus": "<p id='stroop-text' class='stroop-red'>RED</p>", "response": "r", "stimulus-type": "congruent", "word": "red", "color": "red", "correct_response": "r", "trial_id": "stroop-trial-1-congruent-14", "trial_type": "html-keyboard-response", "trial_index": 152, "time_elapsed": 532916, "internal_node_id": "0.0-6.0-57.0"}}, {"uniqueid": "w60586713:a41931176", "current_trial": 153, "dateTime": 1664464669782, "trialdata": {"rt": 2461, "stimulus": "<p id='stroop-text' class='stroop-green'>YELLOW</p>", "response": "g", "stimulus-type": "incongruent", "word": "yellow", "color": "green", "correct_response": "g", "trial_id": "stroop-trial-1-incongruent-16", "trial_type": "html-keyboard-response", "trial_index": 153, "time_elapsed": 535889, "internal_node_id": "0.0-6.0-58.0"}}, {"uniqueid": "w60586713:a41931176", "current_trial": 154, "dateTime": 1664464674497, "trialdata": {"rt": 4202, "stimulus": "<p id='stroop-text' class='stroop-blue'>FORK</p>", "response": "b", "stimulus-type": "unrelated", "word": "FORK", "color": "blue", "correct_response": "b", "trial_id": "stroop-trial-1-unrelated-11", "trial_type": "html-keyboard-response", "trial_index": 154, "time_elapsed": 540604, "internal_node_id": "0.0-6.0-59.0"}}, {"uniqueid": "w60586713:a41931176", "current_trial": 155, "dateTime": 1664464676158, "trialdata": {"rt": 1135, "stimulus": "<p id='stroop-text' class='stroop-green'>BLUE</p>", "response": "g", "stimulus-type": "incongruent", "word": "blue", "color": "green", "correct_response": "g", "trial_id": "stroop-trial-1-incongruent-4", "trial_type": "html-keyboard-response", "trial_index": 155, "time_elapsed": 542264, "internal_node_id": "0.0-6.0-60.0"}}, {"uniqueid": "w60586713:a41931176", "current_trial": 156, "dateTime": 1664464677788, "trialdata": {"rt": 1112, "stimulus": "<p id='stroop-text' class='stroop-green'>GREEN</p>", "response": "g", "stimulus-type": "congruent", "word": "green", "color": "green", "correct_response": "g", "trial_id": "stroop-trial-1-congruent-16", "trial_type": "html-keyboard-response", "trial_index": 156, "time_elapsed": 543894, "internal_node_id": "0.0-6.0-61.0"}}, {"uniqueid": "w60586713:a41931176", "current_trial": 157, "dateTime": 1664464680400, "trialdata": {"rt": 2100, "stimulus": "<p id='stroop-text' class='stroop-blue'>BLUE</p>", "response": "b", "stimulus-type": "congruent", "word": "blue", "color": "blue", "correct_response": "b", "trial_id": "stroop-trial-1-congruent-7", "trial_type": "html-keyboard-response", "trial_index": 157, "time_elapsed": 546506, "internal_node_id": "0.0-6.0-62.0"}}, {"uniqueid": "w60586713:a41931176", "current_trial": 158, "dateTime": 1664464681964, "trialdata": {"rt": 1029, "stimulus": "<p id='stroop-text' class='stroop-yellow'>BRAIN</p>", "response": "y", "stimulus-type": "unrelated", "word": "BRAIN", "color": "yellow", "correct_response": "y", "trial_id": "stroop-trial-1-unrelated-28", "trial_type": "html-keyboard-response", "trial_index": 158, "time_elapsed": 548070, "internal_node_id": "0.0-6.0-63.0"}}, {"uniqueid": "w60586713:a41931176", "current_trial": 159, "dateTime": 1664464684943, "trialdata": {"rt": 2467, "stimulus": "<p id='stroop-text' class='stroop-blue'>YELLOW</p>", "response": "b", "stimulus-type": "incongruent", "word": "yellow", "color": "blue", "correct_response": "b", "trial_id": "stroop-trial-1-incongruent-28", "trial_type": "html-keyboard-response", "trial_index": 159, "time_elapsed": 551048, "internal_node_id": "0.0-6.0-64.0"}}, {"uniqueid": "w60586713:a41931176", "current_trial": 160, "dateTime": 1664464686391, "trialdata": {"rt": 937, "stimulus": "<p id='stroop-text' class='stroop-blue'>MONKEY</p>", "response": "b", "stimulus-type": "unrelated", "word": "MONKEY", "color": "blue", "correct_response": "b", "trial_id": "stroop-trial-1-unrelated-5", "trial_type": "html-keyboard-response", "trial_index": 160, "time_elapsed": 552497, "internal_node_id": "0.0-6.0-65.0"}}, {"uniqueid": "w60586713:a41931176", "current_trial": 161, "dateTime": 1664464687470, "trialdata": {"rt": 559, "stimulus": "<p id='stroop-text' class='stroop-blue'>BLUE</p>", "response": "b", "stimulus-type": "congruent", "word": "blue", "color": "blue", "correct_response": "b", "trial_id": "stroop-trial-1-congruent-4", "trial_type": "html-keyboard-response", "trial_index": 161, "time_elapsed": 553577, "internal_node_id": "0.0-6.0-66.0"}}, {"uniqueid": "w60586713:a41931176", "current_trial": 162, "dateTime": 1664464690314, "trialdata": {"rt": 2332, "stimulus": "<p id='stroop-text' class='stroop-red'>WINDOW</p>", "response": "r", "stimulus-type": "unrelated", "word": "WINDOW", "color": "red", "correct_response": "r", "trial_id": "stroop-trial-1-unrelated-22", "trial_type": "html-keyboard-response", "trial_index": 162, "time_elapsed": 556420, "internal_node_id": "0.0-6.0-67.0"}}, {"uniqueid": "w60586713:a41931176", "current_trial": 163, "dateTime": 1664464692834, "trialdata": {"rt": 2009, "stimulus": "<p id='stroop-text' class='stroop-green'>BRIDGE</p>", "response": "g", "stimulus-type": "unrelated", "word": "BRIDGE", "color": "green", "correct_response": "g", "trial_id": "stroop-trial-1-unrelated-9", "trial_type": "html-keyboard-response", "trial_index": 163, "time_elapsed": 558940, "internal_node_id": "0.0-6.0-68.0"}}, {"uniqueid": "w60586713:a41931176", "current_trial": 164, "dateTime": 1664464694869, "trialdata": {"rt": 1518, "stimulus": "<p id='stroop-text' class='stroop-yellow'>RED</p>", "response": "y", "stimulus-type": "incongruent", "word": "red", "color": "yellow", "correct_response": "y", "trial_id": "stroop-trial-1-incongruent-14", "trial_type": "html-keyboard-response", "trial_index": 164, "time_elapsed": 560975, "internal_node_id": "0.0-6.0-69.0"}}, {"uniqueid": "w60586713:a41931176", "current_trial": 165, "dateTime": 1664464696795, "trialdata": {"rt": 1408, "stimulus": "<p id='stroop-text' class='stroop-blue'>BLUE</p>", "response": "b", "stimulus-type": "congruent", "word": "blue", "color": "blue", "correct_response": "b", "trial_id": "stroop-trial-1-congruent-5", "trial_type": "html-keyboard-response", "trial_index": 165, "time_elapsed": 562902, "internal_node_id": "0.0-6.0-70.0"}}, {"uniqueid": "w60586713:a41931176", "current_trial": 166, "dateTime": 1664464698296, "trialdata": {"rt": 984, "stimulus": "<p id='stroop-text' class='stroop-green'>GREEN</p>", "response": "g", "stimulus-type": "congruent", "word": "green", "color": "green", "correct_response": "g", "trial_id": "stroop-trial-1-congruent-29", "trial_type": "html-keyboard-response", "trial_index": 166, "time_elapsed": 564402, "internal_node_id": "0.0-6.0-71.0"}}, {"uniqueid": "w60586713:a41931176", "current_trial": 167, "dateTime": 1664464701041, "trialdata": {"rt": 2225, "stimulus": "<p id='stroop-text' class='stroop-blue'>RED</p>", "response": "b", "stimulus-type": "incongruent", "word": "red", "color": "blue", "correct_response": "b", "trial_id": "stroop-trial-1-incongruent-8", "trial_type": "html-keyboard-response", "trial_index": 167, "time_elapsed": 567148, "internal_node_id": "0.0-6.0-72.0"}}, {"uniqueid": "w60586713:a41931176", "current_trial": 168, "dateTime": 1664464702883, "trialdata": {"rt": 1323, "stimulus": "<p id='stroop-text' class='stroop-green'>BOAT</p>", "response": "g", "stimulus-type": "unrelated", "word": "BOAT", "color": "green", "correct_response": "g", "trial_id": "stroop-trial-1-unrelated-25", "trial_type": "html-keyboard-response", "trial_index": 168, "time_elapsed": 568989, "internal_node_id": "0.0-6.0-73.0"}}, {"uniqueid": "w60586713:a41931176", "current_trial": 169, "dateTime": 1664464703967, "trialdata": {"rt": 564, "stimulus": "<p id='stroop-text' class='stroop-green'>BLUE</p>", "response": "g", "stimulus-type": "incongruent", "word": "blue", "color": "green", "correct_response": "g", "trial_id": "stroop-trial-1-incongruent-5", "trial_type": "html-keyboard-response", "trial_index": 169, "time_elapsed": 570073, "internal_node_id": "0.0-6.0-74.0"}}, {"uniqueid": "w60586713:a41931176", "current_trial": 170, "dateTime": 1664464707351, "trialdata": {"rt": 2870, "stimulus": "<p id='stroop-text' class='stroop-red'>YELLOW</p>", "response": "r", "stimulus-type": "incongruent", "word": "yellow", "color": "red", "correct_response": "r", "trial_id": "stroop-trial-1-incongruent-20", "trial_type": "html-keyboard-response", "trial_index": 170, "time_elapsed": 573457, "internal_node_id": "0.0-6.0-75.0"}}, {"uniqueid": "w60586713:a41931176", "current_trial": 171, "dateTime": 1664464708544, "trialdata": {"rt": 653, "stimulus": "<p id='stroop-text' class='stroop-red'>RED</p>", "response": "r", "stimulus-type": "congruent", "word": "red", "color": "red", "correct_response": "r", "trial_id": "stroop-trial-1-congruent-9", "trial_type": "html-keyboard-response", "trial_index": 171, "time_elapsed": 574649, "internal_node_id": "0.0-6.0-76.0"}}, {"uniqueid": "w60586713:a41931176", "current_trial": 172, "dateTime": 1664464710982, "trialdata": {"rt": 1914, "stimulus": "<p id='stroop-text' class='stroop-yellow'>YELLOW</p>", "response": "y", "stimulus-type": "congruent", "word": "yellow", "color": "yellow", "correct_response": "y", "trial_id": "stroop-trial-1-congruent-19", "trial_type": "html-keyboard-response", "trial_index": 172, "time_elapsed": 577088, "internal_node_id": "0.0-6.0-77.0"}}, {"uniqueid": "w60586713:a41931176", "current_trial": 173, "dateTime": 1664464712273, "trialdata": {"rt": 767, "stimulus": "<p id='stroop-text' class='stroop-yellow'>FORK</p>", "response": "y", "stimulus-type": "unrelated", "word": "FORK", "color": "yellow", "correct_response": "y", "trial_id": "stroop-trial-1-unrelated-6", "trial_type": "html-keyboard-response", "trial_index": 173, "time_elapsed": 578379, "internal_node_id": "0.0-6.0-78.0"}}, {"uniqueid": "w60586713:a41931176", "current_trial": 174, "dateTime": 1664464715647, "trialdata": {"rt": 2862, "stimulus": "<p id='stroop-text' class='stroop-blue'>STONE</p>", "response": "b", "stimulus-type": "unrelated", "word": "STONE", "color": "blue", "correct_response": "b", "trial_id": "stroop-trial-1-unrelated-7", "trial_type": "html-keyboard-response", "trial_index": 174, "time_elapsed": 581753, "internal_node_id": "0.0-6.0-79.0"}}, {"uniqueid": "w60586713:a41931176", "current_trial": 175, "dateTime": 1664464717698, "trialdata": {"rt": 1523, "stimulus": "<p id='stroop-text' class='stroop-green'>SHIP</p>", "response": "g", "stimulus-type": "unrelated", "word": "SHIP", "color": "green", "correct_response": "g", "trial_id": "stroop-trial-1-unrelated-24", "trial_type": "html-keyboard-response", "trial_index": 175, "time_elapsed": 583804, "internal_node_id": "0.0-6.0-80.0"}}, {"uniqueid": "w60586713:a41931176", "current_trial": 176, "dateTime": 1664464719358, "trialdata": {"rt": 1148, "stimulus": "<p id='stroop-text' class='stroop-red'>SHIP</p>", "response": "r", "stimulus-type": "unrelated", "word": "SHIP", "color": "red", "correct_response": "r", "trial_id": "stroop-trial-1-unrelated-1", "trial_type": "html-keyboard-response", "trial_index": 176, "time_elapsed": 585464, "internal_node_id": "0.0-6.0-81.0"}}, {"uniqueid": "w60586713:a41931176", "current_trial": 177, "dateTime": 1664464721045, "trialdata": {"rt": 1168, "stimulus": "<p id='stroop-text' class='stroop-red'>YELLOW</p>", "response": "r", "stimulus-type": "incongruent", "word": "yellow", "color": "red", "correct_response": "r", "trial_id": "stroop-trial-1-incongruent-27", "trial_type": "html-keyboard-response", "trial_index": 177, "time_elapsed": 587152, "internal_node_id": "0.0-6.0-82.0"}}, {"uniqueid": "w60586713:a41931176", "current_trial": 178, "dateTime": 1664464722989, "trialdata": {"rt": 1424, "stimulus": "<p id='stroop-text' class='stroop-yellow'>GREEN</p>", "response": "y", "stimulus-type": "incongruent", "word": "green", "color": "yellow", "correct_response": "y", "trial_id": "stroop-trial-1-incongruent-29", "trial_type": "html-keyboard-response", "trial_index": 178, "time_elapsed": 589096, "internal_node_id": "0.0-6.0-83.0"}}, {"uniqueid": "w60586713:a41931176", "current_trial": 179, "dateTime": 1664464724078, "trialdata": {"rt": 568, "stimulus": "<p id='stroop-text' class='stroop-yellow'>RED</p>", "response": "y", "stimulus-type": "incongruent", "word": "red", "color": "yellow", "correct_response": "y", "trial_id": "stroop-trial-1-incongruent-17", "trial_type": "html-keyboard-response", "trial_index": 179, "time_elapsed": 590182, "internal_node_id": "0.0-6.0-84.0"}}, {"uniqueid": "w60586713:a41931176", "current_trial": 180, "dateTime": 1664464725014, "trialdata": {"rt": 412, "stimulus": "<p id='stroop-text' class='stroop-yellow'>WINDOW</p>", "response": "y", "stimulus-type": "unrelated", "word": "WINDOW", "color": "yellow", "correct_response": "y", "trial_id": "stroop-trial-1-unrelated-12", "trial_type": "html-keyboard-response", "trial_index": 180, "time_elapsed": 591120, "internal_node_id": "0.0-6.0-85.0"}}, {"uniqueid": "w60586713:a41931176", "current_trial": 181, "dateTime": 1664464726688, "trialdata": {"rt": 1155, "stimulus": "<p id='stroop-text' class='stroop-red'>BLUE</p>", "response": "r", "stimulus-type": "incongruent", "word": "blue", "color": "red", "correct_response": "r", "trial_id": "stroop-trial-1-incongruent-19", "trial_type": "html-keyboard-response", "trial_index": 181, "time_elapsed": 592794, "internal_node_id": "0.0-6.0-86.0"}}, {"uniqueid": "w60586713:a41931176", "current_trial": 182, "dateTime": 1664464727587, "trialdata": {"rt": 387, "stimulus": "<p id='stroop-text' class='stroop-red'>MONKEY</p>", "response": "r", "stimulus-type": "unrelated", "word": "MONKEY", "color": "red", "correct_response": "r", "trial_id": "stroop-trial-1-unrelated-10", "trial_type": "html-keyboard-response", "trial_index": 182, "time_elapsed": 593693, "internal_node_id": "0.0-6.0-87.0"}}, {"uniqueid": "w60586713:a41931176", "current_trial": 183, "dateTime": 1664464728471, "trialdata": {"rt": 371, "stimulus": "<p id='stroop-text' class='stroop-red'>YELLOW</p>", "response": "r", "stimulus-type": "incongruent", "word": "yellow", "color": "red", "correct_response": "r", "trial_id": "stroop-trial-1-incongruent-6", "trial_type": "html-keyboard-response", "trial_index": 183, "time_elapsed": 594577, "internal_node_id": "0.0-6.0-88.0"}}, {"uniqueid": "w60586713:a41931176", "current_trial": 184, "dateTime": 1664464729801, "trialdata": {"rt": 819, "stimulus": "<p id='stroop-text' class='stroop-red'>SHIP</p>", "response": "r", "stimulus-type": "unrelated", "word": "SHIP", "color": "red", "correct_response": "r", "trial_id": "stroop-trial-1-unrelated-15", "trial_type": "html-keyboard-response", "trial_index": 184, "time_elapsed": 595907, "internal_node_id": "0.0-6.0-89.0"}}, {"uniqueid": "w60586713:a41931176", "current_trial": 185, "dateTime": 1664464733000, "trialdata": {"rt": 2683, "stimulus": "  <h1> End of block! </h1>\n\n  You have reached the end of the block 2/5. If you need a short break, feel free to take one now before moving on.\n\n  <br><br>\n  In the next block, you will complete another 90 rounds of this game.\n\n  <br><br>\n  <div style='text-align: center;'>Press <code>space</code> to begin.</div>\n  <br><br>\n<div style='text-align: center;'>(If the experiment doesn't continue, try clicking on the text and then pressing <code>space</code>.)</div>", "response": " ", "trial_id": "stroop_1_ready_3", "trial_type": "html-keyboard-response", "trial_index": 185, "time_elapsed": 599107, "internal_node_id": "0.0-7.0"}}, {"uniqueid": "w60586713:a41931176", "current_trial": 186, "dateTime": 1664464734555, "trialdata": {"rt": 1533, "stimulus": "<p id='stroop-text' class='stroop-yellow'>RED</p>", "response": "y", "stimulus-type": "incongruent", "word": "red", "color": "yellow", "correct_response": "y", "trial_id": "stroop-trial-1-incongruent-20", "trial_type": "html-keyboard-response", "trial_index": 186, "time_elapsed": 600661, "internal_node_id": "0.0-8.0-0.0"}}, {"uniqueid": "w60586713:a41931176", "current_trial": 187, "dateTime": 1664464755937, "trialdata": {"rt": 20863, "stimulus": "<p id='stroop-text' class='stroop-red'>BOTTLE</p>", "response": "r", "stimulus-type": "unrelated", "word": "BOTTLE", "color": "red", "correct_response": "r", "trial_id": "stroop-trial-1-unrelated-15", "trial_type": "html-keyboard-response", "trial_index": 187, "time_elapsed": 622043, "internal_node_id": "0.0-8.0-1.0"}}, {"uniqueid": "w60586713:a41931176", "current_trial": 188, "dateTime": 1664464757566, "trialdata": {"rt": 1115, "stimulus": "<p id='stroop-text' class='stroop-red'>GREEN</p>", "response": "r", "stimulus-type": "incongruent", "word": "green", "color": "red", "correct_response": "r", "trial_id": "stroop-trial-1-incongruent-24", "trial_type": "html-keyboard-response", "trial_index": 188, "time_elapsed": 623673, "internal_node_id": "0.0-8.0-2.0"}}, {"uniqueid": "w60586713:a41931176", "current_trial": 189, "dateTime": 1664464759245, "trialdata": {"rt": 1157, "stimulus": "<p id='stroop-text' class='stroop-yellow'>STONE</p>", "response": "y", "stimulus-type": "unrelated", "word": "STONE", "color": "yellow", "correct_response": "y", "trial_id": "stroop-trial-1-unrelated-28", "trial_type": "html-keyboard-response", "trial_index": 189, "time_elapsed": 625350, "internal_node_id": "0.0-8.0-3.0"}}, {"uniqueid": "w60586713:a41931176", "current_trial": 190, "dateTime": 1664464760781, "trialdata": {"rt": 1012, "stimulus": "<p id='stroop-text' class='stroop-green'>GREEN</p>", "response": "g", "stimulus-type": "congruent", "word": "green", "color": "green", "correct_response": "g", "trial_id": "stroop-trial-1-congruent-14", "trial_type": "html-keyboard-response", "trial_index": 190, "time_elapsed": 626887, "internal_node_id": "0.0-8.0-4.0"}}, {"uniqueid": "w60586713:a41931176", "current_trial": 191, "dateTime": 1664464762247, "trialdata": {"rt": 956, "stimulus": "<p id='stroop-text' class='stroop-red'>FORK</p>", "response": "y", "stimulus-type": "unrelated", "word": "FORK", "color": "red", "correct_response": "r", "trial_id": "stroop-trial-1-unrelated-6", "trial_type": "html-keyboard-response", "trial_index": 191, "time_elapsed": 628353, "internal_node_id": "0.0-8.0-5.0"}}, {"uniqueid": "w60586713:a41931176", "current_trial": 192, "dateTime": 1664464764092, "trialdata": {"rt": 1333, "stimulus": "<p id='stroop-text' class='stroop-yellow'>BOTTLE</p>", "response": "y", "stimulus-type": "unrelated", "word": "BOTTLE", "color": "yellow", "correct_response": "y", "trial_id": "stroop-trial-1-unrelated-21", "trial_type": "html-keyboard-response", "trial_index": 192, "time_elapsed": 630199, "internal_node_id": "0.0-8.0-6.0"}}, {"uniqueid": "w60586713:a41931176", "current_trial": 193, "dateTime": 1664464765055, "trialdata": {"rt": 442, "stimulus": "<p id='stroop-text' class='stroop-yellow'>BOTTLE</p>", "response": "y", "stimulus-type": "unrelated", "word": "BOTTLE", "color": "yellow", "correct_response": "y", "trial_id": "stroop-trial-1-unrelated-22", "trial_type": "html-keyboard-response", "trial_index": 193, "time_elapsed": 631161, "internal_node_id": "0.0-8.0-7.0"}}, {"uniqueid": "w60586713:a41931176", "current_trial": 194, "dateTime": 1664464772743, "trialdata": {"rt": 7173, "stimulus": "<p id='stroop-text' class='stroop-green'>RED</p>", "response": "g", "stimulus-type": "incongruent", "word": "red", "color": "green", "correct_response": "g", "trial_id": "stroop-trial-1-incongruent-13", "trial_type": "html-keyboard-response", "trial_index": 194, "time_elapsed": 638849, "internal_node_id": "0.0-8.0-8.0"}}, {"uniqueid": "w60586713:a41931176", "current_trial": 195, "dateTime": 1664464776156, "trialdata": {"rt": 2889, "stimulus": "<p id='stroop-text' class='stroop-blue'>YELLOW</p>", "response": "b", "stimulus-type": "incongruent", "word": "yellow", "color": "blue", "correct_response": "b", "trial_id": "stroop-trial-1-incongruent-3", "trial_type": "html-keyboard-response", "trial_index": 195, "time_elapsed": 642262, "internal_node_id": "0.0-8.0-9.0"}}, {"uniqueid": "w60586713:a41931176", "current_trial": 196, "dateTime": 1664464778590, "trialdata": {"rt": 1921, "stimulus": "<p id='stroop-text' class='stroop-green'>YELLOW</p>", "response": "g", "stimulus-type": "incongruent", "word": "yellow", "color": "green", "correct_response": "g", "trial_id": "stroop-trial-1-incongruent-16", "trial_type": "html-keyboard-response", "trial_index": 196, "time_elapsed": 644696, "internal_node_id": "0.0-8.0-10.0"}}, {"uniqueid": "w60586713:a41931176", "current_trial": 197, "dateTime": 1664464781592, "trialdata": {"rt": 2480, "stimulus": "<p id='stroop-text' class='stroop-yellow'>YELLOW</p>", "response": "y", "stimulus-type": "congruent", "word": "yellow", "color": "yellow", "correct_response": "y", "trial_id": "stroop-trial-1-congruent-12", "trial_type": "html-keyboard-response", "trial_index": 197, "time_elapsed": 647698, "internal_node_id": "0.0-8.0-11.0"}}, {"uniqueid": "w60586713:a41931176", "current_trial": 198, "dateTime": 1664464783967, "trialdata": {"rt": 1852, "stimulus": "<p id='stroop-text' class='stroop-red'>BOAT</p>", "response": "r", "stimulus-type": "unrelated", "word": "BOAT", "color": "red", "correct_response": "r", "trial_id": "stroop-trial-1-unrelated-14", "trial_type": "html-keyboard-response", "trial_index": 198, "time_elapsed": 650073, "internal_node_id": "0.0-8.0-12.0"}}, {"uniqueid": "w60586713:a41931176", "current_trial": 199, "dateTime": 1664464786633, "trialdata": {"rt": 2146, "stimulus": "<p id='stroop-text' class='stroop-green'>BLUE</p>", "response": "g", "stimulus-type": "incongruent", "word": "blue", "color": "green", "correct_response": "g", "trial_id": "stroop-trial-1-incongruent-17", "trial_type": "html-keyboard-response", "trial_index": 199, "time_elapsed": 652739, "internal_node_id": "0.0-8.0-13.0"}}, {"uniqueid": "w60586713:a41931176", "current_trial": 200, "dateTime": 1664464788619, "trialdata": {"rt": 1462, "stimulus": "<p id='stroop-text' class='stroop-green'>YELLOW</p>", "response": "g", "stimulus-type": "incongruent", "word": "yellow", "color": "green", "correct_response": "g", "trial_id": "stroop-trial-1-incongruent-2", "trial_type": "html-keyboard-response", "trial_index": 200, "time_elapsed": 654725, "internal_node_id": "0.0-8.0-14.0"}}, {"uniqueid": "w60586713:a41931176", "current_trial": 201, "dateTime": 1664464789628, "trialdata": {"rt": 496, "stimulus": "<p id='stroop-text' class='stroop-green'>YELLOW</p>", "response": "g", "stimulus-type": "incongruent", "word": "yellow", "color": "green", "correct_response": "g", "trial_id": "stroop-trial-1-incongruent-12", "trial_type": "html-keyboard-response", "trial_index": 201, "time_elapsed": 655734, "internal_node_id": "0.0-8.0-15.0"}}, {"uniqueid": "w60586713:a41931176", "current_trial": 202, "dateTime": 1664464791923, "trialdata": {"rt": 1774, "stimulus": "<p id='stroop-text' class='stroop-red'>RED</p>", "response": "r", "stimulus-type": "congruent", "word": "red", "color": "red", "correct_response": "r", "trial_id": "stroop-trial-1-congruent-5", "trial_type": "html-keyboard-response", "trial_index": 202, "time_elapsed": 658029, "internal_node_id": "0.0-8.0-16.0"}}, {"uniqueid": "w60586713:a41931176", "current_trial": 203, "dateTime": 1664464794144, "trialdata": {"rt": 1702, "stimulus": "<p id='stroop-text' class='stroop-blue'>STONE</p>", "response": "b", "stimulus-type": "unrelated", "word": "STONE", "color": "blue", "correct_response": "b", "trial_id": "stroop-trial-1-unrelated-8", "trial_type": "html-keyboard-response", "trial_index": 203, "time_elapsed": 660250, "internal_node_id": "0.0-8.0-17.0"}}, {"uniqueid": "w60586713:a41931176", "current_trial": 204, "dateTime": 1664464801342, "trialdata": {"rt": 6683, "stimulus": "<p id='stroop-text' class='stroop-red'>RED</p>", "response": "r", "stimulus-type": "congruent", "word": "red", "color": "red", "correct_response": "r", "trial_id": "stroop-trial-1-congruent-23", "trial_type": "html-keyboard-response", "trial_index": 204, "time_elapsed": 667448, "internal_node_id": "0.0-8.0-18.0"}}, {"uniqueid": "w60586713:a41931176", "current_trial": 205, "dateTime": 1664464802739, "trialdata": {"rt": 884, "stimulus": "<p id='stroop-text' class='stroop-green'>WINDOW</p>", "response": "g", "stimulus-type": "unrelated", "word": "WINDOW", "color": "green", "correct_response": "g", "trial_id": "stroop-trial-1-unrelated-25", "trial_type": "html-keyboard-response", "trial_index": 205, "time_elapsed": 668845, "internal_node_id": "0.0-8.0-19.0"}}, {"uniqueid": "w60586713:a41931176", "current_trial": 206, "dateTime": 1664464804633, "trialdata": {"rt": 1380, "stimulus": "<p id='stroop-text' class='stroop-blue'>YELLOW</p>", "response": "b", "stimulus-type": "incongruent", "word": "yellow", "color": "blue", "correct_response": "b", "trial_id": "stroop-trial-1-incongruent-19", "trial_type": "html-keyboard-response", "trial_index": 206, "time_elapsed": 670739, "internal_node_id": "0.0-8.0-20.0"}}, {"uniqueid": "w60586713:a41931176", "current_trial": 207, "dateTime": 1664464806785, "trialdata": {"rt": 1633, "stimulus": "<p id='stroop-text' class='stroop-blue'>WINDOW</p>", "response": "b", "stimulus-type": "unrelated", "word": "WINDOW", "color": "blue", "correct_response": "b", "trial_id": "stroop-trial-1-unrelated-19", "trial_type": "html-keyboard-response", "trial_index": 207, "time_elapsed": 672891, "internal_node_id": "0.0-8.0-21.0"}}, {"uniqueid": "w60586713:a41931176", "current_trial": 208, "dateTime": 1664464807691, "trialdata": {"rt": 392, "stimulus": "<p id='stroop-text' class='stroop-blue'>DOG</p>", "response": "b", "stimulus-type": "unrelated", "word": "DOG", "color": "blue", "correct_response": "b", "trial_id": "stroop-trial-1-unrelated-29", "trial_type": "html-keyboard-response", "trial_index": 208, "time_elapsed": 673798, "internal_node_id": "0.0-8.0-22.0"}}, {"uniqueid": "w60586713:a41931176", "current_trial": 209, "dateTime": 1664464808604, "trialdata": {"rt": 399, "stimulus": "<p id='stroop-text' class='stroop-blue'>BLUE</p>", "response": "b", "stimulus-type": "congruent", "word": "blue", "color": "blue", "correct_response": "b", "trial_id": "stroop-trial-1-congruent-21", "trial_type": "html-keyboard-response", "trial_index": 209, "time_elapsed": 674710, "internal_node_id": "0.0-8.0-23.0"}}, {"uniqueid": "w60586713:a41931176", "current_trial": 210, "dateTime": 1664464810508, "trialdata": {"rt": 1384, "stimulus": "<p id='stroop-text' class='stroop-red'>MONKEY</p>", "response": "r", "stimulus-type": "unrelated", "word": "MONKEY", "color": "red", "correct_response": "r", "trial_id": "stroop-trial-1-unrelated-18", "trial_type": "html-keyboard-response", "trial_index": 210, "time_elapsed": 676614, "internal_node_id": "0.0-8.0-24.0"}}, {"uniqueid": "w60586713:a41931176", "current_trial": 211, "dateTime": 1664464812221, "trialdata": {"rt": 1191, "stimulus": "<p id='stroop-text' class='stroop-yellow'>MONKEY</p>", "response": "y", "stimulus-type": "unrelated", "word": "MONKEY", "color": "yellow", "correct_response": "y", "trial_id": "stroop-trial-1-unrelated-16", "trial_type": "html-keyboard-response", "trial_index": 211, "time_elapsed": 678327, "internal_node_id": "0.0-8.0-25.0"}}, {"uniqueid": "w60586713:a41931176", "current_trial": 212, "dateTime": 1664464814302, "trialdata": {"rt": 1561, "stimulus": "<p id='stroop-text' class='stroop-blue'>GREEN</p>", "response": "b", "stimulus-type": "incongruent", "word": "green", "color": "blue", "correct_response": "b", "trial_id": "stroop-trial-1-incongruent-15", "trial_type": "html-keyboard-response", "trial_index": 212, "time_elapsed": 680408, "internal_node_id": "0.0-8.0-26.0"}}, {"uniqueid": "w60586713:a41931176", "current_trial": 213, "dateTime": 1664464816772, "trialdata": {"rt": 1957, "stimulus": "<p id='stroop-text' class='stroop-blue'>BLUE</p>", "response": "b", "stimulus-type": "congruent", "word": "blue", "color": "blue", "correct_response": "b", "trial_id": "stroop-trial-1-congruent-28", "trial_type": "html-keyboard-response", "trial_index": 213, "time_elapsed": 682878, "internal_node_id": "0.0-8.0-27.0"}}, {"uniqueid": "w60586713:a41931176", "current_trial": 214, "dateTime": 1664464818315, "trialdata": {"rt": 1021, "stimulus": "<p id='stroop-text' class='stroop-red'>RED</p>", "response": "r", "stimulus-type": "congruent", "word": "red", "color": "red", "correct_response": "r", "trial_id": "stroop-trial-1-congruent-30", "trial_type": "html-keyboard-response", "trial_index": 214, "time_elapsed": 684421, "internal_node_id": "0.0-8.0-28.0"}}, {"uniqueid": "w60586713:a41931176", "current_trial": 215, "dateTime": 1664464819685, "trialdata": {"rt": 852, "stimulus": "<p id='stroop-text' class='stroop-green'>BLUE</p>", "response": "b", "stimulus-type": "incongruent", "word": "blue", "color": "green", "correct_response": "g", "trial_id": "stroop-trial-1-incongruent-27", "trial_type": "html-keyboard-response", "trial_index": 215, "time_elapsed": 685791, "internal_node_id": "0.0-8.0-29.0"}}, {"uniqueid": "w60586713:a41931176", "current_trial": 216, "dateTime": 1664464821133, "trialdata": {"rt": 936, "stimulus": "<p id='stroop-text' class='stroop-green'>GREEN</p>", "response": "g", "stimulus-type": "congruent", "word": "green", "color": "green", "correct_response": "g", "trial_id": "stroop-trial-1-congruent-11", "trial_type": "html-keyboard-response", "trial_index": 216, "time_elapsed": 687239, "internal_node_id": "0.0-8.0-30.0"}}, {"uniqueid": "w60586713:a41931176", "current_trial": 217, "dateTime": 1664464822675, "trialdata": {"rt": 1031, "stimulus": "<p id='stroop-text' class='stroop-yellow'>DOG</p>", "response": "y", "stimulus-type": "unrelated", "word": "DOG", "color": "yellow", "correct_response": "y", "trial_id": "stroop-trial-1-unrelated-9", "trial_type": "html-keyboard-response", "trial_index": 217, "time_elapsed": 688781, "internal_node_id": "0.0-8.0-31.0"}}, {"uniqueid": "w60586713:a41931176", "current_trial": 218, "dateTime": 1664464823669, "trialdata": {"rt": 470, "stimulus": "<p id='stroop-text' class='stroop-yellow'>BOAT</p>", "response": "y", "stimulus-type": "unrelated", "word": "BOAT", "color": "yellow", "correct_response": "y", "trial_id": "stroop-trial-1-unrelated-2", "trial_type": "html-keyboard-response", "trial_index": 218, "time_elapsed": 689771, "internal_node_id": "0.0-8.0-32.0"}}, {"uniqueid": "w60586713:a41931176", "current_trial": 219, "dateTime": 1664464824596, "trialdata": {"rt": 415, "stimulus": "<p id='stroop-text' class='stroop-yellow'>BLUE</p>", "response": "y", "stimulus-type": "incongruent", "word": "blue", "color": "yellow", "correct_response": "y", "trial_id": "stroop-trial-1-incongruent-23", "trial_type": "html-keyboard-response", "trial_index": 219, "time_elapsed": 690702, "internal_node_id": "0.0-8.0-33.0"}}, {"uniqueid": "w60586713:a41931176", "current_trial": 220, "dateTime": 1664464826133, "trialdata": {"rt": 1019, "stimulus": "<p id='stroop-text' class='stroop-green'>BRAIN</p>", "response": "g", "stimulus-type": "unrelated", "word": "BRAIN", "color": "green", "correct_response": "g", "trial_id": "stroop-trial-1-unrelated-30", "trial_type": "html-keyboard-response", "trial_index": 220, "time_elapsed": 692240, "internal_node_id": "0.0-8.0-34.0"}}, {"uniqueid": "w60586713:a41931176", "current_trial": 221, "dateTime": 1664464827522, "trialdata": {"rt": 870, "stimulus": "<p id='stroop-text' class='stroop-yellow'>BLUE</p>", "response": "y", "stimulus-type": "incongruent", "word": "blue", "color": "yellow", "correct_response": "y", "trial_id": "stroop-trial-1-incongruent-22", "trial_type": "html-keyboard-response", "trial_index": 221, "time_elapsed": 693628, "internal_node_id": "0.0-8.0-35.0"}}, {"uniqueid": "w60586713:a41931176", "current_trial": 222, "dateTime": 1664464829102, "trialdata": {"rt": 1061, "stimulus": "<p id='stroop-text' class='stroop-red'>RED</p>", "response": "r", "stimulus-t