{"condition": 0, "counterbalance": 0, "assignmentId": "a56888691", "workerId": "w60891482", "hitId": "h30314009", "currenttrial": 965, "bonus": 0, "data": [{"uniqueid": "w60891482:a56888691", "current_trial": 0, "dateTime": 1664367982628, "trialdata": {"success": true, "trial_type": "fullscreen", "trial_index": 0, "time_elapsed": 3324, "internal_node_id": "0.0-0.0"}}, {"uniqueid": "w60891482:a56888691", "current_trial": 1, "dateTime": 1664367996268, "trialdata": {"view_history": [{"page_index": 0, "viewing_time": 13633}], "rt": 13633, "trial_id": "exp_instructions_distractor", "trial_type": "instructions", "trial_index": 1, "time_elapsed": 16965, "internal_node_id": "0.0-1.0"}}, {"uniqueid": "w60891482:a56888691", "current_trial": 2, "dateTime": 1664368008287, "trialdata": {"view_history": [{"page_index": 0, "viewing_time": 12013}], "rt": 12014, "trial_id": "color_game_instructions", "trial_type": "instructions", "trial_index": 2, "time_elapsed": 28984, "internal_node_id": "0.0-2.0"}}, {"uniqueid": "w60891482:a56888691", "current_trial": 3, "dateTime": 1664368011856, "trialdata": {"rt": 3564, "stimulus": "<h1> Get ready to start the game! </h1>\n\nThank you for reading the instructions. Get ready start with the first of 5 block(s) of this game.\n<br><br>\nIn this first block, you will complete 90 rounds of this game before moving on.\n<br><br>\nRemember, the better you perform, the bigger your bonus will be!\n<br><br>\n<div style='text-align: center;'>Press <code>space</code> to begin.</div>", "response": " ", "trial_id": "stroop_1_ready_1", "trial_type": "html-keyboard-response", "trial_index": 3, "time_elapsed": 32552, "internal_node_id": "0.0-3.0"}}, {"uniqueid": "w60891482:a56888691", "current_trial": 4, "dateTime": 1664368013991, "trialdata": {"rt": 2128, "stimulus": "<p id='stroop-text' class='stroop-green'>YELLOW</p>", "response": "g", "stimulus-type": "incongruent", "word": "yellow", "color": "green", "correct_response": "g", "trial_id": "stroop-trial-1-incongruent-23", "trial_type": "html-keyboard-response", "trial_index": 4, "time_elapsed": 34686, "internal_node_id": "0.0-4.0-0.0"}}, {"uniqueid": "w60891482:a56888691", "current_trial": 5, "dateTime": 1664368016207, "trialdata": {"rt": 1712, "stimulus": "<p id='stroop-text' class='stroop-blue'>BLUE</p>", "response": "b", "stimulus-type": "congruent", "word": "blue", "color": "blue", "correct_response": "b", "trial_id": "stroop-trial-1-congruent-16", "trial_type": "html-keyboard-response", "trial_index": 5, "time_elapsed": 36903, "internal_node_id": "0.0-4.0-1.0"}}, {"uniqueid": "w60891482:a56888691", "current_trial": 6, "dateTime": 1664368018110, "trialdata": {"rt": 1398, "stimulus": "<p id='stroop-text' class='stroop-green'>DOG</p>", "response": "g", "stimulus-type": "unrelated", "word": "DOG", "color": "green", "correct_response": "g", "trial_id": "stroop-trial-1-unrelated-1", "trial_type": "html-keyboard-response", "trial_index": 6, "time_elapsed": 38806, "internal_node_id": "0.0-4.0-2.0"}}, {"uniqueid": "w60891482:a56888691", "current_trial": 7, "dateTime": 1664368020134, "trialdata": {"rt": 1520, "stimulus": "<p id='stroop-text' class='stroop-green'>GREEN</p>", "response": "g", "stimulus-type": "congruent", "word": "green", "color": "green", "correct_response": "g", "trial_id": "stroop-trial-1-congruent-14", "trial_type": "html-keyboard-response", "trial_index": 7, "time_elapsed": 40831, "internal_node_id": "0.0-4.0-3.0"}}, {"uniqueid": "w60891482:a56888691", "current_trial": 8, "dateTime": 1664368021894, "trialdata": {"rt": 1258, "stimulus": "<p id='stroop-text' class='stroop-green'>YELLOW</p>", "response": "g", "stimulus-type": "incongruent", "word": "yellow", "color": "green", "correct_response": "g", "trial_id": "stroop-trial-1-incongruent-26", "trial_type": "html-keyboard-response", "trial_index": 8, "time_elapsed": 42591, "internal_node_id": "0.0-4.0-4.0"}}, {"uniqueid": "w60891482:a56888691", "current_trial": 9, "dateTime": 1664368024430, "trialdata": {"rt": 2032, "stimulus": "<p id='stroop-text' class='stroop-yellow'>MONKEY</p>", "response": "y", "stimulus-type": "unrelated", "word": "MONKEY", "color": "yellow", "correct_response": "y", "trial_id": "stroop-trial-1-unrelated-6", "trial_type": "html-keyboard-response", "trial_index": 9, "time_elapsed": 45126, "internal_node_id": "0.0-4.0-5.0"}}, {"uniqueid": "w60891482:a56888691", "current_trial": 10, "dateTime": 1664368026374, "trialdata": {"rt": 1440, "stimulus": "<p id='stroop-text' class='stroop-green'>YELLOW</p>", "response": "g", "stimulus-type": "incongruent", "word": "yellow", "color": "green", "correct_response": "g", "trial_id": "stroop-trial-1-incongruent-30", "trial_type": "html-keyboard-response", "trial_index": 10, "time_elapsed": 47071, "internal_node_id": "0.0-4.0-6.0"}}, {"uniqueid": "w60891482:a56888691", "current_trial": 11, "dateTime": 1664368027806, "trialdata": {"rt": 930, "stimulus": "<p id='stroop-text' class='stroop-yellow'>RED</p>", "response": "y", "stimulus-type": "incongruent", "word": "red", "color": "yellow", "correct_response": "y", "trial_id": "stroop-trial-1-incongruent-24", "trial_type": "html-keyboard-response", "trial_index": 11, "time_elapsed": 48502, "internal_node_id": "0.0-4.0-7.0"}}, {"uniqueid": "w60891482:a56888691", "current_trial": 12, "dateTime": 1664368029175, "trialdata": {"rt": 866, "stimulus": "<p id='stroop-text' class='stroop-green'>SHIP</p>", "response": "g", "stimulus-type": "unrelated", "word": "SHIP", "color": "green", "correct_response": "g", "trial_id": "stroop-trial-1-unrelated-14", "trial_type": "html-keyboard-response", "trial_index": 12, "time_elapsed": 49871, "internal_node_id": "0.0-4.0-8.0"}}, {"uniqueid": "w60891482:a56888691", "current_trial": 13, "dateTime": 1664368031654, "trialdata": {"rt": 1971, "stimulus": "<p id='stroop-text' class='stroop-red'>RED</p>", "response": "r", "stimulus-type": "congruent", "word": "red", "color": "red", "correct_response": "r", "trial_id": "stroop-trial-1-congruent-20", "trial_type": "html-keyboard-response", "trial_index": 13, "time_elapsed": 52351, "internal_node_id": "0.0-4.0-9.0"}}, {"uniqueid": "w60891482:a56888691", "current_trial": 14, "dateTime": 1664368032960, "trialdata": {"rt": 800, "stimulus": "<p id='stroop-text' class='stroop-red'>RED</p>", "response": "r", "stimulus-type": "congruent", "word": "red", "color": "red", "correct_response": "r", "trial_id": "stroop-trial-1-congruent-5", "trial_type": "html-keyboard-response", "trial_index": 14, "time_elapsed": 53655, "internal_node_id": "0.0-4.0-10.0"}}, {"uniqueid": "w60891482:a56888691", "current_trial": 15, "dateTime": 1664368034686, "trialdata": {"rt": 1221, "stimulus": "<p id='stroop-text' class='stroop-blue'>GREEN</p>", "response": "b", "stimulus-type": "incongruent", "word": "green", "color": "blue", "correct_response": "b", "trial_id": "stroop-trial-1-incongruent-11", "trial_type": "html-keyboard-response", "trial_index": 15, "time_elapsed": 55383, "internal_node_id": "0.0-4.0-11.0"}}, {"uniqueid": "w60891482:a56888691", "current_trial": 16, "dateTime": 1664368036302, "trialdata": {"rt": 1111, "stimulus": "<p id='stroop-text' class='stroop-yellow'>BLUE</p>", "response": "b", "stimulus-type": "incongruent", "word": "blue", "color": "yellow", "correct_response": "y", "trial_id": "stroop-trial-1-incongruent-19", "trial_type": "html-keyboard-response", "trial_index": 16, "time_elapsed": 56999, "internal_node_id": "0.0-4.0-12.0"}}, {"uniqueid": "w60891482:a56888691", "current_trial": 17, "dateTime": 1664368037918, "trialdata": {"rt": 1114, "stimulus": "<p id='stroop-text' class='stroop-green'>GREEN</p>", "response": "g", "stimulus-type": "congruent", "word": "green", "color": "green", "correct_response": "g", "trial_id": "stroop-trial-1-congruent-18", "trial_type": "html-keyboard-response", "trial_index": 17, "time_elapsed": 58614, "internal_node_id": "0.0-4.0-13.0"}}, {"uniqueid": "w60891482:a56888691", "current_trial": 18, "dateTime": 1664368040342, "trialdata": {"rt": 1921, "stimulus": "<p id='stroop-text' class='stroop-green'>BRIDGE</p>", "response": "g", "stimulus-type": "unrelated", "word": "BRIDGE", "color": "green", "correct_response": "g", "trial_id": "stroop-trial-1-unrelated-5", "trial_type": "html-keyboard-response", "trial_index": 18, "time_elapsed": 61039, "internal_node_id": "0.0-4.0-14.0"}}, {"uniqueid": "w60891482:a56888691", "current_trial": 19, "dateTime": 1664368041981, "trialdata": {"rt": 1138, "stimulus": "<p id='stroop-text' class='stroop-red'>RED</p>", "response": "r", "stimulus-type": "congruent", "word": "red", "color": "red", "correct_response": "r", "trial_id": "stroop-trial-1-congruent-1", "trial_type": "html-keyboard-response", "trial_index": 19, "time_elapsed": 62678, "internal_node_id": "0.0-4.0-15.0"}}, {"uniqueid": "w60891482:a56888691", "current_trial": 20, "dateTime": 1664368043597, "trialdata": {"rt": 1110, "stimulus": "<p id='stroop-text' class='stroop-blue'>BLUE</p>", "response": "b", "stimulus-type": "congruent", "word": "blue", "color": "blue", "correct_response": "b", "trial_id": "stroop-trial-1-congruent-28", "trial_type": "html-keyboard-response", "trial_index": 20, "time_elapsed": 64294, "internal_node_id": "0.0-4.0-16.0"}}, {"uniqueid": "w60891482:a56888691", "current_trial": 21, "dateTime": 1664368045054, "trialdata": {"rt": 954, "stimulus": "<p id='stroop-text' class='stroop-blue'>MONKEY</p>", "response": "b", "stimulus-type": "unrelated", "word": "MONKEY", "color": "blue", "correct_response": "b", "trial_id": "stroop-trial-1-unrelated-8", "trial_type": "html-keyboard-response", "trial_index": 21, "time_elapsed": 65750, "internal_node_id": "0.0-4.0-17.0"}}, {"uniqueid": "w60891482:a56888691", "current_trial": 22, "dateTime": 1664368046566, "trialdata": {"rt": 1008, "stimulus": "<p id='stroop-text' class='stroop-red'>BRAIN</p>", "response": "r", "stimulus-type": "unrelated", "word": "BRAIN", "color": "red", "correct_response": "r", "trial_id": "stroop-trial-1-unrelated-15", "trial_type": "html-keyboard-response", "trial_index": 22, "time_elapsed": 67262, "internal_node_id": "0.0-4.0-18.0"}}, {"uniqueid": "w60891482:a56888691", "current_trial": 23, "dateTime": 1664368048366, "trialdata": {"rt": 1290, "stimulus": "<p id='stroop-text' class='stroop-blue'>CHAIR</p>", "response": "b", "stimulus-type": "unrelated", "word": "CHAIR", "color": "blue", "correct_response": "b", "trial_id": "stroop-trial-1-unrelated-13", "trial_type": "html-keyboard-response", "trial_index": 23, "time_elapsed": 69062, "internal_node_id": "0.0-4.0-19.0"}}, {"uniqueid": "w60891482:a56888691", "current_trial": 24, "dateTime": 1664368049598, "trialdata": {"rt": 729, "stimulus": "<p id='stroop-text' class='stroop-blue'>BLUE</p>", "response": "b", "stimulus-type": "congruent", "word": "blue", "color": "blue", "correct_response": "b", "trial_id": "stroop-trial-1-congruent-6", "trial_type": "html-keyboard-response", "trial_index": 24, "time_elapsed": 70295, "internal_node_id": "0.0-4.0-20.0"}}, {"uniqueid": "w60891482:a56888691", "current_trial": 25, "dateTime": 1664368051342, "trialdata": {"rt": 1241, "stimulus": "<p id='stroop-text' class='stroop-red'>MONKEY</p>", "response": "r", "stimulus-type": "unrelated", "word": "MONKEY", "color": "red", "correct_response": "r", "trial_id": "stroop-trial-1-unrelated-2", "trial_type": "html-keyboard-response", "trial_index": 25, "time_elapsed": 72039, "internal_node_id": "0.0-4.0-21.0"}}, {"uniqueid": "w60891482:a56888691", "current_trial": 26, "dateTime": 1664368053077, "trialdata": {"rt": 1233, "stimulus": "<p id='stroop-text' class='stroop-yellow'>BLUE</p>", "response": "y", "stimulus-type": "incongruent", "word": "blue", "color": "yellow", "correct_response": "y", "trial_id": "stroop-trial-1-incongruent-25", "trial_type": "html-keyboard-response", "trial_index": 26, "time_elapsed": 73773, "internal_node_id": "0.0-4.0-22.0"}}, {"uniqueid": "w60891482:a56888691", "current_trial": 27, "dateTime": 1664368054445, "trialdata": {"rt": 864, "stimulus": "<p id='stroop-text' class='stroop-blue'>BLUE</p>", "response": "b", "stimulus-type": "congruent", "word": "blue", "color": "blue", "correct_response": "b", "trial_id": "stroop-trial-1-congruent-24", "trial_type": "html-keyboard-response", "trial_index": 27, "time_elapsed": 75142, "internal_node_id": "0.0-4.0-23.0"}}, {"uniqueid": "w60891482:a56888691", "current_trial": 28, "dateTime": 1664368056165, "trialdata": {"rt": 1216, "stimulus": "<p id='stroop-text' class='stroop-yellow'>YELLOW</p>", "response": "y", "stimulus-type": "congruent", "word": "yellow", "color": "yellow", "correct_response": "y", "trial_id": "stroop-trial-1-congruent-21", "trial_type": "html-keyboard-response", "trial_index": 28, "time_elapsed": 76862, "internal_node_id": "0.0-4.0-24.0"}}, {"uniqueid": "w60891482:a56888691", "current_trial": 29, "dateTime": 1664368057655, "trialdata": {"rt": 985, "stimulus": "<p id='stroop-text' class='stroop-red'>YELLOW</p>", "response": "r", "stimulus-type": "incongruent", "word": "yellow", "color": "red", "correct_response": "r", "trial_id": "stroop-trial-1-incongruent-18", "trial_type": "html-keyboard-response", "trial_index": 29, "time_elapsed": 78350, "internal_node_id": "0.0-4.0-25.0"}}, {"uniqueid": "w60891482:a56888691", "current_trial": 30, "dateTime": 1664368059165, "trialdata": {"rt": 1008, "stimulus": "<p id='stroop-text' class='stroop-blue'>GREEN</p>", "response": "b", "stimulus-type": "incongruent", "word": "green", "color": "blue", "correct_response": "b", "trial_id": "stroop-trial-1-incongruent-7", "trial_type": "html-keyboard-response", "trial_index": 30, "time_elapsed": 79861, "internal_node_id": "0.0-4.0-26.0"}}, {"uniqueid": "w60891482:a56888691", "current_trial": 31, "dateTime": 1664368060669, "trialdata": {"rt": 1000, "stimulus": "<p id='stroop-text' class='stroop-blue'>YELLOW</p>", "response": "b", "stimulus-type": "incongruent", "word": "yellow", "color": "blue", "correct_response": "b", "trial_id": "stroop-trial-1-incongruent-5", "trial_type": "html-keyboard-response", "trial_index": 31, "time_elapsed": 81366, "internal_node_id": "0.0-4.0-27.0"}}, {"uniqueid": "w60891482:a56888691", "current_trial": 32, "dateTime": 1664368063949, "trialdata": {"rt": 2775, "stimulus": "<p id='stroop-text' class='stroop-green'>BLUE</p>", "response": "g", "stimulus-type": "incongruent", "word": "blue", "color": "green", "correct_response": "g", "trial_id": "stroop-trial-1-incongruent-3", "trial_type": "html-keyboard-response", "trial_index": 32, "time_elapsed": 84646, "internal_node_id": "0.0-4.0-28.0"}}, {"uniqueid": "w60891482:a56888691", "current_trial": 33, "dateTime": 1664368065405, "trialdata": {"rt": 952, "stimulus": "<p id='stroop-text' class='stroop-green'>FORK</p>", "response": "g", "stimulus-type": "unrelated", "word": "FORK", "color": "green", "correct_response": "g", "trial_id": "stroop-trial-1-unrelated-27", "trial_type": "html-keyboard-response", "trial_index": 33, "time_elapsed": 86102, "internal_node_id": "0.0-4.0-29.0"}}, {"uniqueid": "w60891482:a56888691", "current_trial": 34, "dateTime": 1664368067229, "trialdata": {"rt": 1321, "stimulus": "<p id='stroop-text' class='stroop-yellow'>GREEN</p>", "response": "y", "stimulus-type": "incongruent", "word": "green", "color": "yellow", "correct_response": "y", "trial_id": "stroop-trial-1-incongruent-2", "trial_type": "html-keyboard-response", "trial_index": 34, "time_elapsed": 87926, "internal_node_id": "0.0-4.0-30.0"}}, {"uniqueid": "w60891482:a56888691", "current_trial": 35, "dateTime": 1664368068502, "trialdata": {"rt": 769, "stimulus": "<p id='stroop-text' class='stroop-yellow'>RED</p>", "response": "y", "stimulus-type": "incongruent", "word": "red", "color": "yellow", "correct_response": "y", "trial_id": "stroop-trial-1-incongruent-22", "trial_type": "html-keyboard-response", "trial_index": 35, "time_elapsed": 89198, "internal_node_id": "0.0-4.0-31.0"}}, {"uniqueid": "w60891482:a56888691", "current_trial": 36, "dateTime": 1664368069693, "trialdata": {"rt": 688, "stimulus": "<p id='stroop-text' class='stroop-yellow'>BLUE</p>", "response": "y", "stimulus-type": "incongruent", "word": "blue", "color": "yellow", "correct_response": "y", "trial_id": "stroop-trial-1-incongruent-28", "trial_type": "html-keyboard-response", "trial_index": 36, "time_elapsed": 90390, "internal_node_id": "0.0-4.0-32.0"}}, {"uniqueid": "w60891482:a56888691", "current_trial": 37, "dateTime": 1664368071493, "trialdata": {"rt": 1292, "stimulus": "<p id='stroop-text' class='stroop-green'>DOG</p>", "response": "g", "stimulus-type": "unrelated", "word": "DOG", "color": "green", "correct_response": "g", "trial_id": "stroop-trial-1-unrelated-24", "trial_type": "html-keyboard-response", "trial_index": 37, "time_elapsed": 92189, "internal_node_id": "0.0-4.0-33.0"}}, {"uniqueid": "w60891482:a56888691", "current_trial": 38, "dateTime": 1664368073293, "trialdata": {"rt": 1297, "stimulus": "<p id='stroop-text' class='stroop-yellow'>YELLOW</p>", "response": "y", "stimulus-type": "congruent", "word": "yellow", "color": "yellow", "correct_response": "y", "trial_id": "stroop-trial-1-congruent-7", "trial_type": "html-keyboard-response", "trial_index": 38, "time_elapsed": 93990, "internal_node_id": "0.0-4.0-34.0"}}, {"uniqueid": "w60891482:a56888691", "current_trial": 39, "dateTime": 1664368074821, "trialdata": {"rt": 1024, "stimulus": "<p id='stroop-text' class='stroop-yellow'>STONE</p>", "response": "y", "stimulus-type": "unrelated", "word": "STONE", "color": "yellow", "correct_response": "y", "trial_id": "stroop-trial-1-unrelated-7", "trial_type": "html-keyboard-response", "trial_index": 39, "time_elapsed": 95517, "internal_node_id": "0.0-4.0-35.0"}}, {"uniqueid": "w60891482:a56888691", "current_trial": 40, "dateTime": 1664368077077, "trialdata": {"rt": 1752, "stimulus": "<p id='stroop-text' class='stroop-red'>RED</p>", "response": "r", "stimulus-type": "congruent", "word": "red", "color": "red", "correct_response": "r", "trial_id": "stroop-trial-1-congruent-17", "trial_type": "html-keyboard-response", "trial_index": 40, "time_elapsed": 97774, "internal_node_id": "0.0-4.0-36.0"}}, {"uniqueid": "w60891482:a56888691", "current_trial": 41, "dateTime": 1664368078077, "trialdata": {"rt": 497, "stimulus": "<p id='stroop-text' class='stroop-red'>RED</p>", "response": "r", "stimulus-type": "congruent", "word": "red", "color": "red", "correct_response": "r", "trial_id": "stroop-trial-1-congruent-26", "trial_type": "html-keyboard-response", "trial_index": 41, "time_elapsed": 98774, "internal_node_id": "0.0-4.0-37.0"}}, {"uniqueid": "w60891482:a56888691", "current_trial": 42, "dateTime": 1664368080084, "trialdata": {"rt": 1503, "stimulus": "<p id='stroop-text' class='stroop-green'>YELLOW</p>", "response": "g", "stimulus-type": "incongruent", "word": "yellow", "color": "green", "correct_response": "g", "trial_id": "stroop-trial-1-incongruent-20", "trial_type": "html-keyboard-response", "trial_index": 42, "time_elapsed": 100781, "internal_node_id": "0.0-4.0-38.0"}}, {"uniqueid": "w60891482:a56888691", "current_trial": 43, "dateTime": 1664368081196, "trialdata": {"rt": 609, "stimulus": "<p id='stroop-text' class='stroop-green'>YELLOW</p>", "response": "g", "stimulus-type": "incongruent", "word": "yellow", "color": "green", "correct_response": "g", "trial_id": "stroop-trial-1-incongruent-12", "trial_type": "html-keyboard-response", "trial_index": 43, "time_elapsed": 101893, "internal_node_id": "0.0-4.0-39.0"}}, {"uniqueid": "w60891482:a56888691", "current_trial": 44, "dateTime": 1664368083316, "trialdata": {"rt": 1616, "stimulus": "<p id='stroop-text' class='stroop-red'>RED</p>", "response": "r", "stimulus-type": "congruent", "word": "red", "color": "red", "correct_response": "r", "trial_id": "stroop-trial-1-congruent-8", "trial_type": "html-keyboard-response", "trial_index": 44, "time_elapsed": 104013, "internal_node_id": "0.0-4.0-40.0"}}, {"uniqueid": "w60891482:a56888691", "current_trial": 45, "dateTime": 1664368085013, "trialdata": {"rt": 1193, "stimulus": "<p id='stroop-text' class='stroop-red'>BRAIN</p>", "response": "r", "stimulus-type": "unrelated", "word": "BRAIN", "color": "red", "correct_response": "r", "trial_id": "stroop-trial-1-unrelated-28", "trial_type": "html-keyboard-response", "trial_index": 45, "time_elapsed": 105710, "internal_node_id": "0.0-4.0-41.0"}}, {"uniqueid": "w60891482:a56888691", "current_trial": 46, "dateTime": 1664368086525, "trialdata": {"rt": 1008, "stimulus": "<p id='stroop-text' class='stroop-blue'>WINDOW</p>", "response": "b", "stimulus-type": "unrelated", "word": "WINDOW", "color": "blue", "correct_response": "b", "trial_id": "stroop-trial-1-unrelated-26", "trial_type": "html-keyboard-response", "trial_index": 46, "time_elapsed": 107221, "internal_node_id": "0.0-4.0-42.0"}}, {"uniqueid": "w60891482:a56888691", "current_trial": 47, "dateTime": 1664368088453, "trialdata": {"rt": 1424, "stimulus": "<p id='stroop-text' class='stroop-green'>GREEN</p>", "response": "g", "stimulus-type": "congruent", "word": "green", "color": "green", "correct_response": "g", "trial_id": "stroop-trial-1-congruent-10", "trial_type": "html-keyboard-response", "trial_index": 47, "time_elapsed": 109149, "internal_node_id": "0.0-4.0-43.0"}}, {"uniqueid": "w60891482:a56888691", "current_trial": 48, "dateTime": 1664368090005, "trialdata": {"rt": 1047, "stimulus": "<p id='stroop-text' class='stroop-yellow'>CHAIR</p>", "response": "y", "stimulus-type": "unrelated", "word": "CHAIR", "color": "yellow", "correct_response": "y", "trial_id": "stroop-trial-1-unrelated-3", "trial_type": "html-keyboard-response", "trial_index": 48, "time_elapsed": 110702, "internal_node_id": "0.0-4.0-44.0"}}, {"uniqueid": "w60891482:a56888691", "current_trial": 49, "dateTime": 1664368091076, "trialdata": {"rt": 568, "stimulus": "<p id='stroop-text' class='stroop-yellow'>CHAIR</p>", "response": "y", "stimulus-type": "unrelated", "word": "CHAIR", "color": "yellow", "correct_response": "y", "trial_id": "stroop-trial-1-unrelated-22", "trial_type": "html-keyboard-response", "trial_index": 49, "time_elapsed": 111773, "internal_node_id": "0.0-4.0-45.0"}}, {"uniqueid": "w60891482:a56888691", "current_trial": 50, "dateTime": 1664368092652, "trialdata": {"rt": 1073, "stimulus": "<p id='stroop-text' class='stroop-green'>STONE</p>", "response": "g", "stimulus-type": "unrelated", "word": "STONE", "color": "green", "correct_response": "g", "trial_id": "stroop-trial-1-unrelated-10", "trial_type": "html-keyboard-response", "trial_index": 50, "time_elapsed": 113349, "internal_node_id": "0.0-4.0-46.0"}}, {"uniqueid": "w60891482:a56888691", "current_trial": 51, "dateTime": 1664368094045, "trialdata": {"rt": 887, "stimulus": "<p id='stroop-text' class='stroop-green'>YELLOW</p>", "response": "g", "stimulus-type": "incongruent", "word": "yellow", "color": "green", "correct_response": "g", "trial_id": "stroop-trial-1-incongruent-8", "trial_type": "html-keyboard-response", "trial_index": 51, "time_elapsed": 114742, "internal_node_id": "0.0-4.0-47.0"}}, {"uniqueid": "w60891482:a56888691", "current_trial": 52, "dateTime": 1664368095709, "trialdata": {"rt": 1156, "stimulus": "<p id='stroop-text' class='stroop-yellow'>GREEN</p>", "response": "y", "stimulus-type": "incongruent", "word": "green", "color": "yellow", "correct_response": "y", "trial_id": "stroop-trial-1-incongruent-9", "trial_type": "html-keyboard-response", "trial_index": 52, "time_elapsed": 116405, "internal_node_id": "0.0-4.0-48.0"}}, {"uniqueid": "w60891482:a56888691", "current_trial": 53, "dateTime": 1664368096845, "trialdata": {"rt": 630, "stimulus": "<p id='stroop-text' class='stroop-yellow'>YELLOW</p>", "response": "y", "stimulus-type": "congruent", "word": "yellow", "color": "yellow", "correct_response": "y", "trial_id": "stroop-trial-1-congruent-19", "trial_type": "html-keyboard-response", "trial_index": 53, "time_elapsed": 117542, "internal_node_id": "0.0-4.0-49.0"}}, {"uniqueid": "w60891482:a56888691", "current_trial": 54, "dateTime": 1664368098637, "trialdata": {"rt": 1288, "stimulus": "<p id='stroop-text' class='stroop-red'>BRIDGE</p>", "response": "r", "stimulus-type": "unrelated", "word": "BRIDGE", "color": "red", "correct_response": "r", "trial_id": "stroop-trial-1-unrelated-25", "trial_type": "html-keyboard-response", "trial_index": 54, "time_elapsed": 119334, "internal_node_id": "0.0-4.0-50.0"}}, {"uniqueid": "w60891482:a56888691", "current_trial": 55, "dateTime": 1664368100365, "trialdata": {"rt": 1223, "stimulus": "<p id='stroop-text' class='stroop-yellow'>YELLOW</p>", "response": "y", "stimulus-type": "congruent", "word": "yellow", "color": "yellow", "correct_response": "y", "trial_id": "stroop-trial-1-congruent-15", "trial_type": "html-keyboard-response", "trial_index": 55, "time_elapsed": 121061, "internal_node_id": "0.0-4.0-51.0"}}, {"uniqueid": "w60891482:a56888691", "current_trial": 56, "dateTime": 1664368101365, "trialdata": {"rt": 496, "stimulus": "<p id='stroop-text' class='stroop-yellow'>YELLOW</p>", "response": "y", "stimulus-type": "congruent", "word": "yellow", "color": "yellow", "correct_response": "y", "trial_id": "stroop-trial-1-congruent-3", "trial_type": "html-keyboard-response", "trial_index": 56, "time_elapsed": 122061, "internal_node_id": "0.0-4.0-52.0"}}, {"uniqueid": "w60891482:a56888691", "current_trial": 57, "dateTime": 1664368102942, "trialdata": {"rt": 1071, "stimulus": "<p id='stroop-text' class='stroop-blue'>BLUE</p>", "response": "b", "stimulus-type": "congruent", "word": "blue", "color": "blue", "correct_response": "b", "trial_id": "stroop-trial-1-congruent-29", "trial_type": "html-keyboard-response", "trial_index": 57, "time_elapsed": 123637, "internal_node_id": "0.0-4.0-53.0"}}, {"uniqueid": "w60891482:a56888691", "current_trial": 58, "dateTime": 1664368104286, "trialdata": {"rt": 836, "stimulus": "<p id='stroop-text' class='stroop-yellow'>YELLOW</p>", "response": "y", "stimulus-type": "congruent", "word": "yellow", "color": "yellow", "correct_response": "y", "trial_id": "stroop-trial-1-congruent-25", "trial_type": "html-keyboard-response", "trial_index": 58, "time_elapsed": 124980, "internal_node_id": "0.0-4.0-54.0"}}, {"uniqueid": "w60891482:a56888691", "current_trial": 59, "dateTime": 1664368106069, "trialdata": {"rt": 1280, "stimulus": "<p id='stroop-text' class='stroop-green'>BLUE</p>", "response": "g", "stimulus-type": "incongruent", "word": "blue", "color": "green", "correct_response": "g", "trial_id": "stroop-trial-1-incongruent-27", "trial_type": "html-keyboard-response", "trial_index": 59, "time_elapsed": 126765, "internal_node_id": "0.0-4.0-55.0"}}, {"uniqueid": "w60891482:a56888691", "current_trial": 60, "dateTime": 1664368107588, "trialdata": {"rt": 1014, "stimulus": "<p id='stroop-text' class='stroop-yellow'>BOTTLE</p>", "response": "y", "stimulus-type": "unrelated", "word": "BOTTLE", "color": "yellow", "correct_response": "y", "trial_id": "stroop-trial-1-unrelated-20", "trial_type": "html-keyboard-response", "trial_index": 60, "time_elapsed": 128284, "internal_node_id": "0.0-4.0-56.0"}}, {"uniqueid": "w60891482:a56888691", "current_trial": 61, "dateTime": 1664368109333, "trialdata": {"rt": 1239, "stimulus": "<p id='stroop-text' class='stroop-blue'>GREEN</p>", "response": "b", "stimulus-type": "incongruent", "word": "green", "color": "blue", "correct_response": "b", "trial_id": "stroop-trial-1-incongruent-14", "trial_type": "html-keyboard-response", "trial_index": 61, "time_elapsed": 130029, "internal_node_id": "0.0-4.0-57.0"}}, {"uniqueid": "w60891482:a56888691", "current_trial": 62, "dateTime": 1664368110452, "trialdata": {"rt": 616, "stimulus": "<p id='stroop-text' class='stroop-blue'>BLUE</p>", "response": "b", "stimulus-type": "congruent", "word": "blue", "color": "blue", "correct_response": "b", "trial_id": "stroop-trial-1-congruent-23", "trial_type": "html-keyboard-response", "trial_index": 62, "time_elapsed": 131149, "internal_node_id": "0.0-4.0-58.0"}}, {"uniqueid": "w60891482:a56888691", "current_trial": 63, "dateTime": 1664368111940, "trialdata": {"rt": 985, "stimulus": "<p id='stroop-text' class='stroop-yellow'>MONKEY</p>", "response": "y", "stimulus-type": "unrelated", "word": "MONKEY", "color": "yellow", "correct_response": "y", "trial_id": "stroop-trial-1-unrelated-30", "trial_type": "html-keyboard-response", "trial_index": 63, "time_elapsed": 132637, "internal_node_id": "0.0-4.0-59.0"}}, {"uniqueid": "w60891482:a56888691", "current_trial": 64, "dateTime": 1664368113268, "trialdata": {"rt": 825, "stimulus": "<p id='stroop-text' class='stroop-red'>BLUE</p>", "response": "r", "stimulus-type": "incongruent", "word": "blue", "color": "red", "correct_response": "r", "trial_id": "stroop-trial-1-incongruent-15", "trial_type": "html-keyboard-response", "trial_index": 64, "time_elapsed": 133965, "internal_node_id": "0.0-4.0-60.0"}}, {"uniqueid": "w60891482:a56888691", "current_trial": 65, "dateTime": 1664368114428, "trialdata": {"rt": 657, "stimulus": "<p id='stroop-text' class='stroop-red'>BLUE</p>", "response": "r", "stimulus-type": "incongruent", "word": "blue", "color": "red", "correct_response": "r", "trial_id": "stroop-trial-1-incongruent-16", "trial_type": "html-keyboard-response", "trial_index": 65, "time_elapsed": 135125, "internal_node_id": "0.0-4.0-61.0"}}, {"uniqueid": "w60891482:a56888691", "current_trial": 66, "dateTime": 1664368115596, "trialdata": {"rt": 664, "stimulus": "<p id='stroop-text' class='stroop-red'>RED</p>", "response": "r", "stimulus-type": "congruent", "word": "red", "color": "red", "correct_response": "r", "trial_id": "stroop-trial-1-congruent-13", "trial_type": "html-keyboard-response", "trial_index": 66, "time_elapsed": 136292, "internal_node_id": "0.0-4.0-62.0"}}, {"uniqueid": "w60891482:a56888691", "current_trial": 67, "dateTime": 1664368117164, "trialdata": {"rt": 1065, "stimulus": "<p id='stroop-text' class='stroop-yellow'>RED</p>", "response": "y", "stimulus-type": "incongruent", "word": "red", "color": "yellow", "correct_response": "y", "trial_id": "stroop-trial-1-incongruent-21", "trial_type": "html-keyboard-response", "trial_index": 67, "time_elapsed": 137861, "internal_node_id": "0.0-4.0-63.0"}}, {"uniqueid": "w60891482:a56888691", "current_trial": 68, "dateTime": 1664368118845, "trialdata": {"rt": 1176, "stimulus": "<p id='stroop-text' class='stroop-green'>CHAIR</p>", "response": "g", "stimulus-type": "unrelated", "word": "CHAIR", "color": "green", "correct_response": "g", "trial_id": "stroop-trial-1-unrelated-17", "trial_type": "html-keyboard-response", "trial_index": 68, "time_elapsed": 139541, "internal_node_id": "0.0-4.0-64.0"}}, {"uniqueid": "w60891482:a56888691", "current_trial": 69, "dateTime": 1664368120244, "trialdata": {"rt": 894, "stimulus": "<p id='stroop-text' class='stroop-blue'>BRIDGE</p>", "response": "b", "stimulus-type": "unrelated", "word": "BRIDGE", "color": "blue", "correct_response": "b", "trial_id": "stroop-trial-1-unrelated-19", "trial_type": "html-keyboard-response", "trial_index": 69, "time_elapsed": 140941, "internal_node_id": "0.0-4.0-65.0"}}, {"uniqueid": "w60891482:a56888691", "current_trial": 70, "dateTime": 1664368122644, "trialdata": {"rt": 1896, "stimulus": "<p id='stroop-text' class='stroop-red'>RED</p>", "response": "r", "stimulus-type": "congruent", "word": "red", "color": "red", "correct_response": "r", "trial_id": "stroop-trial-1-congruent-12", "trial_type": "html-keyboard-response", "trial_index": 70, "time_elapsed": 143341, "internal_node_id": "0.0-4.0-66.0"}}, {"uniqueid": "w60891482:a56888691", "current_trial": 71, "dateTime": 1664368124284, "trialdata": {"rt": 1135, "stimulus": "<p id='stroop-text' class='stroop-yellow'>RED</p>", "response": "y", "stimulus-type": "incongruent", "word": "red", "color": "yellow", "correct_response": "y", "trial_id": "stroop-trial-1-incongruent-13", "trial_type": "html-keyboard-response", "trial_index": 71, "time_elapsed": 144980, "internal_node_id": "0.0-4.0-67.0"}}, {"uniqueid": "w60891482:a56888691", "current_trial": 72, "dateTime": 1664368125484, "trialdata": {"rt": 697, "stimulus": "<p id='stroop-text' class='stroop-yellow'>DOG</p>", "response": "y", "stimulus-type": "unrelated", "word": "DOG", "color": "yellow", "correct_response": "y", "trial_id": "stroop-trial-1-unrelated-23", "trial_type": "html-keyboard-response", "trial_index": 72, "time_elapsed": 146180, "internal_node_id": "0.0-4.0-68.0"}}, {"uniqueid": "w60891482:a56888691", "current_trial": 73, "dateTime": 1664368127100, "trialdata": {"rt": 1114, "stimulus": "<p id='stroop-text' class='stroop-blue'>SHIP</p>", "response": "b", "stimulus-type": "unrelated", "word": "SHIP", "color": "blue", "correct_response": "b", "trial_id": "stroop-trial-1-unrelated-18", "trial_type": "html-keyboard-response", "trial_index": 73, "time_elapsed": 147796, "internal_node_id": "0.0-4.0-69.0"}}, {"uniqueid": "w60891482:a56888691", "current_trial": 74, "dateTime": 1664368128820, "trialdata": {"rt": 1217, "stimulus": "<p id='stroop-text' class='stroop-red'>MONKEY</p>", "response": "r", "stimulus-type": "unrelated", "word": "MONKEY", "color": "red", "correct_response": "r", "trial_id": "stroop-trial-1-unrelated-9", "trial_type": "html-keyboard-response", "trial_index": 74, "time_elapsed": 149516, "internal_node_id": "0.0-4.0-70.0"}}, {"uniqueid": "w60891482:a56888691", "current_trial": 75, "dateTime": 1664368130620, "trialdata": {"rt": 1296, "stimulus": "<p id='stroop-text' class='stroop-yellow'>BLUE</p>", "response": "y", "stimulus-type": "incongruent", "word": "blue", "color": "yellow", "correct_response": "y", "trial_id": "stroop-trial-1-incongruent-4", "trial_type": "html-keyboard-response", "trial_index": 75, "time_elapsed": 151317, "internal_node_id": "0.0-4.0-71.0"}}, {"uniqueid": "w60891482:a56888691", "current_trial": 76, "dateTime": 1664368132123, "trialdata": {"rt": 999, "stimulus": "<p id='stroop-text' class='stroop-blue'>BLUE</p>", "response": "b", "stimulus-type": "congruent", "word": "blue", "color": "blue", "correct_response": "b", "trial_id": "stroop-trial-1-congruent-22", "trial_type": "html-keyboard-response", "trial_index": 76, "time_elapsed": 152820, "internal_node_id": "0.0-4.0-72.0"}}, {"uniqueid": "w60891482:a56888691", "current_trial": 77, "dateTime": 1664368133732, "trialdata": {"rt": 1104, "stimulus": "<p id='stroop-text' class='stroop-red'>RED</p>", "response": "r", "stimulus-type": "congruent", "word": "red", "color": "red", "correct_response": "r", "trial_id": "stroop-trial-1-congruent-9", "trial_type": "html-keyboard-response", "trial_index": 77, "time_elapsed": 154428, "internal_node_id": "0.0-4.0-73.0"}}, {"uniqueid": "w60891482:a56888691", "current_trial": 78, "dateTime": 1664368135420, "trialdata": {"rt": 1184, "stimulus": "<p id='stroop-text' class='stroop-yellow'>BRIDGE</p>", "response": "y", "stimulus-type": "unrelated", "word": "BRIDGE", "color": "yellow", "correct_response": "y", "trial_id": "stroop-trial-1-unrelated-4", "trial_type": "html-keyboard-response", "trial_index": 78, "time_elapsed": 156117, "internal_node_id": "0.0-4.0-74.0"}}, {"uniqueid": "w60891482:a56888691", "current_trial": 79, "dateTime": 1664368136484, "trialdata": {"rt": 561, "stimulus": "<p id='stroop-text' class='stroop-yellow'>SHIP</p>", "response": "y", "stimulus-type": "unrelated", "word": "SHIP", "color": "yellow", "correct_response": "y", "trial_id": "stroop-trial-1-unrelated-29", "trial_type": "html-keyboard-response", "trial_index": 79, "time_elapsed": 157181, "internal_node_id": "0.0-4.0-75.0"}}, {"uniqueid": "w60891482:a56888691", "current_trial": 80, "dateTime": 1664368138052, "trialdata": {"rt": 1066, "stimulus": "<p id='stroop-text' class='stroop-red'>RED</p>", "response": "r", "stimulus-type": "congruent", "word": "red", "color": "red", "correct_response": "r", "trial_id": "stroop-trial-1-congruent-27", "trial_type": "html-keyboard-response", "trial_index": 80, "time_elapsed": 158749, "internal_node_id": "0.0-4.0-76.0"}}, {"uniqueid": "w60891482:a56888691", "current_trial": 81, "dateTime": 1664368139388, "trialdata": {"rt": 832, "stimulus": "<p id='stroop-text' class='stroop-blue'>BLUE</p>", "response": "b", "stimulus-type": "congruent", "word": "blue", "color": "blue", "correct_response": "b", "trial_id": "stroop-trial-1-congruent-11", "trial_type": "html-keyboard-response", "trial_index": 81, "time_elapsed": 160085, "internal_node_id": "0.0-4.0-77.0"}}, {"uniqueid": "w60891482:a56888691", "current_trial": 82, "dateTime": 1664368141660, "trialdata": {"rt": 1769, "stimulus": "<p id='stroop-text' class='stroop-green'>DOG</p>", "response": "g", "stimulus-type": "unrelated", "word": "DOG", "color": "green", "correct_response": "g", "trial_id": "stroop-trial-1-unrelated-21", "trial_type": "html-keyboard-response", "trial_index": 82, "time_elapsed": 162356, "internal_node_id": "0.0-4.0-78.0"}}, {"uniqueid": "w60891482:a56888691", "current_trial": 83, "dateTime": 1664368143331, "trialdata": {"rt": 1167, "stimulus": "<p id='stroop-text' class='stroop-yellow'>BLUE</p>", "response": "y", "stimulus-type": "incongruent", "word": "blue", "color": "yellow", "correct_response": "y", "trial_id": "stroop-trial-1-incongruent-1", "trial_type": "html-keyboard-response", "trial_index": 83, "time_elapsed": 164028, "internal_node_id": "0.0-4.0-79.0"}}, {"uniqueid": "w60891482:a56888691", "current_trial": 84, "dateTime": 1664368144876, "trialdata": {"rt": 1041, "stimulus": "<p id='stroop-text' class='stroop-blue'>GREEN</p>", "response": "b", "stimulus-type": "incongruent", "word": "green", "color": "blue", "correct_response": "b", "trial_id": "stroop-trial-1-incongruent-10", "trial_type": "html-keyboard-response", "trial_index": 84, "time_elapsed": 165572, "internal_node_id": "0.0-4.0-80.0"}}, {"uniqueid": "w60891482:a56888691", "current_trial": 85, "dateTime": 1664368147107, "trialdata": {"rt": 1728, "stimulus": "<p id='stroop-text' class='stroop-green'>RED</p>", "response": "g", "stimulus-type": "incongruent", "word": "red", "color": "green", "correct_response": "g", "trial_id": "stroop-trial-1-incongruent-17", "trial_type": "html-keyboard-response", "trial_index": 85, "time_elapsed": 167804, "internal_node_id": "0.0-4.0-81.0"}}, {"uniqueid": "w60891482:a56888691", "current_trial": 86, "dateTime": 1664368149075, "trialdata": {"rt": 1465, "stimulus": "<p id='stroop-text' class='stroop-red'>RED</p>", "response": "r", "stimulus-type": "congruent", "word": "red", "color": "red", "correct_response": "r", "trial_id": "stroop-trial-1-congruent-30", "trial_type": "html-keyboard-response", "trial_index": 86, "time_elapsed": 169772, "internal_node_id": "0.0-4.0-82.0"}}, {"uniqueid": "w60891482:a56888691", "current_trial": 87, "dateTime": 1664368150683, "trialdata": {"rt": 1104, "stimulus": "<p id='stroop-text' class='stroop-blue'>BRIDGE</p>", "response": "b", "stimulus-type": "unrelated", "word": "BRIDGE", "color": "blue", "correct_response": "b", "trial_id": "stroop-trial-1-unrelated-16", "trial_type": "html-keyboard-response", "trial_index": 87, "time_elapsed": 171380, "internal_node_id": "0.0-4.0-83.0"}}, {"uniqueid": "w60891482:a56888691", "current_trial": 88, "dateTime": 1664368152979, "trialdata": {"rt": 1792, "stimulus": "<p id='stroop-text' class='stroop-green'>GREEN</p>", "response": "g", "stimulus-type": "congruent", "word": "green", "color": "green", "correct_response": "g", "trial_id": "stroop-trial-1-congruent-4", "trial_type": "html-keyboard-response", "trial_index": 88, "time_elapsed": 173676, "internal_node_id": "0.0-4.0-84.0"}}, {"uniqueid": "w60891482:a56888691", "current_trial": 89, "dateTime": 1664368154555, "trialdata": {"rt": 1072, "stimulus": "<p id='stroop-text' class='stroop-yellow'>BLUE</p>", "response": "y", "stimulus-type": "incongruent", "word": "blue", "color": "yellow", "correct_response": "y", "trial_id": "stroop-trial-1-incongruent-6", "trial_type": "html-keyboard-response", "trial_index": 89, "time_elapsed": 175252, "internal_node_id": "0.0-4.0-85.0"}}, {"uniqueid": "w60891482:a56888691", "current_trial": 90, "dateTime": 1664368155939, "trialdata": {"rt": 881, "stimulus": "<p id='stroop-text' class='stroop-blue'>SHIP</p>", "response": "b", "stimulus-type": "unrelated", "word": "SHIP", "color": "blue", "correct_response": "b", "trial_id": "stroop-trial-1-unrelated-12", "trial_type": "html-keyboard-response", "trial_index": 90, "time_elapsed": 176636, "internal_node_id": "0.0-4.0-86.0"}}, {"uniqueid": "w60891482:a56888691", "current_trial": 91, "dateTime": 1664368158228, "trialdata": {"rt": 1784, "stimulus": "<p id='stroop-text' class='stroop-yellow'>YELLOW</p>", "response": "y", "stimulus-type": "congruent", "word": "yellow", "color": "yellow", "correct_response": "y", "trial_id": "stroop-trial-1-congruent-2", "trial_type": "html-keyboard-response", "trial_index": 91, "time_elapsed": 178924, "internal_node_id": "0.0-4.0-87.0"}}, {"uniqueid": "w60891482:a56888691", "current_trial": 92, "dateTime": 1664368159563, "trialdata": {"rt": 833, "stimulus": "<p id='stroop-text' class='stroop-blue'>BRAIN</p>", "response": "b", "stimulus-type": "unrelated", "word": "BRAIN", "color": "blue", "correct_response": "b", "trial_id": "stroop-trial-1-unrelated-11", "trial_type": "html-keyboard-response", "trial_index": 92, "time_elapsed": 180260, "internal_node_id": "0.0-4.0-88.0"}}, {"uniqueid": "w60891482:a56888691", "current_trial": 93, "dateTime": 1664368161291, "trialdata": {"rt": 1223, "stimulus": "<p id='stroop-text' class='stroop-red'>GREEN</p>", "response": "r", "stimulus-type": "incongruent", "word": "green", "color": "red", "correct_response": "r", "trial_id": "stroop-trial-1-incongruent-29", "trial_type": "html-keyboard-response", "trial_index": 93, "time_elapsed": 181988, "internal_node_id": "0.0-4.0-89.0"}}, {"uniqueid": "w60891482:a56888691", "current_trial": 94, "dateTime": 1664368164083, "trialdata": {"rt": 2287, "stimulus": "  <h1> End of block! </h1>\n\n  You have reached the end of the block 1/5. If you need a short break, feel free to take one now before moving on.\n\n  <br><br>\n  In the next block, you will complete another 90 rounds of this game.\n\n  <br><br>\n  <div style='text-align: center;'>Press <code>space</code> to begin.</div>\n  <br><br>\n<div style='text-align: center;'>(If the experiment doesn't continue, try clicking on the text and then pressing <code>space</code>.)</div>", "response": " ", "trial_id": "stroop_1_ready_2", "trial_type": "html-keyboard-response", "trial_index": 94, "time_elapsed": 184780, "internal_node_id": "0.0-5.0"}}, {"uniqueid": "w60891482:a56888691", "current_trial": 95, "dateTime": 1664368165587, "trialdata": {"rt": 1501, "stimulus": "<p id='stroop-text' class='stroop-green'>RED</p>", "response": "g", "stimulus-type": "incongruent", "word": "red", "color": "green", "correct_response": "g", "trial_id": "stroop-trial-1-incongruent-19", "trial_type": "html-keyboard-response", "trial_index": 95, "time_elapsed": 186283, "internal_node_id": "0.0-6.0-0.0"}}, {"uniqueid": "w60891482:a56888691", "current_trial": 96, "dateTime": 1664368167307, "trialdata": {"rt": 1217, "stimulus": "<p id='stroop-text' class='stroop-yellow'>BOTTLE</p>", "response": "y", "stimulus-type": "unrelated", "word": "BOTTLE", "color": "yellow", "correct_response": "y", "trial_id": "stroop-trial-1-unrelated-18", "trial_type": "html-keyboard-response", "trial_index": 96, "time_elapsed": 188004, "internal_node_id": "0.0-6.0-1.0"}}, {"uniqueid": "w60891482:a56888691", "current_trial": 97, "dateTime": 1664368168779, "trialdata": {"rt": 969, "stimulus": "<p id='stroop-text' class='stroop-red'>YELLOW</p>", "response": "r", "stimulus-type": "incongruent", "word": "yellow", "color": "red", "correct_response": "r", "trial_id": "stroop-trial-1-incongruent-7", "trial_type": "html-keyboard-response", "trial_index": 97, "time_elapsed": 189475, "internal_node_id": "0.0-6.0-2.0"}}, {"uniqueid": "w60891482:a56888691", "current_trial": 98, "dateTime": 1664368170067, "trialdata": {"rt": 784, "stimulus": "<p id='stroop-text' class='stroop-blue'>CHAIR</p>", "response": "b", "stimulus-type": "unrelated", "word": "CHAIR", "color": "blue", "correct_response": "b", "trial_id": "stroop-trial-1-unrelated-29", "trial_type": "html-keyboard-response", "trial_index": 98, "time_elapsed": 190764, "internal_node_id": "0.0-6.0-3.0"}}, {"uniqueid": "w60891482:a56888691", "current_trial": 99, "dateTime": 1664368171531, "trialdata": {"rt": 960, "stimulus": "<p id='stroop-text' class='stroop-green'>GREEN</p>", "response": "g", "stimulus-type": "congruent", "word": "green", "color": "green", "correct_response": "g", "trial_id": "stroop-trial-1-congruent-5", "trial_type": "html-keyboard-response", "trial_index": 99, "time_elapsed": 192228, "internal_node_id": "0.0-6.0-4.0"}}, {"uniqueid": "w60891482:a56888691", "current_trial": 100, "dateTime": 1664368172860, "trialdata": {"rt": 825, "stimulus": "<p id='stroop-text' class='stroop-blue'>DOG</p>", "response": "b", "stimulus-type": "unrelated", "word": "DOG", "color": "blue", "correct_response": "b", "trial_id": "stroop-trial-1-unrelated-6", "trial_type": "html-keyboard-response", "trial_index": 100, "time_elapsed": 193556, "internal_node_id": "0.0-6.0-5.0"}}, {"uniqueid": "w60891482:a56888691", "current_trial": 101, "dateTime": 1664368174219, "trialdata": {"rt": 856, "stimulus": "<p id='stroop-text' class='stroop-red'>WINDOW</p>", "response": "r", "stimulus-type": "unrelated", "word": "WINDOW", "color": "red", "correct_response": "r", "trial_id": "stroop-trial-1-unrelated-23", "trial_type": "html-keyboard-response", "trial_index": 101, "time_elapsed": 194916, "internal_node_id": "0.0-6.0-6.0"}}, {"uniqueid": "w60891482:a56888691", "current_trial": 102, "dateTime": 1664368175771, "trialdata": {"rt": 1048, "stimulus": "<p id='stroop-text' class='stroop-green'>GREEN</p>", "response": "g", "stimulus-type": "congruent", "word": "green", "color": "green", "correct_response": "g", "trial_id": "stroop-trial-1-congruent-21", "trial_type": "html-keyboard-response", "trial_index": 102, "time_elapsed": 196468, "internal_node_id": "0.0-6.0-7.0"}}, {"uniqueid": "w60891482:a56888691", "current_trial": 103, "dateTime": 1664368177252, "trialdata": {"rt": 976, "stimulus": "<p id='stroop-text' class='stroop-yellow'>YELLOW</p>", "response": "y", "stimulus-type": "congruent", "word": "yellow", "color": "yellow", "correct_response": "y", "trial_id": "stroop-trial-1-congruent-4", "trial_type": "html-keyboard-response", "trial_index": 103, "time_elapsed": 197949, "internal_node_id": "0.0-6.0-8.0"}}, {"uniqueid": "w60891482:a56888691", "current_trial": 104, "dateTime": 1664368178875, "trialdata": {"rt": 1120, "stimulus": "<p id='stroop-text' class='stroop-blue'>RED</p>", "response": "b", "stimulus-type": "incongruent", "word": "red", "color": "blue", "correct_response": "b", "trial_id": "stroop-trial-1-incongruent-2", "trial_type": "html-keyboard-response", "trial_index": 104, "time_elapsed": 199572, "internal_node_id": "0.0-6.0-9.0"}}, {"uniqueid": "w60891482:a56888691", "current_trial": 105, "dateTime": 1664368180611, "trialdata": {"rt": 1232, "stimulus": "<p id='stroop-text' class='stroop-red'>RED</p>", "response": "r", "stimulus-type": "congruent", "word": "red", "color": "red", "correct_response": "r", "trial_id": "stroop-trial-1-congruent-29", "trial_type": "html-keyboard-response", "trial_index": 105, "time_elapsed": 201308, "internal_node_id": "0.0-6.0-10.0"}}, {"uniqueid": "w60891482:a56888691", "current_trial": 106, "dateTime": 1664368182379, "trialdata": {"rt": 1263, "stimulus": "<p id='stroop-text' class='stroop-yellow'>GREEN</p>", "response": "y", "stimulus-type": "incongruent", "word": "green", "color": "yellow", "correct_response": "y", "trial_id": "stroop-trial-1-incongruent-11", "trial_type": "html-keyboard-response", "trial_index": 106, "time_elapsed": 203076, "internal_node_id": "0.0-6.0-11.0"}}, {"uniqueid": "w60891482:a56888691", "current_trial": 107, "dateTime": 1664368184579, "trialdata": {"rt": 1696, "stimulus": "<p id='stroop-text' class='stroop-green'>RED</p>", "response": "g", "stimulus-type": "incongruent", "word": "red", "color": "green", "correct_response": "g", "trial_id": "stroop-trial-1-incongruent-18", "trial_type": "html-keyboard-response", "trial_index": 107, "time_elapsed": 205276, "internal_node_id": "0.0-6.0-12.0"}}, {"uniqueid": "w60891482:a56888691", "current_trial": 108, "dateTime": 1664368186043, "trialdata": {"rt": 959, "stimulus": "<p id='stroop-text' class='stroop-red'>CHAIR</p>", "response": "r", "stimulus-type": "unrelated", "word": "CHAIR", "color": "red", "correct_response": "r", "trial_id": "stroop-trial-1-unrelated-12", "trial_type": "html-keyboard-response", "trial_index": 108, "time_elapsed": 206739, "internal_node_id": "0.0-6.0-13.0"}}, {"uniqueid": "w60891482:a56888691", "current_trial": 109, "dateTime": 1664368187179, "trialdata": {"rt": 632, "stimulus": "<p id='stroop-text' class='stroop-green'>GREEN</p>", "response": "r", "stimulus-type": "congruent", "word": "green", "color": "green", "correct_response": "g", "trial_id": "stroop-trial-1-congruent-2", "trial_type": "html-keyboard-response", "trial_index": 109, "time_elapsed": 207875, "internal_node_id": "0.0-6.0-14.0"}}, {"uniqueid": "w60891482:a56888691", "current_trial": 110, "dateTime": 1664368188587, "trialdata": {"rt": 904, "stimulus": "<p id='stroop-text' class='stroop-red'>RED</p>", "response": "r", "stimulus-type": "congruent", "word": "red", "color": "red", "correct_response": "r", "trial_id": "stroop-trial-1-congruent-28", "trial_type": "html-keyboard-response", "trial_index": 110, "time_elapsed": 209283, "internal_node_id": "0.0-6.0-15.0"}}, {"uniqueid": "w60891482:a56888691", "current_trial": 111, "dateTime": 1664368189715, "trialdata": {"rt": 625, "stimulus": "<p id='stroop-text' class='stroop-red'>RED</p>", "response": "r", "stimulus-type": "congruent", "word": "red", "color": "red", "correct_response": "r", "trial_id": "stroop-trial-1-congruent-20", "trial_type": "html-keyboard-response", "trial_index": 111, "time_elapsed": 210411, "internal_node_id": "0.0-6.0-16.0"}}, {"uniqueid": "w60891482:a56888691", "current_trial": 112, "dateTime": 1664368191299, "trialdata": {"rt": 1080, "stimulus": "<p id='stroop-text' class='stroop-blue'>YELLOW</p>", "response": "b", "stimulus-type": "incongruent", "word": "yellow", "color": "blue", "correct_response": "b", "trial_id": "stroop-trial-1-incongruent-3", "trial_type": "html-keyboard-response", "trial_index": 112, "time_elapsed": 211995, "internal_node_id": "0.0-6.0-17.0"}}, {"uniqueid": "w60891482:a56888691", "current_trial": 113, "dateTime": 1664368192747, "trialdata": {"rt": 944, "stimulus": "<p id='stroop-text' class='stroop-red'>WINDOW</p>", "response": "r", "stimulus-type": "unrelated", "word": "WINDOW", "color": "red", "correct_response": "r", "trial_id": "stroop-trial-1-unrelated-24", "trial_type": "html-keyboard-response", "trial_index": 113, "time_elapsed": 213443, "internal_node_id": "0.0-6.0-18.0"}}, {"uniqueid": "w60891482:a56888691", "current_trial": 114, "dateTime": 1664368194250, "trialdata": {"rt": 999, "stimulus": "<p id='stroop-text' class='stroop-yellow'>GREEN</p>", "response": "y", "stimulus-type": "incongruent", "word": "green", "color": "yellow", "correct_response": "y", "trial_id": "stroop-trial-1-incongruent-27", "trial_type": "html-keyboard-response", "trial_index": 114, "time_elapsed": 214947, "internal_node_id": "0.0-6.0-19.0"}}, {"uniqueid": "w60891482:a56888691", "current_trial": 115, "dateTime": 1664368195802, "trialdata": {"rt": 1050, "stimulus": "<p id='stroop-text' class='stroop-red'>GREEN</p>", "response": "r", "stimulus-type": "incongruent", "word": "green", "color": "red", "correct_response": "r", "trial_id": "stroop-trial-1-incongruent-30", "trial_type": "html-keyboard-response", "trial_index": 115, "time_elapsed": 216499, "internal_node_id": "0.0-6.0-20.0"}}, {"uniqueid": "w60891482:a56888691", "current_trial": 116, "dateTime": 1664368197338, "trialdata": {"rt": 1033, "stimulus": "<p id='stroop-text' class='stroop-yellow'>BLUE</p>", "response": "y", "stimulus-type": "incongruent", "word": "blue", "color": "yellow", "correct_response": "y", "trial_id": "stroop-trial-1-incongruent-5", "trial_type": "html-keyboard-response", "trial_index": 116, "time_elapsed": 218035, "internal_node_id": "0.0-6.0-21.0"}}, {"uniqueid": "w60891482:a56888691", "current_trial": 117, "dateTime": 1664368198707, "trialdata": {"rt": 863, "stimulus": "<p id='stroop-text' class='stroop-blue'>BLUE</p>", "response": "b", "stimulus-type": "congruent", "word": "blue", "color": "blue", "correct_response": "b", "trial_id": "stroop-trial-1-congruent-15", "trial_type": "html-keyboard-response", "trial_index": 117, "time_elapsed": 219403, "internal_node_id": "0.0-6.0-22.0"}}, {"uniqueid": "w60891482:a56888691", "current_trial": 118, "dateTime": 1664368200842, "trialdata": {"rt": 1631, "stimulus": "<p id='stroop-text' class='stroop-red'>BLUE</p>", "response": "r", "stimulus-type": "incongruent", "word": "blue", "color": "red", "correct_response": "r", "trial_id": "stroop-trial-1-incongruent-20", "trial_type": "html-keyboard-response", "trial_index": 118, "time_elapsed": 221539, "internal_node_id": "0.0-6.0-23.0"}}, {"uniqueid": "w60891482:a56888691", "current_trial": 119, "dateTime": 1664368202082, "trialdata": {"rt": 737, "stimulus": "<p id='stroop-text' class='stroop-blue'>BLUE</p>", "response": "b", "stimulus-type": "congruent", "word": "blue", "color": "blue", "correct_response": "b", "trial_id": "stroop-trial-1-congruent-13", "trial_type": "html-keyboard-response", "trial_index": 119, "time_elapsed": 222779, "internal_node_id": "0.0-6.0-24.0"}}, {"uniqueid": "w60891482:a56888691", "current_trial": 120, "dateTime": 1664368204194, "trialdata": {"rt": 1608, "stimulus": "<p id='stroop-text' class='stroop-blue'>YELLOW</p>", "response": "b", "stimulus-type": "incongruent", "word": "yellow", "color": "blue", "correct_response": "b", "trial_id": "stroop-trial-1-incongruent-26", "trial_type": "html-keyboard-response", "trial_index": 120, "time_elapsed": 224891, "internal_node_id": "0.0-6.0-25.0"}}, {"uniqueid": "w60891482:a56888691", "current_trial": 121, "dateTime": 1664368205771, "trialdata": {"rt": 1074, "stimulus": "<p id='stroop-text' class='stroop-yellow'>YELLOW</p>", "response": "y", "stimulus-type": "congruent", "word": "yellow", "color": "yellow", "correct_response": "y", "trial_id": "stroop-trial-1-congruent-17", "trial_type": "html-keyboard-response", "trial_index": 121, "time_elapsed": 226468, "internal_node_id": "0.0-6.0-26.0"}}, {"uniqueid": "w60891482:a56888691", "current_trial": 122, "dateTime": 1664368207186, "trialdata": {"rt": 912, "stimulus": "<p id='stroop-text' class='stroop-yellow'>BLUE</p>", "response": "y", "stimulus-type": "incongruent", "word": "blue", "color": "yellow", "correct_response": "y", "trial_id": "stroop-trial-1-incongruent-12", "trial_type": "html-keyboard-response", "trial_index": 122, "time_elapsed": 227882, "internal_node_id": "0.0-6.0-27.0"}}, {"uniqueid": "w60891482:a56888691", "current_trial": 123, "dateTime": 1664368208210, "trialdata": {"rt": 520, "stimulus": "<p id='stroop-text' class='stroop-yellow'>YELLOW</p>", "response": "y", "stimulus-type": "congruent", "word": "yellow", "color": "yellow", "correct_response": "y", "trial_id": "stroop-trial-1-congruent-22", "trial_type": "html-keyboard-response", "trial_index": 123, "time_elapsed": 228907, "internal_node_id": "0.0-6.0-28.0"}}, {"uniqueid": "w60891482:a56888691", "current_trial": 124, "dateTime": 1664368209491, "trialdata": {"rt": 776, "stimulus": "<p id='stroop-text' class='stroop-blue'>GREEN</p>", "response": "b", "stimulus-type": "incongruent", "word": "green", "color": "blue", "correct_response": "b", "trial_id": "stroop-trial-1-incongruent-24", "trial_type": "html-keyboard-response", "trial_index": 124, "time_elapsed": 230187, "internal_node_id": "0.0-6.0-29.0"}}, {"uniqueid": "w60891482:a56888691", "current_trial": 125, "dateTime": 1664368211203, "trialdata": {"rt": 1208, "stimulus": "<p id='stroop-text' class='stroop-yellow'>BLUE</p>", "response": "y", "stimulus-type": "incongruent", "word": "blue", "color": "yellow", "correct_response": "y", "trial_id": "stroop-trial-1-incongruent-4", "trial_type": "html-keyboard-response", "trial_index": 125, "time_elapsed": 231899, "internal_node_id": "0.0-6.0-30.0"}}, {"uniqueid": "w60891482:a56888691", "current_trial": 126, "dateTime": 1664368212363, "trialdata": {"rt": 657, "stimulus": "<p id='stroop-text' class='stroop-yellow'>YELLOW</p>", "response": "y", "stimulus-type": "congruent", "word": "yellow", "color": "yellow", "correct_response": "y", "trial_id": "stroop-trial-1-congruent-25", "trial_type": "html-keyboard-response", "trial_index": 126, "time_elapsed": 233059, "internal_node_id": "0.0-6.0-31.0"}}, {"uniqueid": "w60891482:a56888691", "current_trial": 127, "dateTime": 1664368214147, "trialdata": {"rt": 1279, "stimulus": "<p id='stroop-text' class='stroop-red'>SHIP</p>", "response": "r", "stimulus-type": "unrelated", "word": "SHIP", "color": "red", "correct_response": "r", "trial_id": "stroop-trial-1-unrelated-16", "trial_type": "html-keyboard-response", "trial_index": 127, "time_elapsed": 234843, "internal_node_id": "0.0-6.0-32.0"}}, {"uniqueid": "w60891482:a56888691", "current_trial": 128, "dateTime": 1664368215307, "trialdata": {"rt": 657, "stimulus": "<p id='stroop-text' class='stroop-red'>RED</p>", "response": "r", "stimulus-type": "congruent", "word": "red", "color": "red", "correct_response": "r", "trial_id": "stroop-trial-1-congruent-24", "trial_type": "html-keyboard-response", "trial_index": 128, "time_elapsed": 236003, "internal_node_id": "0.0-6.0-33.0"}}, {"uniqueid": "w60891482:a56888691", "current_trial": 129, "dateTime": 1664368216715, "trialdata": {"rt": 903, "stimulus": "<p id='stroop-text' class='stroop-yellow'>BRAIN</p>", "response": "y", "stimulus-type": "unrelated", "word": "BRAIN", "color": "yellow", "correct_response": "y", "trial_id": "stroop-trial-1-unrelated-21", "trial_type": "html-keyboard-response", "trial_index": 129, "time_elapsed": 237411, "internal_node_id": "0.0-6.0-34.0"}}, {"uniqueid": "w60891482:a56888691", "current_trial": 130, "dateTime": 1664368218123, "trialdata": {"rt": 904, "stimulus": "<p id='stroop-text' class='stroop-yellow'>BRAIN</p>", "response": "y", "stimulus-type": "unrelated", "word": "BRAIN", "color": "yellow", "correct_response": "y", "trial_id": "stroop-trial-1-unrelated-28", "trial_type": "html-keyboard-response", "trial_index": 130, "time_elapsed": 238819, "internal_node_id": "0.0-6.0-35.0"}}, {"uniqueid": "w60891482:a56888691", "current_trial": 131, "dateTime": 1664368219675, "trialdata": {"rt": 1048, "stimulus": "<p id='stroop-text' class='stroop-green'>SHIP</p>", "response": "g", "stimulus-type": "unrelated", "word": "SHIP", "color": "green", "correct_response": "g", "trial_id": "stroop-trial-1-unrelated-11", "trial_type": "html-keyboard-response", "trial_index": 131, "time_elapsed": 240371, "internal_node_id": "0.0-6.0-36.0"}}, {"uniqueid": "w60891482:a56888691", "current_trial": 132, "dateTime": 1664368221242, "trialdata": {"rt": 1062, "stimulus": "<p id='stroop-text' class='stroop-yellow'>WINDOW</p>", "response": "y", "stimulus-type": "unrelated", "word": "WINDOW", "color": "yellow", "correct_response": "y", "trial_id": "stroop-trial-1-unrelated-17", "trial_type": "html-keyboard-response", "trial_index": 132, "time_elapsed": 241939, "internal_node_id": "0.0-6.0-37.0"}}, {"uniqueid": "w60891482:a56888691", "current_trial": 133, "dateTime": 1664368222602, "trialdata": {"rt": 856, "stimulus": "<p id='stroop-text' class='stroop-red'>YELLOW</p>", "response": "r", "stimulus-type": "incongruent", "word": "yellow", "color": "red", "correct_response": "r", "trial_id": "stroop-trial-1-incongruent-6", "trial_type": "html-keyboard-response", "trial_index": 133, "time_elapsed": 243299, "internal_node_id": "0.0-6.0-38.0"}}, {"uniqueid": "w60891482:a56888691", "current_trial": 134, "dateTime": 1664368223907, "trialdata": {"rt": 802, "stimulus": "<p id='stroop-text' class='stroop-blue'>BRAIN</p>", "response": "b", "stimulus-type": "unrelated", "word": "BRAIN", "color": "blue", "correct_response": "b", "trial_id": "stroop-trial-1-unrelated-4", "trial_type": "html-keyboard-response", "trial_index": 134, "time_elapsed": 244604, "internal_node_id": "0.0-6.0-39.0"}}, {"uniqueid": "w60891482:a56888691", "current_trial": 135, "dateTime": 1664368225770, "trialdata": {"rt": 1359, "stimulus": "<p id='stroop-text' class='stroop-yellow'>YELLOW</p>", "response": "y", "stimulus-type": "congruent", "word": "yellow", "color": "yellow", "correct_response": "y", "trial_id": "stroop-trial-1-congruent-23", "trial_type": "html-keyboard-response", "trial_index": 135, "time_elapsed": 246467, "internal_node_id": "0.0-6.0-40.0"}}, {"uniqueid": "w60891482:a56888691", "current_trial": 136, "dateTime": 1664368227170, "trialdata": {"rt": 897, "stimulus": "<p id='stroop-text' class='stroop-green'>YELLOW</p>", "response": "g", "stimulus-type": "incongruent", "word": "yellow", "color": "green", "correct_response": "g", "trial_id": "stroop-trial-1-incongruent-15", "trial_type": "html-keyboard-response", "trial_index": 136, "time_elapsed": 247867, "internal_node_id": "0.0-6.0-41.0"}}, {"uniqueid": "w60891482:a56888691", "current_trial": 137, "dateTime": 1664368228562, "trialdata": {"rt": 887, "stimulus": "<p id='stroop-text' class='stroop-blue'>BOAT</p>", "response": "b", "stimulus-type": "unrelated", "word": "BOAT", "color": "blue", "correct_response": "b", "trial_id": "stroop-trial-1-unrelated-14", "trial_type": "html-keyboard-response", "trial_index": 137, "time_elapsed": 249259, "internal_node_id": "0.0-6.0-42.0"}}, {"uniqueid": "w60891482:a56888691", "current_trial": 138, "dateTime": 1664368229891, "trialdata": {"rt": 826, "stimulus": "<p id='stroop-text' class='stroop-yellow'>BLUE</p>", "response": "y", "stimulus-type": "incongruent", "word": "blue", "color": "yellow", "correct_response": "y", "trial_id": "stroop-trial-1-incongruent-22", "trial_type": "html-keyboard-response", "trial_index": 138, "time_elapsed": 250587, "internal_node_id": "0.0-6.0-43.0"}}, {"uniqueid": "w60891482:a56888691", "current_trial": 139, "dateTime": 1664368231362, "trialdata": {"rt": 961, "stimulus": "<p id='stroop-text' class='stroop-green'>BRAIN</p>", "response": "g", "stimulus-type": "unrelated", "word": "BRAIN", "color": "green", "correct_response": "g", "trial_id": "stroop-trial-1-unrelated-19", "trial_type": "html-keyboard-response", "trial_index": 139, "time_elapsed": 252058, "internal_node_id": "0.0-6.0-44.0"}}, {"uniqueid": "w60891482:a56888691", "current_trial": 140, "dateTime": 1664368232539, "trialdata": {"rt": 672, "stimulus": "<p id='stroop-text' class='stroop-green'>GREEN</p>", "response": "g", "stimulus-type": "congruent", "word": "green", "color": "green", "correct_response": "g", "trial_id": "stroop-trial-1-congruent-27", "trial_type": "html-keyboard-response", "trial_index": 140, "time_elapsed": 253236, "internal_node_id": "0.0-6.0-45.0"}}, {"uniqueid": "w60891482:a56888691", "current_trial": 141, "dateTime": 1664368233834, "trialdata": {"rt": 790, "stimulus": "<p id='stroop-text' class='stroop-green'>GREEN</p>", "response": "g", "stimulus-type": "congruent", "word": "green", "color": "green", "correct_response": "g", "trial_id": "stroop-trial-1-congruent-30", "trial_type": "html-keyboard-response", "trial_index": 141, "time_elapsed": 254530, "internal_node_id": "0.0-6.0-46.0"}}, {"uniqueid": "w60891482:a56888691", "current_trial": 142, "dateTime": 1664368235178, "trialdata": {"rt": 839, "stimulus": "<p id='stroop-text' class='stroop-red'>GREEN</p>", "response": "r", "stimulus-type": "incongruent", "word": "green", "color": "red", "correct_response": "r", "trial_id": "stroop-trial-1-incongruent-16", "trial_type": "html-keyboard-response", "trial_index": 142, "time_elapsed": 255875, "internal_node_id": "0.0-6.0-47.0"}}, {"uniqueid": "w60891482:a56888691", "current_trial": 143, "dateTime": 1664368236666, "trialdata": {"rt": 985, "stimulus": "<p id='stroop-text' class='stroop-blue'>BLUE</p>", "response": "b", "stimulus-type": "congruent", "word": "blue", "color": "blue", "correct_response": "b", "trial_id": "stroop-trial-1-congruent-14", "trial_type": "html-keyboard-response", "trial_index": 143, "time_elapsed": 257362, "internal_node_id": "0.0-6.0-48.0"}}, {"uniqueid": "w60891482:a56888691", "current_trial": 144, "dateTime": 1664368238026, "trialdata": {"rt": 857, "stimulus": "<p id='stroop-text' class='stroop-green'>GREEN</p>", "response": "g", "stimulus-type": "congruent", "word": "green", "color": "green", "correct_response": "g", "trial_id": "stroop-trial-1-congruent-1", "trial_type": "html-keyboard-response", "trial_index": 144, "time_elapsed": 258722, "internal_node_id": "0.0-6.0-49.0"}}, {"uniqueid": "w60891482:a56888691", "current_trial": 145, "dateTime": 1664368239258, "trialdata": {"rt": 729, "stimulus": "<p id='stroop-text' class='stroop-blue'>BLUE</p>", "response": "b", "stimulus-type": "congruent", "word": "blue", "color": "blue", "correct_response": "b", "trial_id": "stroop-trial-1-congruent-6", "trial_type": "html-keyboard-response", "trial_index": 145, "time_elapsed": 259954, "internal_node_id": "0.0-6.0-50.0"}}, {"uniqueid": "w60891482:a56888691", "current_trial": 146, "dateTime": 1664368240378, "trialdata": {"rt": 616, "stimulus": "<p id='stroop-text' class='stroop-green'>GREEN</p>", "response": "g", "stimulus-type": "congruent", "word": "green", "color": "green", "correct_response": "g", "trial_id": "stroop-trial-1-congruent-9", "trial_type": "html-keyboard-response", "trial_index": 146, "time_elapsed": 261075, "internal_node_id": "0.0-6.0-51.0"}}, {"uniqueid": "w60891482:a56888691", "current_trial": 147, "dateTime": 1664368241546, "trialdata": {"rt": 664, "stimulus": "<p id='stroop-text' class='stroop-green'>BOAT</p>", "response": "g", "stimulus-type": "unrelated", "word": "BOAT", "color": "green", "correct_response": "g", "trial_id": "stroop-trial-1-unrelated-10", "trial_type": "html-keyboard-response", "trial_index": 147, "time_elapsed": 262243, "internal_node_id": "0.0-6.0-52.0"}}, {"uniqueid": "w60891482:a56888691", "current_trial": 148, "dateTime": 1664368242722, "trialdata": {"rt": 672, "stimulus": "<p id='stroop-text' class='stroop-green'>GREEN</p>", "response": "g", "stimulus-type": "congruent", "word": "green", "color": "green", "correct_response": "g", "trial_id": "stroop-trial-1-congruent-3", "trial_type": "html-keyboard-response", "trial_index": 148, "time_elapsed": 263418, "internal_node_id": "0.0-6.0-53.0"}}, {"uniqueid": "w60891482:a56888691", "current_trial": 149, "dateTime": 1664368244539, "trialdata": {"rt": 1313, "stimulus": "<p id='stroop-text' class='stroop-yellow'>YELLOW</p>", "response": "y", "stimulus-type": "congruent", "word": "yellow", "color": "yellow", "correct_response": "y", "trial_id": "stroop-trial-1-congruent-19", "trial_type": "html-keyboard-response", "trial_index": 149, "time_elapsed": 265235, "internal_node_id": "0.0-6.0-54.0"}}, {"uniqueid": "w60891482:a56888691", "current_trial": 150, "dateTime": 1664368246250, "trialdata": {"rt": 1208, "stimulus": "<p id='stroop-text' class='stroop-green'>RED</p>", "response": "g", "stimulus-type": "incongruent", "word": "red", "color": "green", "correct_response": "g", "trial_id": "stroop-trial-1-incongruent-28", "trial_type": "html-keyboard-response", "trial_index": 150, "time_elapsed": 266947, "internal_node_id": "0.0-6.0-55.0"}}, {"uniqueid": "w60891482:a56888691", "current_trial": 151, "dateTime": 1664368247618, "trialdata": {"rt": 863, "stimulus": "<p id='stroop-text' class='stroop-red'>DOG</p>", "response": "r", "stimulus-type": "unrelated", "word": "DOG", "color": "red", "correct_response": "r", "trial_id": "stroop-trial-1-unrelated-27", "trial_type": "html-keyboard-response", "trial_index": 151, "time_elapsed": 268315, "internal_node_id": "0.0-6.0-56.0"}}, {"uniqueid": "w60891482:a56888691", "current_trial": 152, "dateTime": 1664368249018, "trialdata": {"rt": 896, "stimulus": "<p id='stroop-text' class='stroop-red'>BOAT</p>", "response": "r", "stimulus-type": "unrelated", "word": "BOAT", "color": "red", "correct_response": "r", "trial_id": "stroop-trial-1-unrelated-20", "trial_type": "html-keyboard-response", "trial_index": 152, "time_elapsed": 269715, "internal_node_id": "0.0-6.0-57.0"}}, {"uniqueid": "w60891482:a56888691", "current_trial": 153, "dateTime": 1664368249986, "trialdata": {"rt": 464, "stimulus": "<p id='stroop-text' class='stroop-red'>GREEN</p>", "response": "r", "stimulus-type": "incongruent", "word": "green", "color": "red", "correct_response": "r", "trial_id": "stroop-trial-1-incongruent-17", "trial_type": "html-keyboard-response", "trial_index": 153, "time_elapsed": 270683, "internal_node_id": "0.0-6.0-58.0"}}, {"uniqueid": "w60891482:a56888691", "current_trial": 154, "dateTime": 1664368251746, "trialdata": {"rt": 1257, "stimulus": "<p id='stroop-text' class='stroop-yellow'>RED</p>", "response": "y", "stimulus-type": "incongruent", "word": "red", "color": "yellow", "correct_response": "y", "trial_id": "stroop-trial-1-incongruent-9", "trial_type": "html-keyboard-response", "trial_index": 154, "time_elapsed": 272442, "internal_node_id": "0.0-6.0-59.0"}}, {"uniqueid": "w60891482:a56888691", "current_trial": 155, "dateTime": 1664368253210, "trialdata": {"rt": 960, "stimulus": "<p id='stroop-text' class='stroop-blue'>BOTTLE</p>", "response": "b", "stimulus-type": "unrelated", "word": "BOTTLE", "color": "blue", "correct_response": "b", "trial_id": "stroop-trial-1-unrelated-15", "trial_type": "html-keyboard-response", "trial_index": 155, "time_elapsed": 273906, "internal_node_id": "0.0-6.0-60.0"}}, {"uniqueid": "w60891482:a56888691", "current_trial": 156, "dateTime": 1664368254538, "trialdata": {"rt": 824, "stimulus": "<p id='stroop-text' class='stroop-green'>GREEN</p>", "response": "g", "stimulus-type": "congruent", "word": "green", "color": "green", "correct_response": "g", "trial_id": "stroop-trial-1-congruent-8", "trial_type": "html-keyboard-response", "trial_index": 156, "time_elapsed": 275234, "internal_node_id": "0.0-6.0-61.0"}}, {"uniqueid": "w60891482:a56888691", "current_trial": 157, "dateTime": 1664368256026, "trialdata": {"rt": 985, "stimulus": "<p id='stroop-text' class='stroop-yellow'>RED</p>", "response": "y", "stimulus-type": "incongruent", "word": "red", "color": "yellow", "correct_response": "y", "trial_id": "stroop-trial-1-incongruent-14", "trial_type": "html-keyboard-response", "trial_index": 157, "time_elapsed": 276722, "internal_node_id": "0.0-6.0-62.0"}}, {"uniqueid": "w60891482:a56888691", "current_trial": 158, "dateTime": 1664368257298, "trialdata": {"rt": 768, "stimulus": "<p id='stroop-text' class='stroop-blue'>BLUE</p>", "response": "b", "stimulus-type": "congruent", "word": "blue", "color": "blue", "correct_response": "b", "trial_id": "stroop-trial-1-congruent-18", "trial_type": "html-keyboard-response", "trial_index": 158, "time_elapsed": 277994, "internal_node_id": "0.0-6.0-63.0"}}, {"uniqueid": "w60891482:a56888691", "current_trial": 159, "dateTime": 1664368258658, "trialdata": {"rt": 857, "stimulus": "<p id='stroop-text' class='stroop-red'>GREEN</p>", "response": "r", "stimulus-type": "incongruent", "word": "green", "color": "red", "correct_response": "r", "trial_id": "stroop-trial-1-incongruent-25", "trial_type": "html-keyboard-response", "trial_index": 159, "time_elapsed": 279354, "internal_node_id": "0.0-6.0-64.0"}}, {"uniqueid": "w60891482:a56888691", "current_trial": 160, "dateTime": 1664368260578, "trialdata": {"rt": 1417, "stimulus": "<p id='stroop-text' class='stroop-green'>SHIP</p>", "response": "g", "stimulus-type": "unrelated", "word": "SHIP", "color": "green", "correct_response": "g", "trial_id": "stroop-trial-1-unrelated-25", "trial_type": "html-keyboard-response", "trial_index": 160, "time_elapsed": 281274, "internal_node_id": "0.0-6.0-65.0"}}, {"uniqueid": "w60891482:a56888691", "current_trial": 161, "dateTime": 1664368261714, "trialdata": {"rt": 632, "stimulus": "<p id='stroop-text' class='stroop-green'>WINDOW</p>", "response": "g", "stimulus-type": "unrelated", "word": "WINDOW", "color": "green", "correct_response": "g", "trial_id": "stroop-trial-1-unrelated-8", "trial_type": "html-keyboard-response", "trial_index": 161, "time_elapsed": 282410, "internal_node_id": "0.0-6.0-66.0"}}, {"uniqueid": "w60891482:a56888691", "current_trial": 162, "dateTime": 1664368263026, "trialdata": {"rt": 809, "stimulus": "<p id='stroop-text' class='stroop-yellow'>BLUE</p>", "response": "y", "stimulus-type": "incongruent", "word": "blue", "color": "yellow", "correct_response": "y", "trial_id": "stroop-trial-1-incongruent-29", "trial_type": "html-keyboard-response", "trial_index": 162, "time_elapsed": 283722, "internal_node_id": "0.0-6.0-67.0"}}, {"uniqueid": "w60891482:a56888691", "current_trial": 163, "dateTime": 1664368264226, "trialdata": {"rt": 696, "stimulus": "<p id='stroop-text' class='stroop-green'>GREEN</p>", "response": "g", "stimulus-type": "congruent", "word": "green", "color": "green", "correct_response": "g", "trial_id": "stroop-trial-1-congruent-11", "trial_type": "html-keyboard-response", "trial_index": 163, "time_elapsed": 284922, "internal_node_id": "0.0-6.0-68.0"}}, {"uniqueid": "w60891482:a56888691", "current_trial": 164, "dateTime": 1664368265538, "trialdata": {"rt": 808, "stimulus": "<p id='stroop-text' class='stroop-red'>BLUE</p>", "response": "r", "stimulus-type": "incongruent", "word": "blue", "color": "red", "correct_response": "r", "trial_id": "stroop-trial-1-incongruent-1", "trial_type": "html-keyboard-response", "trial_index": 164, "time_elapsed": 286234, "internal_node_id": "0.0-6.0-69.0"}}, {"uniqueid": "w60891482:a56888691", "current_trial": 165, "dateTime": 1664368266722, "trialdata": {"rt": 681, "stimulus": "<p id='stroop-text' class='stroop-green'>GREEN</p>", "response": "g", "stimulus-type": "congruent", "word": "green", "color": "green", "correct_response": "g", "trial_id": "stroop-trial-1-congruent-7", "trial_type": "html-keyboard-response", "trial_index": 165, "time_elapsed": 287419, "internal_node_id": "0.0-6.0-70.0"}}, {"uniqueid": "w60891482:a56888691", "current_trial": 166, "dateTime": 1664368268273, "trialdata": {"rt": 1046, "stimulus": "<p id='stroop-text' class='stroop-yellow'>GREEN</p>", "response": "y", "stimulus-type": "incongruent", "word": "green", "color": "yellow", "correct_response": "y", "trial_id": "stroop-trial-1-incongruent-23", "trial_type": "html-keyboard-response", "trial_index": 166, "time_elapsed": 288970, "internal_node_id": "0.0-6.0-71.0"}}, {"uniqueid": "w60891482:a56888691", "current_trial": 167, "dateTime": 1664368269505, "trialdata": {"rt": 728, "stimulus": "<p id='stroop-text' class='stroop-green'>GREEN</p>", "response": "g", "stimulus-type": "congruent", "word": "green", "color": "green", "correct_response": "g", "trial_id": "stroop-trial-1-congruent-26", "trial_type": "html-keyboard-response", "trial_index": 167, "time_elapsed": 290202, "internal_node_id": "0.0-6.0-72.0"}}, {"uniqueid": "w60891482:a56888691", "current_trial": 168, "dateTime": 1664368270865, "trialdata": {"rt": 855, "stimulus": "<p id='stroop-text' class='stroop-red'>CHAIR</p>", "response": "r", "stimulus-type": "unrelated", "word": "CHAIR", "color": "red", "correct_response": "r", "trial_id": "stroop-trial-1-unrelated-5", "trial_type": "html-keyboard-response", "trial_index": 168, "time_elapsed": 291562, "internal_node_id": "0.0-6.0-73.0"}}, {"uniqueid": "w60891482:a56888691", "current_trial": 169, "dateTime": 1664368272049, "trialdata": {"rt": 680, "stimulus": "<p id='stroop-text' class='stroop-red'>STONE</p>", "response": "r", "stimulus-type": "unrelated", "word": "STONE", "color": "red", "correct_response": "r", "trial_id": "stroop-trial-1-unrelated-22", "trial_type": "html-keyboard-response", "trial_index": 169, "time_elapsed": 292746, "internal_node_id": "0.0-6.0-74.0"}}, {"uniqueid": "w60891482:a56888691", "current_trial": 170, "dateTime": 1664368273433, "trialdata": {"rt": 880, "stimulus": "<p id='stroop-text' class='stroop-blue'>GREEN</p>", "response": "b", "stimulus-type": "incongruent", "word": "green", "color": "blue", "correct_response": "b", "trial_id": "stroop-trial-1-incongruent-8", "trial_type": "html-keyboard-response", "trial_index": 170, "time_elapsed": 294130, "internal_node_id": "0.0-6.0-75.0"}}, {"uniqueid": "w60891482:a56888691", "current_trial": 171, "dateTime": 1664368274730, "trialdata": {"rt": 792, "stimulus": "<p id='stroop-text' class='stroop-red'>BRIDGE</p>", "response": "r", "stimulus-type": "unrelated", "word": "BRIDGE", "color": "red", "correct_response": "r", "trial_id": "stroop-trial-1-unrelated-9", "trial_type": "html-keyboard-response", "trial_index": 171, "time_elapsed": 295426, "internal_node_id": "0.0-6.0-76.0"}}, {"uniqueid": "w60891482:a56888691", "current_trial": 172, "dateTime": 1664368275857, "trialdata": {"rt": 624, "stimulus": "<p id='stroop-text' class='stroop-blue'>STONE</p>", "response": "b", "stimulus-type": "unrelated", "word": "STONE", "color": "blue", "correct_response": "b", "trial_id": "stroop-trial-1-unrelated-1", "trial_type": "html-keyboard-response", "trial_index": 172, "time_elapsed": 296554, "internal_node_id": "0.0-6.0-77.0"}}, {"uniqueid": "w60891482:a56888691", "current_trial": 173, "dateTime": 1664368278097, "trialdata": {"rt": 1736, "stimulus": "<p id='stroop-text' class='stroop-green'>RED</p>", "response": "g", "stimulus-type": "incongruent", "word": "red", "color": "green", "correct_response": "g", "trial_id": "stroop-trial-1-incongruent-10", "trial_type": "html-keyboard-response", "trial_index": 173, "time_elapsed": 298794, "internal_node_id": "0.0-6.0-78.0"}}, {"uniqueid": "w60891482:a56888691", "current_trial": 174, "dateTime": 1664368279153, "trialdata": {"rt": 551, "stimulus": "<p id='stroop-text' class='stroop-green'>FORK</p>", "response": "g", "stimulus-type": "unrelated", "word": "FORK", "color": "green", "correct_response": "g", "trial_id": "stroop-trial-1-unrelated-3", "trial_type": "html-keyboard-response", "trial_index": 174, "time_elapsed": 299850, "internal_node_id": "0.0-6.0-79.0"}}, {"uniqueid": "w60891482:a56888691", "current_trial": 175, "dateTime": 1664368280673, "trialdata": {"rt": 1014, "stimulus": "<p id='stroop-text' class='stroop-blue'>YELLOW</p>", "response": "b", "stimulus-type": "incongruent", "word": "yellow", "color": "blue", "correct_response": "b", "trial_id": "stroop-trial-1-incongruent-13", "trial_type": "html-keyboard-response", "trial_index": 175, "time_elapsed": 301369, "internal_node_id": "0.0-6.0-80.0"}}, {"uniqueid": "w60891482:a56888691", "current_trial": 176, "dateTime": 1664368281913, "trialdata": {"rt": 736, "stimulus": "<p id='stroop-text' class='stroop-blue'>DOG</p>", "response": "b", "stimulus-type": "unrelated", "word": "DOG", "color": "blue", "correct_response": "b", "trial_id": "stroop-trial-1-unrelated-13", "trial_type": "html-keyboard-response", "trial_index": 176, "time_elapsed": 302610, "internal_node_id": "0.0-6.0-81.0"}}, {"uniqueid": "w60891482:a56888691", "current_trial": 177, "dateTime": 1664368283098, "trialdata": {"rt": 680, "stimulus": "<p id='stroop-text' class='stroop-green'>BRIDGE</p>", "response": "g", "stimulus-type": "unrelated", "word": "BRIDGE", "color": "green", "correct_response": "g", "trial_id": "stroop-trial-1-unrelated-7", "trial_type": "html-keyboard-response", "trial_index": 177, "time_elapsed": 303794, "internal_node_id": "0.0-6.0-82.0"}}, {"uniqueid": "w60891482:a56888691", "current_trial": 178, "dateTime": 1664368284913, "trialdata": {"rt": 1312, "stimulus": "<p id='stroop-text' class='stroop-yellow'>YELLOW</p>", "response": "y", "stimulus-type": "congruent", "word": "yellow", "color": "yellow", "correct_response": "y", "trial_id": "stroop-trial-1-congruent-10", "trial_type": "html-keyboard-response", "trial_index": 178, "time_elapsed": 305610, "internal_node_id": "0.0-6.0-83.0"}}, {"uniqueid": "w60891482:a56888691", "current_trial": 179, "dateTime": 1664368286585, "trialdata": {"rt": 1168, "stimulus": "<p id='stroop-text' class='stroop-red'>STONE</p>", "response": "r", "stimulus-type": "unrelated", "word": "STONE", "color": "red", "correct_response": "r", "trial_id": "stroop-trial-1-unrelated-2", "trial_type": "html-keyboard-response", "trial_index": 179, "time_elapsed": 307281, "internal_node_id": "0.0-6.0-84.0"}}, {"uniqueid": "w60891482:a56888691", "current_trial": 180, "dateTime": 1664368288138, "trialdata": {"rt": 1049, "stimulus": "<p id='stroop-text' class='stroop-blue'>BRIDGE</p>", "response": "b", "stimulus-type": "unrelated", "word": "BRIDGE", "color": "blue", "correct_response": "b", "trial_id": "stroop-trial-1-unrelated-30", "trial_type": "html-keyboard-response", "trial_index": 180, "time_elapsed": 308834, "internal_node_id": "0.0-6.0-85.0"}}, {"uniqueid": "w60891482:a56888691", "current_trial": 181, "dateTime": 1664368289753, "trialdata": {"rt": 1112, "stimulus": "<p id='stroop-text' class='stroop-green'>RED</p>", "response": "g", "stimulus-type": "incongruent", "word": "red", "color": "green", "correct_response": "g", "trial_id": "stroop-trial-1-incongruent-21", "trial_type": "html-keyboard-response", "trial_index": 181, "time_elapsed": 310450, "internal_node_id": "0.0-6.0-86.0"}}, {"uniqueid": "w60891482:a56888691", "current_trial": 182, "dateTime": 1664368290873, "trialdata": {"rt": 617, "stimulus": "<p id='stroop-text' class='stroop-green'>GREEN</p>", "response": "g", "stimulus-type": "congruent", "word": "green", "color": "green", "correct_response": "g", "trial_id": "stroop-trial-1-congruent-12", "trial_type": "html-keyboard-response", "trial_index": 182, "time_elapsed": 311569, "internal_node_id": "0.0-6.0-87.0"}}, {"uniqueid": "w60891482:a56888691", "current_trial": 183, "dateTime": 1664368292201, "trialdata": {"rt": 823, "stimulus": "<p id='stroop-text' class='stroop-blue'>FORK</p>", "response": "b", "stimulus-type": "unrelated", "word": "FORK", "color": "blue", "correct_response": "b", "trial_id": "stroop-trial-1-unrelated-26", "trial_type": "html-keyboard-response", "trial_index": 183, "time_elapsed": 312898, "internal_node_id": "0.0-6.0-88.0"}}, {"uniqueid": "w60891482:a56888691", "current_trial": 184, "dateTime": 1664368293161, "trialdata": {"rt": 456, "stimulus": "<p id='stroop-text' class='stroop-blue'>BLUE</p>", "response": "b", "stimulus-type": "congruent", "word": "blue", "color": "blue", "correct_response": "b", "trial_id": "stroop-trial-1-congruent-16", "trial_type": "html-keyboard-response", "trial_index": 184, "time_elapsed": 313857, "internal_node_id": "0.0-6.0-89.0"}}, {"uniqueid": "w60891482:a56888691", "current_trial": 185, "dateTime": 1664368295032, "trialdata": {"rt": 1366, "stimulus": "  <h1> End of block! </h1>\n\n  You have reached the end of the block 2/5. If you need a short break, feel free to take one now before moving on.\n\n  <br><br>\n  In the next block, you will complete another 90 rounds of this game.\n\n  <br><br>\n  <div style='text-align: center;'>Press <code>space</code> to begin.</div>\n  <br><br>\n<div style='text-align: center;'>(If the experiment doesn't continue, try clicking on the text and then pressing <code>space</code>.)</div>", "response": " ", "trial_id": "stroop_1_ready_3", "trial_type": "html-keyboard-response", "trial_index": 185, "time_elapsed": 315729, "internal_node_id": "0.0-7.0"}}, {"uniqueid": "w60891482:a56888691", "current_trial": 186, "dateTime": 1664368296321, "trialdata": {"rt": 1284, "stimulus": "<p id='stroop-text' class='stroop-blue'>BLUE</p>", "response": "b", "stimulus-type": "congruent", "word": "blue", "color": "blue", "correct_response": "b", "trial_id": "stroop-trial-1-congruent-15", "trial_type": "html-keyboard-response", "trial_index": 186, "time_elapsed": 317017, "internal_node_id": "0.0-8.0-0.0"}}, {"uniqueid": "w60891482:a56888691", "current_trial": 187, "dateTime": 1664368297928, "trialdata": {"rt": 1103, "stimulus": "<p id='stroop-text' class='stroop-yellow'>GREEN</p>", "response": "y", "stimulus-type": "incongruent", "word": "green", "color": "yellow", "correct_response": "y", "trial_id": "stroop-trial-1-incongruent-26", "trial_type": "html-keyboard-response", "trial_index": 187, "time_elapsed": 318625, "internal_node_id": "0.0-8.0-1.0"}}, {"uniqueid": "w60891482:a56888691", "current_trial": 188, "dateTime": 1664368299441, "trialdata": {"rt": 1008, "stimulus": "<p id='stroop-text' class='stroop-red'>YELLOW</p>", "response": "r", "stimulus-type": "incongruent", "word": "yellow", "color": "red", "correct_response": "r", "trial_id": "stroop-trial-1-incongruent-22", "trial_type": "html-keyboard-response", "trial_index": 188, "time_elapsed": 320137, "internal_node_id": "0.0-8.0-2.0"}}, {"uniqueid": "w60891482:a56888691", "current_trial": 189, "dateTime": 1664368301809, "trialdata": {"rt": 1864, "stimulus": "<p id='stroop-text' class='stroop-yellow'>YELLOW</p>", "response": "y", "stimulus-type": "congruent", "word": "yellow", "color": "yellow", "correct_response": "y", "trial_id": "stroop-trial-1-congruent-25", "trial_type": "html-keyboard-response", "trial_index": 189, "time_elapsed": 322505, "internal_node_id": "0.0-8.0-3.0"}}, {"uniqueid": "w60891482:a56888691", "current_trial": 190, "dateTime": 1664368302985, "trialdata": {"rt": 671, "stimulus": "<p id='stroop-text' class='stroop-yellow'>BLUE</p>", "response": "y", "stimulus-type": "incongruent", "word": "blue", "color": "yellow", "correct_response": "y", "trial_id": "stroop-trial-1-incongruent-2", "trial_type": "html-keyboard-response", "trial_index": 190, "time_elapsed": 323681, "internal_node_id": "0.0-8.0-4.0"}}, {"uniqueid": "w60891482:a56888691", "current_trial": 191, "dateTime": 1664368305104, "trialdata": {"rt": 1616, "stimulus": "<p id='stroop-text' class='stroop-red'>YELLOW</p>", "response": "r", "stimulus-type": "incongruent", "word": "yellow", "color": "red", "correct_response": "r", "trial_id": "stroop-trial-1-incongruent-21", "trial_type": "html-keyboard-response", "trial_index": 191, "time_elapsed": 325801, "internal_node_id": "0.0-8.0-5.0"}}, {"uniqueid": "w60891482:a56888691", "current_trial": 192, "dateTime": 1664368306200, "trialdata": {"rt": 593, "stimulus": "<p id='stroop-text' class='stroop-red'>RED</p>", "response": "r", "stimulus-type": "congruent", "word": "red", "color": "red", "correct_response": "r", "trial_id": "stroop-trial-1-congruent-23", "trial_type": "html-keyboard-response", "trial_index": 192, "time_elapsed": 326897, "internal_node_id": "0.0-8.0-6.0"}}, {"uniqueid": "w60891482:a56888691", "current_trial": 193, "dateTime": 1664368308096, "trialdata": {"rt": 1392, "stimulus": "<p id='stroop-text' class='stroop-yellow'>BLUE</p>", "response": "y", "stimulus-type": "incongruent", "word": "blue", "color": "yellow", "correct_response": "y", "trial_id": "stroop-trial-1-incongruent-19", "trial_type": "html-keyboard-response", "trial_index": 193, "time_elapsed": 328793, "internal_node_id": "0.0-8.0-7.0"}}, {"uniqueid": "w60891482:a56888691", "current_trial": 194, "dateTime": 1664368309680, "trialdata": {"rt": 1079, "stimulus": "<p id='stroop-text' class='stroop-green'>MONKEY</p>", "response": "g", "stimulus-type": "unrelated", "word": "MONKEY", "color": "green", "correct_response": "g", "trial_id": "stroop-trial-1-unrelated-16", "trial_type": "html-keyboard-response", "trial_index": 194, "time_elapsed": 330377, "internal_node_id": "0.0-8.0-8.0"}}, {"uniqueid": "w60891482:a56888691", "current_trial": 195, "dateTime": 1664368311881, "trialdata": {"rt": 1695, "stimulus": "<p id='stroop-text' class='stroop-red'>RED</p>", "response": "r", "stimulus-type": "congruent", "word": "red", "color": "red", "correct_response": "r", "trial_id": "stroop-trial-1-congruent-14", "trial_type": "html-keyboard-response", "trial_index": 195, "time_elapsed": 332577, "internal_node_id": "0.0-8.0-9.0"}}, {"uniqueid": "w60891482:a56888691", "current_trial": 196, "dateTime": 1664368313833, "trialdata": {"rt": 1449, "stimulus": "<p id='stroop-text' class='stroop-yellow'>GREEN</p>", "response": "y", "stimulus-type": "incongruent", "word": "green", "color": "yellow", "correct_response": "y", "trial_id": "stroop-trial-1-incongruent-17", "trial_type": "html-keyboard-response", "trial_index": 196, "time_elapsed": 334529, "internal_node_id": "0.0-8.0-10.0"}}, {"uniqueid": "w60891482:a56888691", "current_trial": 197, "dateTime": 1664368315161, "trialdata": {"rt": 824, "stimulus": "<p id='stroop-text' class='stroop-red'>BRIDGE</p>", "response": "r", "stimulus-type": "unrelated", "word": "BRIDGE", "color": "red", "correct_response": "r", "trial_id": "stroop-trial-1-unrelated-28", "trial_type": "html-keyboard-response", "trial_index": 197, "time_elapsed": 335857, "internal_node_id": "0.0-8.0-11.0"}}, {"uniqueid": "w60891482:a56888691", "current_trial": 198, "dateTime": 1664368316577, "trialdata": {"rt": 912, "stimulus": "<p id='stroop-text' class='stroop-blue'>BLUE</p>", "response": "b", "stimulus-type": "congruent", "word": "blue", "color": "blue", "correct_response": "b", "trial_id": "stroop-trial-1-congruent-24", "trial_type": "html-keyboard-response", "trial_index": 198, "time_elapsed": 337273, "internal_node_id": "0.0-8.0-12.0"}}, {"uniqueid": "w60891482:a56888691", "current_trial": 199, "dateTime": 1664368317577, "trialdata": {"rt": 497, "stimulus": "<p id='stroop-text' class='stroop-blue'>FORK</p>", "response": "b", "stimulus-type": "unrelated", "word": "FORK", "color": "blue", "correct_response": "b", "trial_id": "stroop-trial-1-unrelated-12", "trial_type": "html-keyboard-response", "trial_index": 199, "time_elapsed": 338274, "internal_node_id": "0.0-8.0-13.0"}}, {"uniqueid": "w60891482:a56888691", "current_trial": 200, "dateTime": 1664368318584, "trialdata": {"rt": 504, "stimulus": "<p id='stroop-text' class='stroop-blue'>BLUE</p>", "response": "b", "stimulus-type": "congruent", "word": "blue", "color": "blue", "correct_response": "b", "trial_id": "stroop-trial-1-congruent-27", "trial_type": "html-keyboard-response", "trial_index": 200, "time_elapsed": 339281, "internal_node_id": "0.0-8.0-14.0"}}, {"uniqueid": "w60891482:a56888691", "current_trial": 201, "dateTime": 1664368320080, "trialdata": {"rt": 992, "stimulus": "<p id='stroop-text' class='stroop-green'>GREEN</p>", "response": "g", "stimulus-type": "congruent", "word": "green", "color": "green", "correct_response": "g", "trial_id": "stroop-trial-1-congruent-21", "trial_type": "html-keyboard-response", "trial_index": 201, "time_elapsed": 340777, "internal_node_id": "0.0-8.0-15.0"}}, {"uniqueid": "w60891482:a56888691", "current_trial": 202, "dateTime": 1664368321057, "trialdata": {"rt": 471, "stimulus": "<p id='stroop-text' class='stroop-green'>BRIDGE</p>", "response": "g", "stimulus-type": "unrelated", "word": "BRIDGE", "color": "green", "correct_response": "g", "trial_id": "stroop-trial-1-unrelated-8", "trial_type": "html-keyboard-response", "trial_index": 202, "time_elapsed": 341753, "internal_node_id": "0.0-8.0-16.0"}}, {"uniqueid": "w60891482:a56888691", "current_trial": 203, "dateTime": 1664368322457, "trialdata": {"rt": 895, "stimulus": "<p id='stroop-text' class='stroop-blue'>GREEN</p>", "response": "b", "stimulus-type": "incongruent", "word": "green", "color": "blue", "correct_response": "b", "trial_id": "stroop-trial-1-incongruent-4", "trial_type": "html-keyboard-response", "trial_index": 203, "time_elapsed": 343153, "internal_node_id": "0.0-8.0-17.0"}}, {"uniqueid": "w60891482:a56888691", "current_trial": 204, "dateTime": 1664368323993, "trialdata": {"rt": 1031, "stimulus": "<p id='stroop-text' class='stroop-yellow'>MONKEY</p>", "response": "y", "stimulus-type": "unrelated", "word": "MONKEY", "color": "yellow", "correct_response": "y", "trial_id": "stroop-trial-1-unrelated-17", "trial_type": "html-keyboard-response", "trial_index": 204, "time_elapsed": 344689, "internal_node_id": "0.0-8.0-18.0"}}, {"uniqueid": "w60891482:a56888691", "current_trial": 205, "dateTime": 1664368325400, "trialdata": {"rt": 903, "stimulus": "<p id='stroop-text' class='stroop-blue'>WINDOW</p>", "response": "b", "stimulus-type": "unrelated", "word": "WINDOW", "color": "blue", "correct_response": "b", "trial_id": "stroop-trial-1-unrelated-2", "trial_type": "html-keyboard-response", "trial_index": 205, "time_elapsed": 346097, "internal_node_id": "0.0-8.0-19.0"}}, {"uniqueid": "w60891482:a56888691", "current_trial": 206, "dateTime": 1664368326961, "trialdata": {"rt": 1055, "stimulus": "<p id='stroop-text' class='stroop-green'>GREEN</p>", "response": "g", "stimulus-type": "congruent", "word": "green", "color": "green", "correct_response": "g", "trial_id": "stroop-trial-1-congruent-6", "trial_type": "html-keyboard-response", "trial_index": 206, "time_elapsed": 347656, "internal_node_id": "0.0-8.0-20.0"}}, {"uniqueid": "w60891482:a56888691", "current_trial": 207, "dateTime": 1664368328577, "trialdata": {"rt": 1111, "stimulus": "<p id='stroop-text' class='stroop-yellow'>YELLOW</p>", "response": "y", "stimulus-type": "congruent", "word": "yellow", "color": "yellow", "correct_response": "y", "trial_id": "stroop-trial-1-congruent-18", "trial_type": "html-keyboard-response", "trial_index": 207, "time_elapsed": 349273, "internal_node_id": "0.0-8.0-21.0"}}, {"uniqueid": "w60891482:a56888691", "current_trial": 208, "dateTime": 1664368329625, "trialdata": {"rt": 544, "stimulus": "<p id='stroop-text' class='stroop-yellow'>YELLOW</p>", "response": "y", "stimulus-type": "congruent", "word": "yellow", "color": "yellow", "correct_response": "y", "trial_id": "stroop-trial-1-congruent-1", "trial_type": "html-keyboard-response", "trial_index": 208, "time_elapsed": 350321, "internal_node_id": "0.0-8.0-22.0"}}, {"uniqueid": "w60891482:a56888691", "current_trial": 209, "dateTime": 1664368331065, "trialdata": {"rt": 936, "stimulus": "<p id='stroop-text' class='stroop-green'>GREEN</p>", "response": "g", "stimulus-type": "congruent", "word": "green", "color": "green", "correct_response": "g", "trial_id": "stroop-trial-1-congruent-22", "trial_type": "html-keyboard-response", "trial_index": 209, "time_elapsed": 351761, "internal_node_id": "0.0-8.0-23.0"}}, {"uniqueid": "w60891482:a56888691", "current_trial": 210, "dateTime": 1664368332401, "trialdata": {"rt": 832, "stimulus": "<p id='stroop-text' class='stroop-red'>GREEN</p>", "response": "r", "stimulus-type": "incongruent", "word": "green", "color": "red", "correct_response": "r", "trial_id": "stroop-trial-1-incongruent-3", "trial_type": "html-keyboard-response", "trial_index": 210, "time_elapsed": 353097, "internal_node_id": "0.0-8.0-24.0"}}, {"uniqueid": "w60891482:a56888691", "current_trial": 211, "dateTime": 1664368334048, "trialdata": {"rt": 1139, "stimulus": "<p id='stroop-text' class='stroop-yellow'>GREEN</p>", "response": "y", "stimulus-type": "incongruent", "word": "green", "color": "yellow", "correct_response": "y", "trial_id": "stroop-trial-1-incongruent-16", "trial_type": "html-keyboard-response", "trial_index": 211, "time_elapsed": 354744, "internal_node_id": "0.0-8.0-25.0"}}, {"uniqueid": "w60891482:a56888691", "current_trial": 212, "dateTime": 1664368336841, "trialdata": {"rt": 2288, "stimulus": "<p id='stroop-text' class='stroop-red'>RED</p>", "response": "r", "stimulus-type": "congruent", "word": "red", "color": "red", "correct_response": "r", "trial_id": "stroop-trial-1-congruent-26", "trial_type": "html-keyboard-response", "trial_index": 212, "time_elapsed": 357537, "internal_node_id": "0.0-8.0-26.0"}}, {"uniqueid": "w60891482:a56888691", "current_trial": 213, "dateTime": 1664368338248, "trialdata": {"rt": 904, "stimulus": "<p id='stroop-text' class='stroop-yellow'>YELLOW</p>", "response": "y", "stimulus-type": "congruent", "word": "yellow", "color": "yellow", "correct_response": "y", "trial_id": "stroop-trial-1-congruent-3", "trial_type": "html-keyboard-response", "trial_index": 213, "time_elapsed": 358945, "internal_node_id": "0.0-8.0-27.0"}}, {"uniqueid": "w60891482:a56888691", "current_trial": 214, "dateTime": 1664368339688, "trialdata": {"rt": 935, "stimulus": "<p id='stroop-text' class='stroop-green'>GREEN</p>", "response": "g", "stimulus-type": "congruent", "word": "green", "color": "green", "correct_response": "g", "trial_id": "stroop-trial-1-congruent-17", "trial_type": "html-keyboard-response", "trial_index": 214, "time_elapsed": 360385, "internal_node_id": "0.0-8.0-28.0"}}, {"uniqueid": "w60891482:a56888691", "current_trial": 215, "dateTime": 1664368341120, "trialdata": {"rt": 926, "stimulus": "<p id='stroop-text' class='stroop-yellow'>GREEN</p>", "response": "y", "stimulus-type": "incongruent", "word": "green", "color": "yellow", "correct_response": "y", "trial_id": "stroop-trial-1-incongruent-1", "trial_type": "html-keyboard-response", "trial_index": 215, "time_elapsed": 361817, "internal_node_id": "0.0-8.0-29.0"}}, {"uniqueid": "w60891482:a56888691", "current_trial": 216, "dateTime": 1664368343000, "trialdata": {"rt": 1375, "stimulus": "<p id='stroop-text' class='stroop-green'>STONE</p>", "response": "g", "stimulus-type": "unrelated", "word": "STONE", "color": "green", "correct_response": "g", "trial_id": "stroop-trial-1-unrelated-5", "trial_type": "html-keyboard-response", "trial_index": 216, "time_elapsed": 363696, "internal_node_id": "0.0-8.0-30.0"}}, {"uniqueid": "w60891482:a56888691", "current_trial": 217, "dateTime": 1664368344336, "trialdata": {"rt": 831, "stimulus": "<p id='stroop-text' class='stroop-yellow'>BOAT</p>", "response": "y", "stimulus-type": "unrelated", "word": "BOAT", "color": "yellow", "correct_response": "y", "trial_id": "stroop-trial-1-unrelated-21", "trial_type": "html-keyboard-response", "trial_index": 217, "time_elapsed": 365032, "internal_node_id": "0.0-8.0-31.0"}}, {"uniqueid": "w60891482:a56888691", "current_trial": 218, "dateTime": 1664368345712, "trialdata": {"rt": 871, "stimulus": "<p id='stroop-text' class='stroop-blue'>BOAT</p>", "response": "b", "stimulus-type": "unrelated", "word": "BOAT", "color": "blue", "correct_response": "b", "trial_id": "stroop-trial-1-unrelated-1", "trial_type": "html-keyboard-response", "trial_index": 218, "time_elapsed": 366409, "internal_node_id": "0.0-8.0-32.0"}}, {"uniqueid": "w60891482:a56888691", "current_trial": 219, "dateTime": 1664368346992, "trialdata": {"rt": 777, "stimulus": "<p id='stroop-text' class='stroop-red'>BOTTLE</p>", "response": "r", "stimulus-type": "unrelated", "word": "BOTTLE", "color": "red", "correct_response": "r", "trial_id": "stroop-trial-1-unrelated-3", "trial_type": "html-keyboard-response", "trial_index": 219, "time_elapsed": 367688, "internal_node_id": "0.0-8.0-33.0"}}, {"uniqueid": "w60891482:a56888691", "current_trial": 220, "dateTime": 1664368348448, "trialdata": {"rt": 953, "stimulus": "<p id='stroop-text' class='stroop-blue'>BRIDGE</p>", "response": "b", "stimulus-type": "unrelated", "word": "BRIDGE", "color": "blue", "correct_response": "b", "trial_id": "stroop-trial-1-unrelated-22", "trial_type": "html-keyboard-response", "trial_index": 220, "time_elapsed": 369145, "internal_node_id": "0.0-8.0-34.0"}}, {"uniqueid": "w60891482:a56888691", "current_trial": 221, "dateTime": 1664368350392, "trialdata": {"rt": 1440, "stimulus": "<p id='stroop-text' class='stroop-green'>BRIDGE</p>", "response": "g", "stimulus-type": "unrelated", "word": "BRIDGE", "color": "green", "correct_response": "g", "trial_id": "stroop-trial-1-unrelated-11", "trial_type": "html-keyboard-response", "trial_index": 221, "time_elapsed": 371089, "internal_node_id": "0.0-8.0-35.0"}}, {"uniqueid": "w60891482:a56888691", "current_trial": 222, "dateTime": 1664368351504, "trialdata": {"rt": 608, "stimulus": "<p id='stroop-text' class='stroop-green'>GREEN</p>", "response": "g", "stimulus-type": "congruent", "word": "green", "color": "green", "correct_respons