{"condition": 0, "counterbalance": 0, "assignmentId": "a44159833", "workerId": "w82427054", "hitId": "h63764060", "currenttrial": 959, "bonus": 0, "data": [{"uniqueid": "w82427054:a44159833", "current_trial": 0, "dateTime": 1664463922727, "trialdata": {"success": true, "trial_type": "fullscreen", "trial_index": 0, "time_elapsed": 5184, "internal_node_id": "0.0-0.0"}}, {"uniqueid": "w82427054:a44159833", "current_trial": 1, "dateTime": 1664464073684, "trialdata": {"view_history": [{"page_index": 0, "viewing_time": 150950}], "rt": 150951, "trial_id": "exp_instructions_distractor", "trial_type": "instructions", "trial_index": 1, "time_elapsed": 156142, "internal_node_id": "0.0-1.0"}}, {"uniqueid": "w82427054:a44159833", "current_trial": 2, "dateTime": 1664464129363, "trialdata": {"view_history": [{"page_index": 0, "viewing_time": 55677}], "rt": 55678, "trial_id": "color_game_instructions", "trial_type": "instructions", "trial_index": 2, "time_elapsed": 211821, "internal_node_id": "0.0-2.0"}}, {"uniqueid": "w82427054:a44159833", "current_trial": 3, "dateTime": 1664464139694, "trialdata": {"rt": 10328, "stimulus": "<h1> Get ready to start the game! </h1>\n\nThank you for reading the instructions. Get ready start with the first of 5 block(s) of this game.\n<br><br>\nIn this first block, you will complete 90 rounds of this game before moving on.\n<br><br>\nRemember, the better you perform, the bigger your bonus will be!\n<br><br>\n<div style='text-align: center;'>Press <code>space</code> to begin.</div>", "response": " ", "trial_id": "stroop_1_ready_1", "trial_type": "html-keyboard-response", "trial_index": 3, "time_elapsed": 222152, "internal_node_id": "0.0-3.0"}}, {"uniqueid": "w82427054:a44159833", "current_trial": 4, "dateTime": 1664464144363, "trialdata": {"rt": 4651, "stimulus": "<p id='stroop-text' class='stroop-red'>BLUE</p>", "response": "r", "stimulus-type": "incongruent", "word": "blue", "color": "red", "correct_response": "r", "trial_id": "stroop-trial-1-incongruent-25", "trial_type": "html-keyboard-response", "trial_index": 4, "time_elapsed": 226820, "internal_node_id": "0.0-4.0-0.0"}}, {"uniqueid": "w82427054:a44159833", "current_trial": 5, "dateTime": 1664464147164, "trialdata": {"rt": 2298, "stimulus": "<p id='stroop-text' class='stroop-blue'>BLUE</p>", "response": "b", "stimulus-type": "congruent", "word": "blue", "color": "blue", "correct_response": "b", "trial_id": "stroop-trial-1-congruent-2", "trial_type": "html-keyboard-response", "trial_index": 5, "time_elapsed": 229621, "internal_node_id": "0.0-4.0-1.0"}}, {"uniqueid": "w82427054:a44159833", "current_trial": 6, "dateTime": 1664464149260, "trialdata": {"rt": 1592, "stimulus": "<p id='stroop-text' class='stroop-green'>BLUE</p>", "response": "g", "stimulus-type": "incongruent", "word": "blue", "color": "green", "correct_response": "g", "trial_id": "stroop-trial-1-incongruent-28", "trial_type": "html-keyboard-response", "trial_index": 6, "time_elapsed": 231717, "internal_node_id": "0.0-4.0-2.0"}}, {"uniqueid": "w82427054:a44159833", "current_trial": 7, "dateTime": 1664464151915, "trialdata": {"rt": 2152, "stimulus": "<p id='stroop-text' class='stroop-yellow'>FORK</p>", "response": "y", "stimulus-type": "unrelated", "word": "FORK", "color": "yellow", "correct_response": "y", "trial_id": "stroop-trial-1-unrelated-14", "trial_type": "html-keyboard-response", "trial_index": 7, "time_elapsed": 234372, "internal_node_id": "0.0-4.0-3.0"}}, {"uniqueid": "w82427054:a44159833", "current_trial": 8, "dateTime": 1664464153724, "trialdata": {"rt": 1306, "stimulus": "<p id='stroop-text' class='stroop-blue'>YELLOW</p>", "response": "b", "stimulus-type": "incongruent", "word": "yellow", "color": "blue", "correct_response": "b", "trial_id": "stroop-trial-1-incongruent-27", "trial_type": "html-keyboard-response", "trial_index": 8, "time_elapsed": 236181, "internal_node_id": "0.0-4.0-4.0"}}, {"uniqueid": "w82427054:a44159833", "current_trial": 9, "dateTime": 1664464155771, "trialdata": {"rt": 1544, "stimulus": "<p id='stroop-text' class='stroop-yellow'>YELLOW</p>", "response": "y", "stimulus-type": "congruent", "word": "yellow", "color": "yellow", "correct_response": "y", "trial_id": "stroop-trial-1-congruent-22", "trial_type": "html-keyboard-response", "trial_index": 9, "time_elapsed": 238229, "internal_node_id": "0.0-4.0-5.0"}}, {"uniqueid": "w82427054:a44159833", "current_trial": 10, "dateTime": 1664464157995, "trialdata": {"rt": 1720, "stimulus": "<p id='stroop-text' class='stroop-yellow'>RED</p>", "response": "y", "stimulus-type": "incongruent", "word": "red", "color": "yellow", "correct_response": "y", "trial_id": "stroop-trial-1-incongruent-20", "trial_type": "html-keyboard-response", "trial_index": 10, "time_elapsed": 240453, "internal_node_id": "0.0-4.0-6.0"}}, {"uniqueid": "w82427054:a44159833", "current_trial": 11, "dateTime": 1664464159626, "trialdata": {"rt": 1127, "stimulus": "<p id='stroop-text' class='stroop-blue'>CHAIR</p>", "response": "b", "stimulus-type": "unrelated", "word": "CHAIR", "color": "blue", "correct_response": "b", "trial_id": "stroop-trial-1-unrelated-28", "trial_type": "html-keyboard-response", "trial_index": 11, "time_elapsed": 242084, "internal_node_id": "0.0-4.0-7.0"}}, {"uniqueid": "w82427054:a44159833", "current_trial": 12, "dateTime": 1664464161466, "trialdata": {"rt": 1327, "stimulus": "<p id='stroop-text' class='stroop-yellow'>GREEN</p>", "response": "y", "stimulus-type": "incongruent", "word": "green", "color": "yellow", "correct_response": "y", "trial_id": "stroop-trial-1-incongruent-24", "trial_type": "html-keyboard-response", "trial_index": 12, "time_elapsed": 243924, "internal_node_id": "0.0-4.0-8.0"}}, {"uniqueid": "w82427054:a44159833", "current_trial": 13, "dateTime": 1664464163852, "trialdata": {"rt": 1882, "stimulus": "<p id='stroop-text' class='stroop-red'>RED</p>", "response": "r", "stimulus-type": "congruent", "word": "red", "color": "red", "correct_response": "r", "trial_id": "stroop-trial-1-congruent-24", "trial_type": "html-keyboard-response", "trial_index": 13, "time_elapsed": 246309, "internal_node_id": "0.0-4.0-9.0"}}, {"uniqueid": "w82427054:a44159833", "current_trial": 14, "dateTime": 1664464165482, "trialdata": {"rt": 1127, "stimulus": "<p id='stroop-text' class='stroop-red'>RED</p>", "response": "r", "stimulus-type": "congruent", "word": "red", "color": "red", "correct_response": "r", "trial_id": "stroop-trial-1-congruent-14", "trial_type": "html-keyboard-response", "trial_index": 14, "time_elapsed": 247940, "internal_node_id": "0.0-4.0-10.0"}}, {"uniqueid": "w82427054:a44159833", "current_trial": 15, "dateTime": 1664464167163, "trialdata": {"rt": 1179, "stimulus": "<p id='stroop-text' class='stroop-yellow'>YELLOW</p>", "response": "y", "stimulus-type": "congruent", "word": "yellow", "color": "yellow", "correct_response": "y", "trial_id": "stroop-trial-1-congruent-23", "trial_type": "html-keyboard-response", "trial_index": 15, "time_elapsed": 249621, "internal_node_id": "0.0-4.0-11.0"}}, {"uniqueid": "w82427054:a44159833", "current_trial": 16, "dateTime": 1664464168907, "trialdata": {"rt": 1240, "stimulus": "<p id='stroop-text' class='stroop-green'>GREEN</p>", "response": "g", "stimulus-type": "congruent", "word": "green", "color": "green", "correct_response": "g", "trial_id": "stroop-trial-1-congruent-12", "trial_type": "html-keyboard-response", "trial_index": 16, "time_elapsed": 251365, "internal_node_id": "0.0-4.0-12.0"}}, {"uniqueid": "w82427054:a44159833", "current_trial": 17, "dateTime": 1664464171499, "trialdata": {"rt": 2087, "stimulus": "<p id='stroop-text' class='stroop-green'>BLUE</p>", "response": "g", "stimulus-type": "incongruent", "word": "blue", "color": "green", "correct_response": "g", "trial_id": "stroop-trial-1-incongruent-17", "trial_type": "html-keyboard-response", "trial_index": 17, "time_elapsed": 253957, "internal_node_id": "0.0-4.0-13.0"}}, {"uniqueid": "w82427054:a44159833", "current_trial": 18, "dateTime": 1664464173707, "trialdata": {"rt": 1704, "stimulus": "<p id='stroop-text' class='stroop-blue'>GREEN</p>", "response": "b", "stimulus-type": "incongruent", "word": "green", "color": "blue", "correct_response": "b", "trial_id": "stroop-trial-1-incongruent-7", "trial_type": "html-keyboard-response", "trial_index": 18, "time_elapsed": 256165, "internal_node_id": "0.0-4.0-14.0"}}, {"uniqueid": "w82427054:a44159833", "current_trial": 19, "dateTime": 1664464175516, "trialdata": {"rt": 1304, "stimulus": "<p id='stroop-text' class='stroop-red'>RED</p>", "response": "r", "stimulus-type": "congruent", "word": "red", "color": "red", "correct_response": "r", "trial_id": "stroop-trial-1-congruent-16", "trial_type": "html-keyboard-response", "trial_index": 19, "time_elapsed": 257973, "internal_node_id": "0.0-4.0-15.0"}}, {"uniqueid": "w82427054:a44159833", "current_trial": 20, "dateTime": 1664464177131, "trialdata": {"rt": 1110, "stimulus": "<p id='stroop-text' class='stroop-yellow'>YELLOW</p>", "response": "y", "stimulus-type": "congruent", "word": "yellow", "color": "yellow", "correct_response": "y", "trial_id": "stroop-trial-1-congruent-11", "trial_type": "html-keyboard-response", "trial_index": 20, "time_elapsed": 259589, "internal_node_id": "0.0-4.0-16.0"}}, {"uniqueid": "w82427054:a44159833", "current_trial": 21, "dateTime": 1664464179308, "trialdata": {"rt": 1672, "stimulus": "<p id='stroop-text' class='stroop-green'>YELLOW</p>", "response": "g", "stimulus-type": "incongruent", "word": "yellow", "color": "green", "correct_response": "g", "trial_id": "stroop-trial-1-incongruent-6", "trial_type": "html-keyboard-response", "trial_index": 21, "time_elapsed": 261765, "internal_node_id": "0.0-4.0-17.0"}}, {"uniqueid": "w82427054:a44159833", "current_trial": 22, "dateTime": 1664464181067, "trialdata": {"rt": 1255, "stimulus": "<p id='stroop-text' class='stroop-yellow'>GREEN</p>", "response": "y", "stimulus-type": "incongruent", "word": "green", "color": "yellow", "correct_response": "y", "trial_id": "stroop-trial-1-incongruent-16", "trial_type": "html-keyboard-response", "trial_index": 22, "time_elapsed": 263524, "internal_node_id": "0.0-4.0-18.0"}}, {"uniqueid": "w82427054:a44159833", "current_trial": 23, "dateTime": 1664464183290, "trialdata": {"rt": 1721, "stimulus": "<p id='stroop-text' class='stroop-green'>SHIP</p>", "response": "g", "stimulus-type": "unrelated", "word": "SHIP", "color": "green", "correct_response": "g", "trial_id": "stroop-trial-1-unrelated-27", "trial_type": "html-keyboard-response", "trial_index": 23, "time_elapsed": 265748, "internal_node_id": "0.0-4.0-19.0"}}, {"uniqueid": "w82427054:a44159833", "current_trial": 24, "dateTime": 1664464184891, "trialdata": {"rt": 1098, "stimulus": "<p id='stroop-text' class='stroop-yellow'>YELLOW</p>", "response": "y", "stimulus-type": "congruent", "word": "yellow", "color": "yellow", "correct_response": "y", "trial_id": "stroop-trial-1-congruent-30", "trial_type": "html-keyboard-response", "trial_index": 24, "time_elapsed": 267349, "internal_node_id": "0.0-4.0-20.0"}}, {"uniqueid": "w82427054:a44159833", "current_trial": 25, "dateTime": 1664464187756, "trialdata": {"rt": 2360, "stimulus": "<p id='stroop-text' class='stroop-blue'>MONKEY</p>", "response": "b", "stimulus-type": "unrelated", "word": "MONKEY", "color": "blue", "correct_response": "b", "trial_id": "stroop-trial-1-unrelated-19", "trial_type": "html-keyboard-response", "trial_index": 25, "time_elapsed": 270213, "internal_node_id": "0.0-4.0-21.0"}}, {"uniqueid": "w82427054:a44159833", "current_trial": 26, "dateTime": 1664464189547, "trialdata": {"rt": 1286, "stimulus": "<p id='stroop-text' class='stroop-green'>DOG</p>", "response": "g", "stimulus-type": "unrelated", "word": "DOG", "color": "green", "correct_response": "g", "trial_id": "stroop-trial-1-unrelated-29", "trial_type": "html-keyboard-response", "trial_index": 26, "time_elapsed": 272005, "internal_node_id": "0.0-4.0-22.0"}}, {"uniqueid": "w82427054:a44159833", "current_trial": 27, "dateTime": 1664464191675, "trialdata": {"rt": 1624, "stimulus": "<p id='stroop-text' class='stroop-green'>SHIP</p>", "response": "g", "stimulus-type": "unrelated", "word": "SHIP", "color": "green", "correct_response": "g", "trial_id": "stroop-trial-1-unrelated-16", "trial_type": "html-keyboard-response", "trial_index": 27, "time_elapsed": 274132, "internal_node_id": "0.0-4.0-23.0"}}, {"uniqueid": "w82427054:a44159833", "current_trial": 28, "dateTime": 1664464193930, "trialdata": {"rt": 1752, "stimulus": "<p id='stroop-text' class='stroop-blue'>BLUE</p>", "response": "b", "stimulus-type": "congruent", "word": "blue", "color": "blue", "correct_response": "b", "trial_id": "stroop-trial-1-congruent-3", "trial_type": "html-keyboard-response", "trial_index": 28, "time_elapsed": 276388, "internal_node_id": "0.0-4.0-24.0"}}, {"uniqueid": "w82427054:a44159833", "current_trial": 29, "dateTime": 1664464195628, "trialdata": {"rt": 1195, "stimulus": "<p id='stroop-text' class='stroop-red'>RED</p>", "response": "r", "stimulus-type": "congruent", "word": "red", "color": "red", "correct_response": "r", "trial_id": "stroop-trial-1-congruent-6", "trial_type": "html-keyboard-response", "trial_index": 29, "time_elapsed": 278085, "internal_node_id": "0.0-4.0-25.0"}}, {"uniqueid": "w82427054:a44159833", "current_trial": 30, "dateTime": 1664464197195, "trialdata": {"rt": 1063, "stimulus": "<p id='stroop-text' class='stroop-yellow'>YELLOW</p>", "response": "y", "stimulus-type": "congruent", "word": "yellow", "color": "yellow", "correct_response": "y", "trial_id": "stroop-trial-1-congruent-26", "trial_type": "html-keyboard-response", "trial_index": 30, "time_elapsed": 279652, "internal_node_id": "0.0-4.0-26.0"}}, {"uniqueid": "w82427054:a44159833", "current_trial": 31, "dateTime": 1664464199452, "trialdata": {"rt": 1754, "stimulus": "<p id='stroop-text' class='stroop-blue'>RED</p>", "response": "b", "stimulus-type": "incongruent", "word": "red", "color": "blue", "correct_response": "b", "trial_id": "stroop-trial-1-incongruent-22", "trial_type": "html-keyboard-response", "trial_index": 31, "time_elapsed": 281909, "internal_node_id": "0.0-4.0-27.0"}}, {"uniqueid": "w82427054:a44159833", "current_trial": 32, "dateTime": 1664464200828, "trialdata": {"rt": 870, "stimulus": "<p id='stroop-text' class='stroop-blue'>BLUE</p>", "response": "b", "stimulus-type": "congruent", "word": "blue", "color": "blue", "correct_response": "b", "trial_id": "stroop-trial-1-congruent-28", "trial_type": "html-keyboard-response", "trial_index": 32, "time_elapsed": 283285, "internal_node_id": "0.0-4.0-28.0"}}, {"uniqueid": "w82427054:a44159833", "current_trial": 33, "dateTime": 1664464202971, "trialdata": {"rt": 1639, "stimulus": "<p id='stroop-text' class='stroop-yellow'>RED</p>", "response": "y", "stimulus-type": "incongruent", "word": "red", "color": "yellow", "correct_response": "y", "trial_id": "stroop-trial-1-incongruent-10", "trial_type": "html-keyboard-response", "trial_index": 33, "time_elapsed": 285429, "internal_node_id": "0.0-4.0-29.0"}}, {"uniqueid": "w82427054:a44159833", "current_trial": 34, "dateTime": 1664464205194, "trialdata": {"rt": 1719, "stimulus": "<p id='stroop-text' class='stroop-blue'>BLUE</p>", "response": "b", "stimulus-type": "congruent", "word": "blue", "color": "blue", "correct_response": "b", "trial_id": "stroop-trial-1-congruent-5", "trial_type": "html-keyboard-response", "trial_index": 34, "time_elapsed": 287652, "internal_node_id": "0.0-4.0-30.0"}}, {"uniqueid": "w82427054:a44159833", "current_trial": 35, "dateTime": 1664464207436, "trialdata": {"rt": 1726, "stimulus": "<p id='stroop-text' class='stroop-blue'>RED</p>", "response": "b", "stimulus-type": "incongruent", "word": "red", "color": "blue", "correct_response": "b", "trial_id": "stroop-trial-1-incongruent-21", "trial_type": "html-keyboard-response", "trial_index": 35, "time_elapsed": 289893, "internal_node_id": "0.0-4.0-31.0"}}, {"uniqueid": "w82427054:a44159833", "current_trial": 36, "dateTime": 1664464209564, "trialdata": {"rt": 1623, "stimulus": "<p id='stroop-text' class='stroop-blue'>STONE</p>", "response": "b", "stimulus-type": "unrelated", "word": "STONE", "color": "blue", "correct_response": "b", "trial_id": "stroop-trial-1-unrelated-4", "trial_type": "html-keyboard-response", "trial_index": 36, "time_elapsed": 292021, "internal_node_id": "0.0-4.0-32.0"}}, {"uniqueid": "w82427054:a44159833", "current_trial": 37, "dateTime": 1664464211068, "trialdata": {"rt": 998, "stimulus": "<p id='stroop-text' class='stroop-yellow'>YELLOW</p>", "response": "y", "stimulus-type": "congruent", "word": "yellow", "color": "yellow", "correct_response": "y", "trial_id": "stroop-trial-1-congruent-25", "trial_type": "html-keyboard-response", "trial_index": 37, "time_elapsed": 293525, "internal_node_id": "0.0-4.0-33.0"}}, {"uniqueid": "w82427054:a44159833", "current_trial": 38, "dateTime": 1664464212700, "trialdata": {"rt": 1128, "stimulus": "<p id='stroop-text' class='stroop-yellow'>GREEN</p>", "response": "y", "stimulus-type": "incongruent", "word": "green", "color": "yellow", "correct_response": "y", "trial_id": "stroop-trial-1-incongruent-12", "trial_type": "html-keyboard-response", "trial_index": 38, "time_elapsed": 295157, "internal_node_id": "0.0-4.0-34.0"}}, {"uniqueid": "w82427054:a44159833", "current_trial": 39, "dateTime": 1664464214075, "trialdata": {"rt": 871, "stimulus": "<p id='stroop-text' class='stroop-yellow'>CHAIR</p>", "response": "y", "stimulus-type": "unrelated", "word": "CHAIR", "color": "yellow", "correct_response": "y", "trial_id": "stroop-trial-1-unrelated-12", "trial_type": "html-keyboard-response", "trial_index": 39, "time_elapsed": 296533, "internal_node_id": "0.0-4.0-35.0"}}, {"uniqueid": "w82427054:a44159833", "current_trial": 40, "dateTime": 1664464215339, "trialdata": {"rt": 759, "stimulus": "<p id='stroop-text' class='stroop-yellow'>BLUE</p>", "response": "y", "stimulus-type": "incongruent", "word": "blue", "color": "yellow", "correct_response": "y", "trial_id": "stroop-trial-1-incongruent-13", "trial_type": "html-keyboard-response", "trial_index": 40, "time_elapsed": 297796, "internal_node_id": "0.0-4.0-36.0"}}, {"uniqueid": "w82427054:a44159833", "current_trial": 41, "dateTime": 1664464217291, "trialdata": {"rt": 1450, "stimulus": "<p id='stroop-text' class='stroop-red'>BLUE</p>", "response": "r", "stimulus-type": "incongruent", "word": "blue", "color": "red", "correct_response": "r", "trial_id": "stroop-trial-1-incongruent-1", "trial_type": "html-keyboard-response", "trial_index": 41, "time_elapsed": 299749, "internal_node_id": "0.0-4.0-37.0"}}, {"uniqueid": "w82427054:a44159833", "current_trial": 42, "dateTime": 1664464218858, "trialdata": {"rt": 1063, "stimulus": "<p id='stroop-text' class='stroop-yellow'>YELLOW</p>", "response": "y", "stimulus-type": "congruent", "word": "yellow", "color": "yellow", "correct_response": "y", "trial_id": "stroop-trial-1-congruent-9", "trial_type": "html-keyboard-response", "trial_index": 42, "time_elapsed": 301316, "internal_node_id": "0.0-4.0-38.0"}}, {"uniqueid": "w82427054:a44159833", "current_trial": 43, "dateTime": 1664464220252, "trialdata": {"rt": 889, "stimulus": "<p id='stroop-text' class='stroop-yellow'>YELLOW</p>", "response": "y", "stimulus-type": "congruent", "word": "yellow", "color": "yellow", "correct_response": "y", "trial_id": "stroop-trial-1-congruent-19", "trial_type": "html-keyboard-response", "trial_index": 43, "time_elapsed": 302709, "internal_node_id": "0.0-4.0-39.0"}}, {"uniqueid": "w82427054:a44159833", "current_trial": 44, "dateTime": 1664464221868, "trialdata": {"rt": 1112, "stimulus": "<p id='stroop-text' class='stroop-green'>GREEN</p>", "response": "g", "stimulus-type": "congruent", "word": "green", "color": "green", "correct_response": "g", "trial_id": "stroop-trial-1-congruent-8", "trial_type": "html-keyboard-response", "trial_index": 44, "time_elapsed": 304325, "internal_node_id": "0.0-4.0-40.0"}}, {"uniqueid": "w82427054:a44159833", "current_trial": 45, "dateTime": 1664464223804, "trialdata": {"rt": 1429, "stimulus": "<p id='stroop-text' class='stroop-green'>YELLOW</p>", "response": "g", "stimulus-type": "incongruent", "word": "yellow", "color": "green", "correct_response": "g", "trial_id": "stroop-trial-1-incongruent-30", "trial_type": "html-keyboard-response", "trial_index": 45, "time_elapsed": 306261, "internal_node_id": "0.0-4.0-41.0"}}, {"uniqueid": "w82427054:a44159833", "current_trial": 46, "dateTime": 1664464225178, "trialdata": {"rt": 870, "stimulus": "<p id='stroop-text' class='stroop-green'>YELLOW</p>", "response": "g", "stimulus-type": "incongruent", "word": "yellow", "color": "green", "correct_response": "g", "trial_id": "stroop-trial-1-incongruent-26", "trial_type": "html-keyboard-response", "trial_index": 46, "time_elapsed": 307636, "internal_node_id": "0.0-4.0-42.0"}}, {"uniqueid": "w82427054:a44159833", "current_trial": 47, "dateTime": 1664464226730, "trialdata": {"rt": 1049, "stimulus": "<p id='stroop-text' class='stroop-red'>RED</p>", "response": "r", "stimulus-type": "congruent", "word": "red", "color": "red", "correct_response": "r", "trial_id": "stroop-trial-1-congruent-7", "trial_type": "html-keyboard-response", "trial_index": 47, "time_elapsed": 309188, "internal_node_id": "0.0-4.0-43.0"}}, {"uniqueid": "w82427054:a44159833", "current_trial": 48, "dateTime": 1664464228395, "trialdata": {"rt": 1162, "stimulus": "<p id='stroop-text' class='stroop-blue'>BRAIN</p>", "response": "b", "stimulus-type": "unrelated", "word": "BRAIN", "color": "blue", "correct_response": "b", "trial_id": "stroop-trial-1-unrelated-22", "trial_type": "html-keyboard-response", "trial_index": 48, "time_elapsed": 310853, "internal_node_id": "0.0-4.0-44.0"}}, {"uniqueid": "w82427054:a44159833", "current_trial": 49, "dateTime": 1664464230330, "trialdata": {"rt": 1430, "stimulus": "<p id='stroop-text' class='stroop-red'>WINDOW</p>", "response": "r", "stimulus-type": "unrelated", "word": "WINDOW", "color": "red", "correct_response": "r", "trial_id": "stroop-trial-1-unrelated-8", "trial_type": "html-keyboard-response", "trial_index": 49, "time_elapsed": 312788, "internal_node_id": "0.0-4.0-45.0"}}, {"uniqueid": "w82427054:a44159833", "current_trial": 50, "dateTime": 1664464232010, "trialdata": {"rt": 1178, "stimulus": "<p id='stroop-text' class='stroop-green'>BLUE</p>", "response": "g", "stimulus-type": "incongruent", "word": "blue", "color": "green", "correct_response": "g", "trial_id": "stroop-trial-1-incongruent-4", "trial_type": "html-keyboard-response", "trial_index": 50, "time_elapsed": 314468, "internal_node_id": "0.0-4.0-46.0"}}, {"uniqueid": "w82427054:a44159833", "current_trial": 51, "dateTime": 1664464233980, "trialdata": {"rt": 1466, "stimulus": "<p id='stroop-text' class='stroop-red'>YELLOW</p>", "response": "r", "stimulus-type": "incongruent", "word": "yellow", "color": "red", "correct_response": "r", "trial_id": "stroop-trial-1-incongruent-19", "trial_type": "html-keyboard-response", "trial_index": 51, "time_elapsed": 316437, "internal_node_id": "0.0-4.0-47.0"}}, {"uniqueid": "w82427054:a44159833", "current_trial": 52, "dateTime": 1664464235964, "trialdata": {"rt": 1479, "stimulus": "<p id='stroop-text' class='stroop-yellow'>FORK</p>", "response": "y", "stimulus-type": "unrelated", "word": "FORK", "color": "yellow", "correct_response": "y", "trial_id": "stroop-trial-1-unrelated-18", "trial_type": "html-keyboard-response", "trial_index": 52, "time_elapsed": 318421, "internal_node_id": "0.0-4.0-48.0"}}, {"uniqueid": "w82427054:a44159833", "current_trial": 53, "dateTime": 1664464237979, "trialdata": {"rt": 1509, "stimulus": "<p id='stroop-text' class='stroop-blue'>BLUE</p>", "response": "b", "stimulus-type": "congruent", "word": "blue", "color": "blue", "correct_response": "b", "trial_id": "stroop-trial-1-congruent-1", "trial_type": "html-keyboard-response", "trial_index": 53, "time_elapsed": 320436, "internal_node_id": "0.0-4.0-49.0"}}, {"uniqueid": "w82427054:a44159833", "current_trial": 54, "dateTime": 1664464239579, "trialdata": {"rt": 1092, "stimulus": "<p id='stroop-text' class='stroop-green'>MONKEY</p>", "response": "g", "stimulus-type": "unrelated", "word": "MONKEY", "color": "green", "correct_response": "g", "trial_id": "stroop-trial-1-unrelated-11", "trial_type": "html-keyboard-response", "trial_index": 54, "time_elapsed": 322037, "internal_node_id": "0.0-4.0-50.0"}}, {"uniqueid": "w82427054:a44159833", "current_trial": 55, "dateTime": 1664464241082, "trialdata": {"rt": 998, "stimulus": "<p id='stroop-text' class='stroop-yellow'>YELLOW</p>", "response": "y", "stimulus-type": "congruent", "word": "yellow", "color": "yellow", "correct_response": "y", "trial_id": "stroop-trial-1-congruent-10", "trial_type": "html-keyboard-response", "trial_index": 55, "time_elapsed": 323540, "internal_node_id": "0.0-4.0-51.0"}}, {"uniqueid": "w82427054:a44159833", "current_trial": 56, "dateTime": 1664464242796, "trialdata": {"rt": 1211, "stimulus": "<p id='stroop-text' class='stroop-red'>BRIDGE</p>", "response": "r", "stimulus-type": "unrelated", "word": "BRIDGE", "color": "red", "correct_response": "r", "trial_id": "stroop-trial-1-unrelated-21", "trial_type": "html-keyboard-response", "trial_index": 56, "time_elapsed": 325253, "internal_node_id": "0.0-4.0-52.0"}}, {"uniqueid": "w82427054:a44159833", "current_trial": 57, "dateTime": 1664464245148, "trialdata": {"rt": 1847, "stimulus": "<p id='stroop-text' class='stroop-blue'>GREEN</p>", "response": "b", "stimulus-type": "incongruent", "word": "green", "color": "blue", "correct_response": "b", "trial_id": "stroop-trial-1-incongruent-15", "trial_type": "html-keyboard-response", "trial_index": 57, "time_elapsed": 327605, "internal_node_id": "0.0-4.0-53.0"}}, {"uniqueid": "w82427054:a44159833", "current_trial": 58, "dateTime": 1664464247643, "trialdata": {"rt": 1991, "stimulus": "<p id='stroop-text' class='stroop-green'>YELLOW</p>", "response": "g", "stimulus-type": "incongruent", "word": "yellow", "color": "green", "correct_response": "g", "trial_id": "stroop-trial-1-incongruent-8", "trial_type": "html-keyboard-response", "trial_index": 58, "time_elapsed": 330101, "internal_node_id": "0.0-4.0-54.0"}}, {"uniqueid": "w82427054:a44159833", "current_trial": 59, "dateTime": 1664464249260, "trialdata": {"rt": 1112, "stimulus": "<p id='stroop-text' class='stroop-yellow'>BOTTLE</p>", "response": "y", "stimulus-type": "unrelated", "word": "BOTTLE", "color": "yellow", "correct_response": "y", "trial_id": "stroop-trial-1-unrelated-30", "trial_type": "html-keyboard-response", "trial_index": 59, "time_elapsed": 331717, "internal_node_id": "0.0-4.0-55.0"}}, {"uniqueid": "w82427054:a44159833", "current_trial": 60, "dateTime": 1664464250972, "trialdata": {"rt": 1207, "stimulus": "<p id='stroop-text' class='stroop-red'>STONE</p>", "response": "r", "stimulus-type": "unrelated", "word": "STONE", "color": "red", "correct_response": "r", "trial_id": "stroop-trial-1-unrelated-26", "trial_type": "html-keyboard-response", "trial_index": 60, "time_elapsed": 333429, "internal_node_id": "0.0-4.0-56.0"}}, {"uniqueid": "w82427054:a44159833", "current_trial": 61, "dateTime": 1664464252588, "trialdata": {"rt": 1109, "stimulus": "<p id='stroop-text' class='stroop-green'>FORK</p>", "response": "g", "stimulus-type": "unrelated", "word": "FORK", "color": "green", "correct_response": "g", "trial_id": "stroop-trial-1-unrelated-13", "trial_type": "html-keyboard-response", "trial_index": 61, "time_elapsed": 335046, "internal_node_id": "0.0-4.0-57.0"}}, {"uniqueid": "w82427054:a44159833", "current_trial": 62, "dateTime": 1664464254395, "trialdata": {"rt": 1304, "stimulus": "<p id='stroop-text' class='stroop-blue'>BLUE</p>", "response": "b", "stimulus-type": "congruent", "word": "blue", "color": "blue", "correct_response": "b", "trial_id": "stroop-trial-1-congruent-27", "trial_type": "html-keyboard-response", "trial_index": 62, "time_elapsed": 336853, "internal_node_id": "0.0-4.0-58.0"}}, {"uniqueid": "w82427054:a44159833", "current_trial": 63, "dateTime": 1664464256092, "trialdata": {"rt": 1194, "stimulus": "<p id='stroop-text' class='stroop-yellow'>DOG</p>", "response": "y", "stimulus-type": "unrelated", "word": "DOG", "color": "yellow", "correct_response": "y", "trial_id": "stroop-trial-1-unrelated-10", "trial_type": "html-keyboard-response", "trial_index": 63, "time_elapsed": 338549, "internal_node_id": "0.0-4.0-59.0"}}, {"uniqueid": "w82427054:a44159833", "current_trial": 64, "dateTime": 1664464257676, "trialdata": {"rt": 1078, "stimulus": "<p id='stroop-text' class='stroop-red'>FORK</p>", "response": "r", "stimulus-type": "unrelated", "word": "FORK", "color": "red", "correct_response": "r", "trial_id": "stroop-trial-1-unrelated-24", "trial_type": "html-keyboard-response", "trial_index": 64, "time_elapsed": 340133, "internal_node_id": "0.0-4.0-60.0"}}, {"uniqueid": "w82427054:a44159833", "current_trial": 65, "dateTime": 1664464259388, "trialdata": {"rt": 1207, "stimulus": "<p id='stroop-text' class='stroop-green'>YELLOW</p>", "response": "g", "stimulus-type": "incongruent", "word": "yellow", "color": "green", "correct_response": "g", "trial_id": "stroop-trial-1-incongruent-29", "trial_type": "html-keyboard-response", "trial_index": 65, "time_elapsed": 341845, "internal_node_id": "0.0-4.0-61.0"}}, {"uniqueid": "w82427054:a44159833", "current_trial": 66, "dateTime": 1664464260844, "trialdata": {"rt": 950, "stimulus": "<p id='stroop-text' class='stroop-green'>BLUE</p>", "response": "g", "stimulus-type": "incongruent", "word": "blue", "color": "green", "correct_response": "g", "trial_id": "stroop-trial-1-incongruent-3", "trial_type": "html-keyboard-response", "trial_index": 66, "time_elapsed": 343301, "internal_node_id": "0.0-4.0-62.0"}}, {"uniqueid": "w82427054:a44159833", "current_trial": 67, "dateTime": 1664464262508, "trialdata": {"rt": 1159, "stimulus": "<p id='stroop-text' class='stroop-blue'>BLUE</p>", "response": "b", "stimulus-type": "congruent", "word": "blue", "color": "blue", "correct_response": "b", "trial_id": "stroop-trial-1-congruent-4", "trial_type": "html-keyboard-response", "trial_index": 67, "time_elapsed": 344965, "internal_node_id": "0.0-4.0-63.0"}}, {"uniqueid": "w82427054:a44159833", "current_trial": 68, "dateTime": 1664464264107, "trialdata": {"rt": 1095, "stimulus": "<p id='stroop-text' class='stroop-green'>GREEN</p>", "response": "g", "stimulus-type": "congruent", "word": "green", "color": "green", "correct_response": "g", "trial_id": "stroop-trial-1-congruent-17", "trial_type": "html-keyboard-response", "trial_index": 68, "time_elapsed": 346564, "internal_node_id": "0.0-4.0-64.0"}}, {"uniqueid": "w82427054:a44159833", "current_trial": 69, "dateTime": 1664464266172, "trialdata": {"rt": 1562, "stimulus": "<p id='stroop-text' class='stroop-blue'>STONE</p>", "response": "b", "stimulus-type": "unrelated", "word": "STONE", "color": "blue", "correct_response": "b", "trial_id": "stroop-trial-1-unrelated-15", "trial_type": "html-keyboard-response", "trial_index": 69, "time_elapsed": 348629, "internal_node_id": "0.0-4.0-65.0"}}, {"uniqueid": "w82427054:a44159833", "current_trial": 70, "dateTime": 1664464267676, "trialdata": {"rt": 1001, "stimulus": "<p id='stroop-text' class='stroop-red'>DOG</p>", "response": "r", "stimulus-type": "unrelated", "word": "DOG", "color": "red", "correct_response": "r", "trial_id": "stroop-trial-1-unrelated-17", "trial_type": "html-keyboard-response", "trial_index": 70, "time_elapsed": 350133, "internal_node_id": "0.0-4.0-66.0"}}, {"uniqueid": "w82427054:a44159833", "current_trial": 71, "dateTime": 1664464269307, "trialdata": {"rt": 1125, "stimulus": "<p id='stroop-text' class='stroop-yellow'>BLUE</p>", "response": "y", "stimulus-type": "incongruent", "word": "blue", "color": "yellow", "correct_response": "y", "trial_id": "stroop-trial-1-incongruent-23", "trial_type": "html-keyboard-response", "trial_index": 71, "time_elapsed": 351764, "internal_node_id": "0.0-4.0-67.0"}}, {"uniqueid": "w82427054:a44159833", "current_trial": 72, "dateTime": 1664464270908, "trialdata": {"rt": 1098, "stimulus": "<p id='stroop-text' class='stroop-green'>SHIP</p>", "response": "g", "stimulus-type": "unrelated", "word": "SHIP", "color": "green", "correct_response": "g", "trial_id": "stroop-trial-1-unrelated-9", "trial_type": "html-keyboard-response", "trial_index": 72, "time_elapsed": 353365, "internal_node_id": "0.0-4.0-68.0"}}, {"uniqueid": "w82427054:a44159833", "current_trial": 73, "dateTime": 1664464272204, "trialdata": {"rt": 791, "stimulus": "<p id='stroop-text' class='stroop-red'>RED</p>", "response": "r", "stimulus-type": "congruent", "word": "red", "color": "red", "correct_response": "r", "trial_id": "stroop-trial-1-congruent-18", "trial_type": "html-keyboard-response", "trial_index": 73, "time_elapsed": 354662, "internal_node_id": "0.0-4.0-69.0"}}, {"uniqueid": "w82427054:a44159833", "current_trial": 74, "dateTime": 1664464273660, "trialdata": {"rt": 949, "stimulus": "<p id='stroop-text' class='stroop-red'>CHAIR</p>", "response": "r", "stimulus-type": "unrelated", "word": "CHAIR", "color": "red", "correct_response": "r", "trial_id": "stroop-trial-1-unrelated-3", "trial_type": "html-keyboard-response", "trial_index": 74, "time_elapsed": 356117, "internal_node_id": "0.0-4.0-70.0"}}, {"uniqueid": "w82427054:a44159833", "current_trial": 75, "dateTime": 1664464275084, "trialdata": {"rt": 920, "stimulus": "<p id='stroop-text' class='stroop-yellow'>RED</p>", "response": "y", "stimulus-type": "incongruent", "word": "red", "color": "yellow", "correct_response": "y", "trial_id": "stroop-trial-1-incongruent-9", "trial_type": "html-keyboard-response", "trial_index": 75, "time_elapsed": 357542, "internal_node_id": "0.0-4.0-71.0"}}, {"uniqueid": "w82427054:a44159833", "current_trial": 76, "dateTime": 1664464276876, "trialdata": {"rt": 1287, "stimulus": "<p id='stroop-text' class='stroop-blue'>RED</p>", "response": "b", "stimulus-type": "incongruent", "word": "red", "color": "blue", "correct_response": "b", "trial_id": "stroop-trial-1-incongruent-11", "trial_type": "html-keyboard-response", "trial_index": 76, "time_elapsed": 359334, "internal_node_id": "0.0-4.0-72.0"}}, {"uniqueid": "w82427054:a44159833", "current_trial": 77, "dateTime": 1664464279260, "trialdata": {"rt": 1877, "stimulus": "<p id='stroop-text' class='stroop-red'>YELLOW</p>", "response": "r", "stimulus-type": "incongruent", "word": "yellow", "color": "red", "correct_response": "r", "trial_id": "stroop-trial-1-incongruent-14", "trial_type": "html-keyboard-response", "trial_index": 77, "time_elapsed": 361717, "internal_node_id": "0.0-4.0-73.0"}}, {"uniqueid": "w82427054:a44159833", "current_trial": 78, "dateTime": 1664464280923, "trialdata": {"rt": 1150, "stimulus": "<p id='stroop-text' class='stroop-green'>BOAT</p>", "response": "g", "stimulus-type": "unrelated", "word": "BOAT", "color": "green", "correct_response": "g", "trial_id": "stroop-trial-1-unrelated-20", "trial_type": "html-keyboard-response", "trial_index": 78, "time_elapsed": 363381, "internal_node_id": "0.0-4.0-74.0"}}, {"uniqueid": "w82427054:a44159833", "current_trial": 79, "dateTime": 1664464282492, "trialdata": {"rt": 1064, "stimulus": "<p id='stroop-text' class='stroop-green'>WINDOW</p>", "response": "g", "stimulus-type": "unrelated", "word": "WINDOW", "color": "green", "correct_response": "g", "trial_id": "stroop-trial-1-unrelated-23", "trial_type": "html-keyboard-response", "trial_index": 79, "time_elapsed": 364949, "internal_node_id": "0.0-4.0-75.0"}}, {"uniqueid": "w82427054:a44159833", "current_trial": 80, "dateTime": 1664464284172, "trialdata": {"rt": 1175, "stimulus": "<p id='stroop-text' class='stroop-blue'>BLUE</p>", "response": "b", "stimulus-type": "congruent", "word": "blue", "color": "blue", "correct_response": "b", "trial_id": "stroop-trial-1-congruent-29", "trial_type": "html-keyboard-response", "trial_index": 80, "time_elapsed": 366629, "internal_node_id": "0.0-4.0-76.0"}}, {"uniqueid": "w82427054:a44159833", "current_trial": 81, "dateTime": 1664464285532, "trialdata": {"rt": 855, "stimulus": "<p id='stroop-text' class='stroop-blue'>BLUE</p>", "response": "b", "stimulus-type": "congruent", "word": "blue", "color": "blue", "correct_response": "b", "trial_id": "stroop-trial-1-congruent-13", "trial_type": "html-keyboard-response", "trial_index": 81, "time_elapsed": 367989, "internal_node_id": "0.0-4.0-77.0"}}, {"uniqueid": "w82427054:a44159833", "current_trial": 82, "dateTime": 1664464287067, "trialdata": {"rt": 1024, "stimulus": "<p id='stroop-text' class='stroop-yellow'>RED</p>", "response": "y", "stimulus-type": "incongruent", "word": "red", "color": "yellow", "correct_response": "y", "trial_id": "stroop-trial-1-incongruent-5", "trial_type": "html-keyboard-response", "trial_index": 82, "time_elapsed": 369524, "internal_node_id": "0.0-4.0-78.0"}}, {"uniqueid": "w82427054:a44159833", "current_trial": 83, "dateTime": 1664464288379, "trialdata": {"rt": 808, "stimulus": "<p id='stroop-text' class='stroop-red'>MONKEY</p>", "response": "r", "stimulus-type": "unrelated", "word": "MONKEY", "color": "red", "correct_response": "r", "trial_id": "stroop-trial-1-unrelated-25", "trial_type": "html-keyboard-response", "trial_index": 83, "time_elapsed": 370837, "internal_node_id": "0.0-4.0-79.0"}}, {"uniqueid": "w82427054:a44159833", "current_trial": 84, "dateTime": 1664464290139, "trialdata": {"rt": 1257, "stimulus": "<p id='stroop-text' class='stroop-green'>FORK</p>", "response": "g", "stimulus-type": "unrelated", "word": "FORK", "color": "green", "correct_response": "g", "trial_id": "stroop-trial-1-unrelated-1", "trial_type": "html-keyboard-response", "trial_index": 84, "time_elapsed": 372597, "internal_node_id": "0.0-4.0-80.0"}}, {"uniqueid": "w82427054:a44159833", "current_trial": 85, "dateTime": 1664464292540, "trialdata": {"rt": 1896, "stimulus": "<p id='stroop-text' class='stroop-red'>BOTTLE</p>", "response": "r", "stimulus-type": "unrelated", "word": "BOTTLE", "color": "red", "correct_response": "r", "trial_id": "stroop-trial-1-unrelated-6", "trial_type": "html-keyboard-response", "trial_index": 85, "time_elapsed": 374997, "internal_node_id": "0.0-4.0-81.0"}}, {"uniqueid": "w82427054:a44159833", "current_trial": 86, "dateTime": 1664464293932, "trialdata": {"rt": 877, "stimulus": "<p id='stroop-text' class='stroop-yellow'>DOG</p>", "response": "y", "stimulus-type": "unrelated", "word": "DOG", "color": "yellow", "correct_response": "y", "trial_id": "stroop-trial-1-unrelated-7", "trial_type": "html-keyboard-response", "trial_index": 86, "time_elapsed": 376389, "internal_node_id": "0.0-4.0-82.0"}}, {"uniqueid": "w82427054:a44159833", "current_trial": 87, "dateTime": 1664464295115, "trialdata": {"rt": 678, "stimulus": "<p id='stroop-text' class='stroop-yellow'>YELLOW</p>", "response": "y", "stimulus-type": "congruent", "word": "yellow", "color": "yellow", "correct_response": "y", "trial_id": "stroop-trial-1-congruent-20", "trial_type": "html-keyboard-response", "trial_index": 87, "time_elapsed": 377572, "internal_node_id": "0.0-4.0-83.0"}}, {"uniqueid": "w82427054:a44159833", "current_trial": 88, "dateTime": 1664464296619, "trialdata": {"rt": 1001, "stimulus": "<p id='stroop-text' class='stroop-blue'>BLUE</p>", "response": "b", "stimulus-type": "congruent", "word": "blue", "color": "blue", "correct_response": "b", "trial_id": "stroop-trial-1-congruent-21", "trial_type": "html-keyboard-response", "trial_index": 88, "time_elapsed": 379076, "internal_node_id": "0.0-4.0-84.0"}}, {"uniqueid": "w82427054:a44159833", "current_trial": 89, "dateTime": 1664464297980, "trialdata": {"rt": 858, "stimulus": "<p id='stroop-text' class='stroop-green'>BOTTLE</p>", "response": "g", "stimulus-type": "unrelated", "word": "BOTTLE", "color": "green", "correct_response": "g", "trial_id": "stroop-trial-1-unrelated-2", "trial_type": "html-keyboard-response", "trial_index": 89, "time_elapsed": 380437, "internal_node_id": "0.0-4.0-85.0"}}, {"uniqueid": "w82427054:a44159833", "current_trial": 90, "dateTime": 1664464299980, "trialdata": {"rt": 1495, "stimulus": "<p id='stroop-text' class='stroop-blue'>BRIDGE</p>", "response": "b", "stimulus-type": "unrelated", "word": "BRIDGE", "color": "blue", "correct_response": "b", "trial_id": "stroop-trial-1-unrelated-5", "trial_type": "html-keyboard-response", "trial_index": 90, "time_elapsed": 382437, "internal_node_id": "0.0-4.0-86.0"}}, {"uniqueid": "w82427054:a44159833", "current_trial": 91, "dateTime": 1664464301372, "trialdata": {"rt": 882, "stimulus": "<p id='stroop-text' class='stroop-red'>GREEN</p>", "response": "r", "stimulus-type": "incongruent", "word": "green", "color": "red", "correct_response": "r", "trial_id": "stroop-trial-1-incongruent-18", "trial_type": "html-keyboard-response", "trial_index": 91, "time_elapsed": 383829, "internal_node_id": "0.0-4.0-87.0"}}, {"uniqueid": "w82427054:a44159833", "current_trial": 92, "dateTime": 1664464302972, "trialdata": {"rt": 1095, "stimulus": "<p id='stroop-text' class='stroop-blue'>BLUE</p>", "response": "b", "stimulus-type": "congruent", "word": "blue", "color": "blue", "correct_response": "b", "trial_id": "stroop-trial-1-congruent-15", "trial_type": "html-keyboard-response", "trial_index": 92, "time_elapsed": 385429, "internal_node_id": "0.0-4.0-88.0"}}, {"uniqueid": "w82427054:a44159833", "current_trial": 93, "dateTime": 1664464304811, "trialdata": {"rt": 1334, "stimulus": "<p id='stroop-text' class='stroop-blue'>YELLOW</p>", "response": "b", "stimulus-type": "incongruent", "word": "yellow", "color": "blue", "correct_response": "b", "trial_id": "stroop-trial-1-incongruent-2", "trial_type": "html-keyboard-response", "trial_index": 93, "time_elapsed": 387268, "internal_node_id": "0.0-4.0-89.0"}}, {"uniqueid": "w82427054:a44159833", "current_trial": 94, "dateTime": 1664464313610, "trialdata": {"rt": 8296, "stimulus": "  <h1> End of block! </h1>\n\n  You have reached the end of the block 1/5. If you need a short break, feel free to take one now before moving on.\n\n  <br><br>\n  In the next block, you will complete another 90 rounds of this game.\n\n  <br><br>\n  <div style='text-align: center;'>Press <code>space</code> to begin.</div>\n  <br><br>\n<div style='text-align: center;'>(If the experiment doesn't continue, try clicking on the text and then pressing <code>space</code>.)</div>", "response": " ", "trial_id": "stroop_1_ready_2", "trial_type": "html-keyboard-response", "trial_index": 94, "time_elapsed": 396068, "internal_node_id": "0.0-5.0"}}, {"uniqueid": "w82427054:a44159833", "current_trial": 95, "dateTime": 1664464314684, "trialdata": {"rt": 1071, "stimulus": "<p id='stroop-text' class='stroop-blue'>BLUE</p>", "response": "b", "stimulus-type": "congruent", "word": "blue", "color": "blue", "correct_response": "b", "trial_id": "stroop-trial-1-congruent-11", "trial_type": "html-keyboard-response", "trial_index": 95, "time_elapsed": 397141, "internal_node_id": "0.0-6.0-0.0"}}, {"uniqueid": "w82427054:a44159833", "current_trial": 96, "dateTime": 1664464316428, "trialdata": {"rt": 1236, "stimulus": "<p id='stroop-text' class='stroop-green'>WINDOW</p>", "response": "g", "stimulus-type": "unrelated", "word": "WINDOW", "color": "green", "correct_response": "g", "trial_id": "stroop-trial-1-unrelated-23", "trial_type": "html-keyboard-response", "trial_index": 96, "time_elapsed": 398885, "internal_node_id": "0.0-6.0-1.0"}}, {"uniqueid": "w82427054:a44159833", "current_trial": 97, "dateTime": 1664464318315, "trialdata": {"rt": 1383, "stimulus": "<p id='stroop-text' class='stroop-red'>YELLOW</p>", "response": "r", "stimulus-type": "incongruent", "word": "yellow", "color": "red", "correct_response": "r", "trial_id": "stroop-trial-1-incongruent-15", "trial_type": "html-keyboard-response", "trial_index": 97, "time_elapsed": 400772, "internal_node_id": "0.0-6.0-2.0"}}, {"uniqueid": "w82427054:a44159833", "current_trial": 98, "dateTime": 1664464320091, "trialdata": {"rt": 1273, "stimulus": "<p id='stroop-text' class='stroop-green'>DOG</p>", "response": "g", "stimulus-type": "unrelated", "word": "DOG", "color": "green", "correct_response": "g", "trial_id": "stroop-trial-1-unrelated-20", "trial_type": "html-keyboard-response", "trial_index": 98, "time_elapsed": 402548, "internal_node_id": "0.0-6.0-3.0"}}, {"uniqueid": "w82427054:a44159833", "current_trial": 99, "dateTime": 1664464321611, "trialdata": {"rt": 1016, "stimulus": "<p id='stroop-text' class='stroop-yellow'>BRAIN</p>", "response": "y", "stimulus-type": "unrelated", "word": "BRAIN", "color": "yellow", "correct_response": "y", "trial_id": "stroop-trial-1-unrelated-24", "trial_type": "html-keyboard-response", "trial_index": 99, "time_elapsed": 404068, "internal_node_id": "0.0-6.0-4.0"}}, {"uniqueid": "w82427054:a44159833", "current_trial": 100, "dateTime": 1664464323276, "trialdata": {"rt": 1162, "stimulus": "<p id='stroop-text' class='stroop-blue'>BLUE</p>", "response": "b", "stimulus-type": "congruent", "word": "blue", "color": "blue", "correct_response": "b", "trial_id": "stroop-trial-1-congruent-17", "trial_type": "html-keyboard-response", "trial_index": 100, "time_elapsed": 405733, "internal_node_id": "0.0-6.0-5.0"}}, {"uniqueid": "w82427054:a44159833", "current_trial": 101, "dateTime": 1664464325164, "trialdata": {"rt": 1381, "stimulus": "<p id='stroop-text' class='stroop-red'>YELLOW</p>", "response": "r", "stimulus-type": "incongruent", "word": "yellow", "color": "red", "correct_response": "r", "trial_id": "stroop-trial-1-incongruent-10", "trial_type": "html-keyboard-response", "trial_index": 101, "time_elapsed": 407622, "internal_node_id": "0.0-6.0-6.0"}}, {"uniqueid": "w82427054:a44159833", "current_trial": 102, "dateTime": 1664464326635, "trialdata": {"rt": 965, "stimulus": "<p id='stroop-text' class='stroop-blue'>BLUE</p>", "response": "b", "stimulus-type": "congruent", "word": "blue", "color": "blue", "correct_response": "b", "trial_id": "stroop-trial-1-congruent-3", "trial_type": "html-keyboard-response", "trial_index": 102, "time_elapsed": 409092, "internal_node_id": "0.0-6.0-7.0"}}, {"uniqueid": "w82427054:a44159833", "current_trial": 103, "dateTime": 1664464328603, "trialdata": {"rt": 1465, "stimulus": "<p id='stroop-text' class='stroop-red'>YELLOW</p>", "response": "r", "stimulus-type": "incongruent", "word": "yellow", "color": "red", "correct_response": "r", "trial_id": "stroop-trial-1-incongruent-22", "trial_type": "html-keyboard-response", "trial_index": 103, "time_elapsed": 411060, "internal_node_id": "0.0-6.0-8.0"}}, {"uniqueid": "w82427054:a44159833", "current_trial": 104, "dateTime": 1664464330107, "trialdata": {"rt": 1001, "stimulus": "<p id='stroop-text' class='stroop-yellow'>BLUE</p>", "response": "y", "stimulus-type": "incongruent", "word": "blue", "color": "yellow", "correct_response": "y", "trial_id": "stroop-trial-1-incongruent-17", "trial_type": "html-keyboard-response", "trial_index": 104, "time_elapsed": 412564, "internal_node_id": "0.0-6.0-9.0"}}, {"uniqueid": "w82427054:a44159833", "current_trial": 105, "dateTime": 1664464332059, "trialdata": {"rt": 1449, "stimulus": "<p id='stroop-text' class='stroop-yellow'>BLUE</p>", "response": "y", "stimulus-type": "incongruent", "word": "blue", "color": "yellow", "correct_response": "y", "trial_id": "stroop-trial-1-incongruent-19", "trial_type": "html-keyboard-response", "trial_index": 105, "time_elapsed": 414517, "internal_node_id": "0.0-6.0-10.0"}}, {"uniqueid": "w82427054:a44159833", "current_trial": 106, "dateTime": 1664464334012, "trialdata": {"rt": 1449, "stimulus": "<p id='stroop-text' class='stroop-blue'>RED</p>", "response": "b", "stimulus-type": "incongruent", "word": "red", "color": "blue", "correct_response": "b", "trial_id": "stroop-trial-1-incongruent-1", "trial_type": "html-keyboard-response", "trial_index": 106, "time_elapsed": 416469, "internal_node_id": "0.0-6.0-11.0"}}, {"uniqueid": "w82427054:a44159833", "current_trial": 107, "dateTime": 1664464335884, "trialdata": {"rt": 1367, "stimulus": "<p id='stroop-text' class='stroop-red'>YELLOW</p>", "response": "r", "stimulus-type": "incongruent", "word": "yellow", "color": "red", "correct_response": "r", "trial_id": "stroop-trial-1-incongruent-25", "trial_type": "html-keyboard-response", "trial_index": 107, "time_elapsed": 418342, "internal_node_id": "0.0-6.0-12.0"}}, {"uniqueid": "w82427054:a44159833", "current_trial": 108, "dateTime": 1664464337051, "trialdata": {"rt": 662, "stimulus": "<p id='stroop-text' class='stroop-red'>MONKEY</p>", "response": "r", "stimulus-type": "unrelated", "word": "MONKEY", "color": "red", "correct_response": "r", "trial_id": "stroop-trial-1-unrelated-19", "trial_type": "html-keyboard-response", "trial_index": 108, "time_elapsed": 419509, "internal_node_id": "0.0-6.0-13.0"}}, {"uniqueid": "w82427054:a44159833", "current_trial": 109, "dateTime": 1664464338491, "trialdata": {"rt": 935, "stimulus": "<p id='stroop-text' class='stroop-red'>WINDOW</p>", "response": "r", "stimulus-type": "unrelated", "word": "WINDOW", "color": "red", "correct_response": "r", "trial_id": "stroop-trial-1-unrelated-29", "trial_type": "html-keyboard-response", "trial_index": 109, "time_elapsed": 420948, "internal_node_id": "0.0-6.0-14.0"}}, {"uniqueid": "w82427054:a44159833", "current_trial": 110, "dateTime": 1664464340139, "trialdata": {"rt": 1146, "stimulus": "<p id='stroop-text' class='stroop-blue'>DOG</p>", "response": "b", "stimulus-type": "unrelated", "word": "DOG", "color": "blue", "correct_response": "b", "trial_id": "stroop-trial-1-unrelated-13", "trial_type": "html-keyboard-response", "trial_index": 110, "time_elapsed": 422597, "internal_node_id": "0.0-6.0-15.0"}}, {"uniqueid": "w82427054:a44159833", "current_trial": 111, "dateTime": 1664464341132, "trialdata": {"rt": 488, "stimulus": "<p id='stroop-text' class='stroop-blue'>STONE</p>", "response": "b", "stimulus-type": "unrelated", "word": "STONE", "color": "blue", "correct_response": "b", "trial_id": "stroop-trial-1-unrelated-7", "trial_type": "html-keyboard-response", "trial_index": 111, "time_elapsed": 423589, "internal_node_id": "0.0-6.0-16.0"}}, {"uniqueid": "w82427054:a44159833", "current_trial": 112, "dateTime": 1664464342716, "trialdata": {"rt": 1079, "stimulus": "<p id='stroop-text' class='stroop-yellow'>YELLOW</p>", "response": "y", "stimulus-type": "congruent", "word": "yellow", "color": "yellow", "correct_response": "y", "trial_id": "stroop-trial-1-congruent-20", "trial_type": "html-keyboard-response", "trial_index": 112, "time_elapsed": 425173, "internal_node_id": "0.0-6.0-17.0"}}, {"uniqueid": "w82427054:a44159833", "current_trial": 113, "dateTime": 1664464343820, "trialdata": {"rt": 599, "stimulus": "<p id='stroop-text' class='stroop-yellow'>STONE</p>", "response": "y", "stimulus-type": "unrelated", "word": "STONE", "color": "yellow", "correct_response": "y", "trial_id": "stroop-trial-1-unrelated-1", "trial_type": "html-keyboard-response", "trial_index": 113, "time_elapsed": 426277, "internal_node_id": "0.0-6.0-18.0"}}, {"uniqueid": "w82427054:a44159833", "current_trial": 114, "dateTime": 1664464345404, "trialdata": {"rt": 1076, "stimulus": "<p id='stroop-text' class='stroop-green'>CHAIR</p>", "response": "g", "stimulus-type": "unrelated", "word": "CHAIR", "color": "green", "correct_response": "g", "trial_id": "stroop-trial-1-unrelated-9", "trial_type": "html-keyboard-response", "trial_index": 114, "time_elapsed": 427861, "internal_node_id": "0.0-6.0-19.0"}}, {"uniqueid": "w82427054:a44159833", "current_trial": 115, "dateTime": 1664464347132, "trialdata": {"rt": 1223, "stimulus": "<p id='stroop-text' class='stroop-red'>YELLOW</p>", "response": "r", "stimulus-type": "incongruent", "word": "yellow", "color": "red", "correct_response": "r", "trial_id": "stroop-trial-1-incongruent-7", "trial_type": "html-keyboard-response", "trial_index": 115, "time_elapsed": 429589, "internal_node_id": "0.0-6.0-20.0"}}, {"uniqueid": "w82427054:a44159833", "current_trial": 116, "dateTime": 1664464348540, "trialdata": {"rt": 900, "stimulus": "<p id='stroop-text' class='stroop-yellow'>GREEN</p>", "response": "y", "stimulus-type": "incongruent", "word": "green", "color": "yellow", "correct_response": "y", "trial_id": "stroop-trial-1-incongruent-18", "trial_type": "html-keyboard-response", "trial_index": 116, "time_elapsed": 430997, "internal_node_id": "0.0-6.0-21.0"}}, {"uniqueid": "w82427054:a44159833", "current_trial": 117, "dateTime": 1664464350091, "trialdata": {"rt": 1045, "stimulus": "<p id='stroop-text' class='stroop-red'>RED</p>", "response": "r", "stimulus-type": "congruent", "word": "red", "color": "red", "correct_response": "r", "trial_id": "stroop-trial-1-congruent-25", "trial_type": "html-keyboard-response", "trial_index": 117, "time_elapsed": 432548, "internal_node_id": "0.0-6.0-22.0"}}, {"uniqueid": "w82427054:a44159833", "current_trial": 118, "dateTime": 1664464351564, "trialdata": {"rt": 965, "stimulus": "<p id='stroop-text' class='stroop-yellow'>YELLOW</p>", "response": "y", "stimulus-type": "congruent", "word": "yellow", "color": "yellow", "correct_response": "y", "trial_id": "stroop-trial-1-congruent-2", "trial_type": "html-keyboard-response", "trial_index": 118, "time_elapsed": 434021, "internal_node_id": "0.0-6.0-23.0"}}, {"uniqueid": "w82427054:a44159833", "current_trial": 119, "dateTime": 1664464353244, "trialdata": {"rt": 1174, "stimulus": "<p id='stroop-text' class='stroop-green'>GREEN</p>", "response": "g", "stimulus-type": "congruent", "word": "green", "color": "green", "correct_response": "g", "trial_id": "stroop-trial-1-congruent-23", "trial_type": "html-keyboard-response", "trial_index": 119, "time_elapsed": 435701, "internal_node_id": "0.0-6.0-24.0"}}, {"uniqueid": "w82427054:a44159833", "current_trial": 120, "dateTime": 1664464356300, "trialdata": {"rt": 2550, "stimulus": "<p id='stroop-text' class='stroop-yellow'>RED</p>", "response": "r", "stimulus-type": "incongruent", "word": "red", "color": "yellow", "correct_response": "y", "trial_id": "stroop-trial-1-incongruent-5", "trial_type": "html-keyboard-response", "trial_index": 120, "time_elapsed": 438757, "internal_node_id": "0.0-6.0-25.0"}}, {"uniqueid": "w82427054:a44159833", "current_trial": 121, "dateTime": 1664464358524, "trialdata": {"rt": 1717, "stimulus": "<p id='stroop-text' class='stroop-blue'>BLUE</p>", "response": "b", "stimulus-type": "congruent", "word": "blue", "color": "blue", "correct_response": "b", "trial_id": "stroop-trial-1-congruent-4", "trial_type": "html-keyboard-response", "trial_index": 121, "time_elapsed": 440982, "internal_node_id": "0.0-6.0-26.0"}}, {"uniqueid": "w82427054:a44159833", "current_trial": 122, "dateTime": 1664464359900, "trialdata": {"rt": 871, "stimulus": "<p id='stroop-text' class='stroop-green'>GREEN</p>", "response": "g", "stimulus-type": "congruent", "word": "green", "color": "green", "correct_response": "g", "trial_id": "stroop-trial-1-congruent-6", "trial_type": "html-keyboard-response", "trial_index": 122, "time_elapsed": 442357, "internal_node_id": "0.0-6.0-27.0"}}, {"uniqueid": "w82427054:a44159833", "current_trial": 123, "dateTime": 1664464361692, "trialdata": {"rt": 1285, "stimulus": "<p id='stroop-text' class='stroop-red'>YELLOW</p>", "response": "y", "stimulus-type": "incongruent", "word": "yellow", "color": "red", "correct_response": "r", "trial_id": "stroop-trial-1-incongruent-24", "trial_type": "html-keyboard-response", "trial_index": 123, "time_elapsed": 444149, "internal_node_id": "0.0-6.0-28.0"}}, {"uniqueid": "w82427054:a44159833", "current_trial": 124, "dateTime": 1664464364124, "trialdata": {"rt": 1927, "stimulus": "<p id='stroop-text' class='stroop-red'>RED</p>", "response": "r", "stimulus-type": "congruent", "word": "red", "color": "red", "correct_response": "r", "trial_id": "stroop-trial-1-congruent-21", "trial_type": "html-keyboard-response", "trial_index": 124, "time_elapsed": 446581, "internal_node_id": "0.0-6.0-29.0"}}, {"uniqueid": "w82427054:a44159833", "current_trial": 125, "dateTime": 1664464366012, "trialdata": {"rt": 1380, "stimulus": "<p id='stroop-text' class='stroop-red'>GREEN</p>", "response": "r", "stimulus-type": "incongruent", "word": "green", "color": "red", "correct_response": "r", "trial_id": "stroop-trial-1-incongruent-28", "trial_type": "html-keyboard-response", "trial_index": 125, "time_elapsed": 448469, "internal_node_id": "0.0-6.0-30.0"}}, {"uniqueid": "w82427054:a44159833", "current_trial": 126, "dateTime": 1664464367868, "trialdata": {"rt": 1351, "stimulus": "<p id='stroop-text' class='stroop-green'>GREEN</p>", "response": "g", "stimulus-type": "congruent", "word": "green", "color": "green", "correct_response": "g", "trial_id": "stroop-trial-1-congruent-19", "trial_type": "html-keyboard-response", "trial_index": 126, "time_elapsed": 450325, "internal_node_id": "0.0-6.0-31.0"}}, {"uniqueid": "w82427054:a44159833", "current_trial": 127, "dateTime": 1664464369819, "trialdata": {"rt": 1446, "stimulus": "<p id='stroop-text' class='stroop-blue'>RED</p>", "response": "b", "stimulus-type": "incongruent", "word": "red", "color": "blue", "correct_response": "b", "trial_id": "stroop-trial-1-incongruent-26", "trial_type": "html-keyboard-response", "trial_index": 127, "time_elapsed": 452277, "internal_node_id": "0.0-6.0-32.0"}}, {"uniqueid": "w82427054:a44159833", "current_trial": 128, "dateTime": 1664464371356, "trialdata": {"rt": 1033, "stimulus": "<p id='stroop-text' class='stroop-blue'>BLUE</p>", "response": "b", "stimulus-type": "congruent", "word": "blue", "color": "blue", "correct_response": "b", "trial_id": "stroop-trial-1-congruent-27", "trial_type": "html-keyboard-response", "trial_index": 128, "time_elapsed": 453813, "internal_node_id": "0.0-6.0-33.0"}}, {"uniqueid": "w82427054:a44159833", "current_trial": 129, "dateTime": 1664464372891, "trialdata": {"rt": 1032, "stimulus": "<p id='stroop-text' class='stroop-red'>STONE</p>", "response": "r", "stimulus-type": "unrelated", "word": "STONE", "color": "red", "correct_response": "r", "trial_id": "stroop-trial-1-unrelated-8", "trial_type": "html-keyboard-response", "trial_index": 129, "time_elapsed": 455349, "internal_node_id": "0.0-6.0-34.0"}}, {"uniqueid": "w82427054:a44159833", "current_trial": 130, "dateTime": 1664464375690, "trialdata": {"rt": 2292, "stimulus": "<p id='stroop-text' class='stroop-red'>GREEN</p>", "response": "r", "stimulus-type": "incongruent", "word": "green", "color": "red", "correct_response": "r", "trial_id": "stroop-trial-1-incongruent-3", "trial_type": "html-keyboard-response", "trial_index": 130, "time_elapsed": 458148, "internal_node_id": "0.0-6.0-35.0"}}, {"uniqueid": "w82427054:a44159833", "current_trial": 131, "dateTime": 1664464377339, "trialdata": {"rt": 1145, "stimulus": "<p id='stroop-text' class='stroop-yellow'>GREEN</p>", "response": "y", "stimulus-type": "incongruent", "word": "green", "color": "yellow", "correct_response": "y", "trial_id": "stroop-trial-1-incongruent-11", "trial_type": "html-keyboard-response", "trial_index": 131, "time_elapsed": 459797, "internal_node_id": "0.0-6.0-36.0"}}, {"uniqueid": "w82427054:a44159833", "current_trial": 132, "dateTime": 1664464379274, "trialdata": {"rt": 1430, "stimulus": "<p id='stroop-text' class='stroop-red'>BRIDGE</p>", "response": "r", "stimulus-type": "unrelated", "word": "BRIDGE", "color": "red", "correct_response": "r", "trial_id": "stroop-trial-1-unrelated-16", "trial_type": "html-keyboard-response", "trial_index": 132, "time_elapsed": 461732, "internal_node_id": "0.0-6.0-37.0"}}, {"uniqueid": "w82427054:a44159833", "current_trial": 133, "dateTime": 1664464381211, "trialdata": {"rt": 1434, "stimulus": "<p id='stroop-text' class='stroop-yellow'>RED</p>", "response": "y", "stimulus-type": "incongruent", "word": "red", "color": "yellow", "correct_response": "y", "trial_id": "stroop-trial-1-incongruent-29", "trial_type": "html-keyboard-response", "trial_index": 133, "time_elapsed": 463669, "internal_node_id": "0.0-6.0-38.0"}}, {"uniqueid": "w82427054:a44159833", "current_trial": 134, "dateTime": 1664464384474, "trialdata": {"rt": 2757, "stimulus": "<p id='stroop-text' class='stroop-green'>BLUE</p>", "response": "g", "stimulus-type": "incongruent", "word": "blue", "color": "green", "correct_response": "g", "trial_id": "stroop-trial-1-incongruent-14", "trial_type": "html-keyboard-response", "trial_index": 134, "time_elapsed": 466932, "internal_node_id": "0.0-6.0-39.0"}}, {"uniqueid": "w82427054:a44159833", "current_trial": 135, "dateTime": 1664464386314, "trialdata": {"rt": 1337, "stimulus": "<p id='stroop-text' class='stroop-yellow'>DOG</p>", "response": "y", "stimulus-type": "unrelated", "word": "DOG", "color": "yellow", "correct_response": "y", "trial_id": "stroop-trial-1-unrelated-6", "trial_type": "html-keyboard-response", "trial_index": 135, "time_elapsed": 468772, "internal_node_id": "0.0-6.0-40.0"}}, {"uniqueid": "w82427054:a44159833", "current_trial": 136, "dateTime": 1664464388442, "trialdata": {"rt": 1623, "stimulus": "<p id='stroop-text' class='stroop-green'>RED</p>", "response": "g", "stimulus-type": "incongruent", "word": "red", "color": "green", "correct_response": "g", "trial_id": "stroop-trial-1-incongruent-12", "trial_type": "html-keyboard-response", "trial_index": 136, "time_elapsed": 470900, "internal_node_id": "0.0-6.0-41.0"}}, {"uniqueid": "w82427054:a44159833", "current_trial": 137, "dateTime": 1664464390955, "trialdata": {"rt": 2010, "stimulus": "<p id='stroop-text' class='stroop-blue'>BRAIN</p>", "response": "b", "stimulus-type": "unrelated", "word": "BRAIN", "color": "blue", "correct_response": "b", "trial_id": "stroop-trial-1-unrelated-25", "trial_type": "html-keyboard-response", "trial_index": 137, "time_elapsed": 473413, "internal_node_id": "0.0-6.0-42.0"}}, {"uniqueid": "w82427054:a44159833", "current_trial": 138, "dateTime": 1664464393292, "trialdata": {"rt": 1830, "stimulus": "<p id='stroop-text' class='stroop-blue'>YELLOW</p>", "response": "b", "stimulus-type": "incongruent", "word": "yellow", "color": "blue", "correct_response": "b", "trial_id": "stroop-trial-1-incongruent-2", "trial_type": "html-keyboard-response", "trial_index": 138, "time_elapsed": 475749, "internal_node_id": "0.0-6.0-43.0"}}, {"uniqueid": "w82427054:a44159833", "current_trial": 139, "dateTime": 1664464395851, "trialdata": {"rt": 2054, "stimulus": "<p id='stroop-text' class='stroop-green'>GREEN</p>", "response": "g", "stimulus-type": "congruent", "word": "green", "color": "green", "correct_response": "g", "trial_id": "stroop-trial-1-congruent-22", "trial_type": "html-keyboard-response", "trial_index": 139, "time_elapsed": 478309, "internal_node_id": "0.0-6.0-44.0"}}, {"uniqueid": "w82427054:a44159833", "current_trial": 140, "dateTime": 1664464397195, "trialdata": {"rt": 830, "stimulus": "<p id='stroop-text' class='stroop-yellow'>YELLOW</p>", "response": "y", "stimulus-type": "congruent", "word": "yellow", "color": "yellow", "correct_response": "y", "trial_id": "stroop-trial-1-congruent-29", "trial_type": "html-keyboard-response", "trial_index": 140, "time_elapsed": 479653, "internal_node_id": "0.0-6.0-45.0"}}, {"uniqueid": "w82427054:a44159833", "current_trial": 141, "dateTime": 1664464398315, "trialdata": {"rt": 615, "stimulus": "<p id='stroop-text' class='stroop-red'>RED</p>", "response": "r", "stimulus-type": "congruent", "word": "red", "color": "red", "correct_response": "r", "trial_id": "stroop-trial-1-congruent-1", "trial_type": "html-keyboard-response", "trial_index": 141, "time_elapsed": 480773, "internal_node_id": "0.0-6.0-46.0"}}, {"uniqueid": "w82427054:a44159833", "current_trial": 142, "dateTime": 1664464399403, "trialdata": {"rt": 580, "stimulus": "<p id='stroop-text' class='stroop-red'>BRAIN</p>", "response": "r", "stimulus-type": "unrelated", "word": "BRAIN", "color": "red", "correct_response": "r", "trial_id": "stroop-trial-1-unrelated-22", "trial_type": "html-keyboard-response", "trial_index": 142, "time_elapsed": 481861, "internal_node_id": "0.0-6.0-47.0"}}, {"uniqueid": "w82427054:a44159833", "current_trial": 143, "dateTime": 1664464401066, "trialdata": {"rt": 1156, "stimulus": "<p id='stroop-text' class='stroop-blue'>MONKEY</p>", "response": "b", "stimulus-type": "unrelated", "word": "MONKEY", "color": "blue", "correct_response": "b", "trial_id": "stroop-trial-1-unrelated-17", "trial_type": "html-keyboard-response", "trial_index": 143, "time_elapsed": 483524, "internal_node_id": "0.0-6.0-48.0"}}, {"uniqueid": "w82427054:a44159833", "current_trial": 144, "dateTime": 1664464402379, "trialdata": {"rt": 808, "stimulus": "<p id='stroop-text' class='stroop-blue'>BLUE</p>", "response": "b", "stimulus-type": "congruent", "word": "blue", "color": "blue", "correct_response": "b", "trial_id": "stroop-trial-1-congruent-7", "trial_type": "html-keyboard-response", "trial_index": 144, "time_elapsed": 484837, "internal_node_id": "0.0-6.0-49.0"}}, {"uniqueid": "w82427054:a44159833", "current_trial": 145, "dateTime": 1664464405180, "trialdata": {"rt": 2296, "stimulus": "<p id='stroop-text' class='stroop-yellow'>BLUE</p>", "response": "y", "stimulus-type": "incongruent", "word": "blue", "color": "yellow", "correct_response": "y", "trial_id": "stroop-trial-1-incongruent-27", "trial_type": "html-keyboard-response", "trial_index": 145, "time_elapsed": 487637, "internal_node_id": "0.0-6.0-50.0"}}, {"uniqueid": "w82427054:a44159833", "current_trial": 146, "dateTime": 1664464406395, "trialdata": {"rt": 708, "stimulus": "<p id='stroop-text' class='stroop-red'>RED</p>", "response": "r", "stimulus-type": "congruent", "word": "red", "color": "red", "correct_response": "r", "trial_id": "stroop-trial-1-congruent-8", "trial_type": "html-keyboard-response", "trial_index": 146, "time_elapsed": 488852, "internal_node_id": "0.0-6.0-51.0"}}, {"uniqueid": "w82427054:a44159833", "current_trial": 147, "dateTime": 1664464407931, "trialdata": {"rt": 1032, "stimulus": "<p id='stroop-text' class='stroop-yellow'>WINDOW</p>", "response": "y", "stimulus-type": "unrelated", "word": "WINDOW", "color": "yellow", "correct_response": "y", "trial_id": "stroop-trial-1-unrelated-30", "trial_type": "html-keyboard-response", "trial_index": 147, "time_elapsed": 490389, "internal_node_id": "0.0-6.0-52.0"}}, {"uniqueid": "w82427054:a44159833", "current_trial": 148, "dateTime": 1664464409370, "trialdata": {"rt": 933, "stimulus": "<p id='stroop-text' class='stroop-green'>GREEN</p>", "response": "g", "stimulus-type": "congruent", "word": "green", "color": "green", "correct_response": "g", "trial_id": "stroop-trial-1-congruent-24", "trial_type": "html-keyboard-response", "trial_index": 148, "time_elapsed": 491828, "internal_node_id": "0.0-6.0-53.0"}}, {"uniqueid": "w82427054:a44159833", "current_trial": 149, "dateTime": 1664464410570, "trialdata": {"rt": 696, "stimulus": "<p id='stroop-text' class='stroop-red'>RED</p>", "response": "r", "stimulus-type": "congruent", "word": "red", "color": "red", "correct_response": "r", "trial_id": "stroop-trial-1-congruent-28", "trial_type": "html-keyboard-response", "trial_index": 149, "time_elapsed": 493028, "internal_node_id": "0.0-6.0-54.0"}}, {"uniqueid": "w82427054:a44159833", "current_trial": 150, "dateTime": 1664464412074, "trialdata": {"rt": 1000, "stimulus": "<p id='stroop-text' class='stroop-yellow'>BRAIN</p>", "response": "y", "stimulus-type": "unrelated", "word": "BRAIN", "color": "yellow", "correct_response": "y", "trial_id": "stroop-trial-1-unrelated-3", "trial_type": "html-keyboard-response", "trial_index": 150, "time_elapsed": 494532, "internal_node_id": "0.0-6.0-55.0"}}, {"uniqueid": "w82427054:a44159833", "current_trial": 151, "dateTime": 1664464414331, "trialdata": {"rt": 1753, "stimulus": "<p id='stroop-text' class='stroop-red'>GREEN</p>", "response": "r", "stimulus-type": "incongruent", "word": "green", "color": "red", "correct_response": "r", "trial_id": "stroop-trial-1-incongruent-6", "trial_type": "html-keyboard-response", "trial_index": 151, "time_elapsed": 496789, "internal_node_id": "0.0-6.0-56.0"}}, {"uniqueid": "w82427054:a44159833", "current_trial": 152, "dateTime": 1664464416107, "trialdata": {"rt": 1270, "stimulus": "<p id='stroop-text' class='stroop-green'>GREEN</p>", "response": "g", "stimulus-type": "congruent", "word": "green", "color": "green", "correct_response": "g", "trial_id": "stroop-trial-1-congruent-14", "trial_type": "html-keyboard-response", "trial_index": 152, "time_elapsed": 498564, "internal_node_id": "0.0-6.0-57.0"}}, {"uniqueid": "w82427054:a44159833", "current_trial": 153, "dateTime": 1664464417723, "trialdata": {"rt": 1110, "stimulus": "<p id='stroop-text' class='stroop-yellow'>DOG</p>", "response": "y", "stimulus-type": "unrelated", "word": "DOG", "color": "yellow", "correct_response": "y", "trial_id": "stroop-trial-1-unrelated-21", "trial_type": "html-keyboard-response", "trial_index": 153, "time_elapsed": 500181, "internal_node_id": "0.0-6.0-58.0"}}, {"uniqueid": "w82427054:a44159833", "current_trial": 154, "dateTime": 1664464419658, "trialdata": {"rt": 1428, "stimulus": "<p id='stroop-text' class='stroop-red'>GREEN</p>", "response": "r", "stimulus-type": "incongruent", "word": "green", "color": "red", "correct_response": "r", "trial_id": "stroop-trial-1-incongruent-23", "trial_type": "html-keyboard-response", "trial_index": 154, "time_elapsed": 502116, "internal_node_id": "0.0-6.0-59.0"}}, {"uniqueid": "w82427054:a44159833", "current_trial": 155, "dateTime": 1664464421354, "trialdata": {"rt": 1193, "stimulus": "<p id='stroop-text' class='stroop-green'>YELLOW</p>", "response": "g", "stimulus-type": "incongruent", "word": "yellow", "color": "green", "correct_response": "g", "trial_id": "stroop-trial-1-incongruent-4", "trial_type": "html-keyboard-response", "trial_index": 155, "time_elapsed": 503812, "internal_node_id": "0.0-6.0-60.0"}}, {"uniqueid": "w82427054:a44159833", "current_trial": 156, "dateTime": 1664464423227, "trialdata": {"rt": 1367, "stimulus": "<p id='stroop-text' class='stroop-blue'>CHAIR</p>", "response": "b", "stimulus-type": "unrelated", "word": "CHAIR", "color": "blue", "correct_response": "b", "trial_id": "stroop-trial-1-unrelated-10", "trial_type": "html-keyboard-response", "trial_index": 156, "time_elapsed": 505685, "internal_node_id": "0.0-6.0-61.0"}}, {"uniqueid": "w82427054:a44159833", "current_trial": 157, "dateTime": 1664464424891, "trialdata": {"rt": 1157, "stimulus": "<p id='stroop-text' class='stroop-green'>SHIP</p>", "response": "g", "stimulus-type": "unrelated", "word": "SHIP", "color": "green", "correct_response": "g", "trial_id": "stroop-trial-1-unrelated-15", "trial_type": "html-keyboard-response", "trial_index": 157, "time_elapsed": 507349, "internal_node_id": "0.0-6.0-62.0"}}, {"uniqueid": "w82427054:a44159833", "current_trial": 158, "dateTime": 1664464427354, "trialdata": {"rt": 1958, "stimulus": "<p id='stroop-text' class='stroop-red'>RED</p>", "response": "r", "stimulus-type": "congruent", "word": "red", "color": "red", "correct_response": "r", "trial_id": "stroop-trial-1-congruent-10", "trial_type": "html-keyboard-response", "trial_index": 158, "time_elapsed": 509812, "internal_node_id": "0.0-6.0-63.0"}}, {"uniqueid": "w82427054:a44159833", "current_trial": 159, "dateTime": 1664464428523, "trialdata": {"rt": 666, "stimulus": "<p id='stroop-text' class='stroop-red'>YELLOW</p>", "response": "r", "stimulus-type": "incongruent", "word": "yellow", "color": "red", "correct_response": "r", "trial_id": "stroop-trial-1-incongruent-20", "trial_type": "html-keyboard-response", "trial_index": 159, "time_elapsed": 510981, "internal_node_id": "0.0-6.0-64.0"}}, {"uniqueid": "w82427054:a44159833", "current_trial": 160, "dateTime": 1664464430042, "trialdata": {"rt": 1013, "stimulus": "<p id='stroop-text' class='stroop-green'>BOTTLE</p>", "response": "g", "stimulus-type": "unrelated", "word": "BOTTLE", "color": "green", "correct_response": "g", "trial_id": "stroop-trial-1-unrelated-5", "trial_type": "html-keyboard-response", "trial_index": 160, "time_elapsed": 512500, "internal_node_id": "0.0-6.0-65.0"}}, {"uniqueid": "w82427054:a44159833", "current_trial": 161, "dateTime": 1664464431179, "trialdata": {"rt": 633, "stimulus": "<p id='stroop-text' class='stroop-red'>RED</p>", "response": "r", "stimulus-type": "congruent", "word": "red", "color": "red", "correct_response": "r", "trial_id": "stroop-trial-1-congruent-5", "trial_type": "html-keyboard-response", "trial_index": 161, "time_elapsed": 513637, "internal_node_id": "0.0-6.0-66.0"}}, {"uniqueid": "w82427054:a44159833", "current_trial": 162, "dateTime": 1664464433980, "trialdata": {"rt": 2280, "stimulus": "<p id='stroop-text' class='stroop-red'>GREEN</p>", "response": "r", "stimulus-type": "incongruent", "word": "green", "color": "red", "correct_response": "r", "trial_id": "stroop-trial-1-incongruent-9", "trial_type": "html-keyboard-response", "trial_index": 162, "time_elapsed": 516438, "internal_node_id": "0.0-6.0-67.0"}}, {"uniqueid": "w82427054:a44159833", "current_trial": 163, "dateTime": 1664464435740, "trialdata": {"rt": 1247, "stimulus": "<p id='stroop-text' class='stroop-yellow'>BOAT</p>", "response": "y", "stimulus-type": "unrelated", "word": "BOAT", "color": "yellow", "correct_response": "y", "trial_id": "stroop-trial-1-unrelated-26", "trial_type": "html-keyboard-response", "trial_index": 163, "time_elapsed": 518197, "internal_node_id": "0.0-6.0-68.0"}}, {"uniqueid": "w82427054:a44159833", "current_trial": 164, "dateTime": 1664464437212, "trialdata": {"rt": 965, "stimulus": "<p id='stroop-text' class='stroop-yellow'>GREEN</p>", "response": "y", "stimulus-type": "incongruent", "word": "green", "color": "yellow", "correct_response": "y", "trial_id": "stroop-trial-1-incongruent-8", "trial_type": "html-keyboard-response", "trial_index": 164, "time_elapsed": 519669, "internal_node_id": "0.0-6.0-69.0"}}, {"uniqueid": "w82427054:a44159833", "current_trial": 165, "dateTime": 1664464439036, "trialdata": {"rt": 1319, "stimulus": "<p id='stroop-text' class='stroop-green'>GREEN</p>", "response": "g", "stimulus-type": "congruent", "word": "green", "color": "green", "correct_response": "g", "trial_id": "stroop-trial-1-congruent-18", "trial_type": "html-keyboard-response", "trial_index": 165, "time_elapsed": 521494, "internal_node_id": "0.0-6.0-70.0"}}, {"uniqueid": "w82427054:a44159833", "current_trial": 166, "dateTime": 1664464440442, "trialdata": {"rt": 900, "stimulus": "<p id='stroop-text' class='stroop-yellow'>BRIDGE</p>", "response": "y", "stimulus-type": "unrelated", "word": "BRIDGE", "color": "yellow", "correct_response": "y", "trial_id": "stroop-trial-1-unrelated-11", "trial_type": "html-keyboard-response", "trial_index": 166, "time_elapsed": 522900, "internal_node_id": "0.0-6.0-71.0"}}, {"uniqueid": "w82427054:a44159833", "current_trial": 167, "dateTime": 1664464442236, "trialdata": {"rt": 1290, "stimulus": "<p id='stroop-text' class='stroop-green'>STONE</p>", "response": "g", "stimulus-type": "unrelated", "word": "STONE", "color": "green", "correct_response": "g", "trial_id": "stroop-trial-1-unrelated-18", "trial_type": "html-keyboard-response", "trial_index": 167, "time_elapsed": 524694, "internal_node_id": "0.0-6.0-72.0"}}, {"uniqueid": "w82427054:a44159833", "current_trial": 168, "dateTime": 1664464443995, "trialdata": {"rt": 1253, "stimulus": "<p id='stroop-text' class='stroop-green'>YELLOW</p>", "response": "g", "stimulus-type": "incongruent", "word": "yellow", "color": "green", "correct_response": "g", "trial_id": "stroop-trial-1-incongruent-16", "trial_type": "html-keyboard-response", "trial_index": 168, "time_elapsed": 526453, "internal_node_id": "0.0-6.0-73.0"}}, {"uniqueid": "w82427054:a44159833", "current_trial": 169, "dateTime": 1664464445322, "trialdata": {"rt": 823, "stimulus": "<p id='stroop-text' class='stroop-yellow'>YELLOW</p>", "response": "y", "stimulus-type": "congruent", "word": "yellow", "color": "yellow", "correct_response": "y", "trial_id": "stroop-trial-1-congruent-16", "trial_type": "html-keyboard-response", "trial_index": 169, "time_elapsed": 527780, "internal_node_id": "0.0-6.0-74.0"}}, {"uniqueid": "w82427054:a44159833", "current_trial": 170, "dateTime": 1664464447339, "trialdata": {"rt": 1512, "stimulus": "<p id='stroop-text' class='stroop-green'>BOAT</p>", "response": "g", "stimulus-type": "unrelated", "word": "BOAT", "color": "green", "correct_response": "g", "trial_id": "stroop-trial-1-unrelated-12", "trial_type": "html-keyboard-response", "trial_index": 170, "time_elapsed": 529796, "internal_node_id": "0.0-6.0-75.0"}}, {"uniqueid": "w82427054:a44159833", "current_trial": 171, "dateTime": 1664464448522, "trialdata": {"rt": 680, "stimulus": "<p id='stroop-text' class='stroop-green'>BRIDGE</p>", "response": "g", "stimulus-type": "unrelated", "word": "BRIDGE", "color": "green", "correct_response": "g", "trial_id": "stroop-trial-1-unrelated-4", "trial_type": "html-keyboard-response", "trial_index": 171, "time_elapsed": 530980, "internal_node_id": "0.0-6.0-76.0"}}, {"uniqueid": "w82427054:a44159833", "current_trial": 172, "dateTime": 1664464450891, "trialdata": {"rt": 1864, "stimulus": "<p id='stroop-text' class='stroop-blue'>BLUE</p>", "response": "b", "stimulus-type": "congruent", "word": "blue", "color": "blue", "correct_response": "b", "trial_id": "stroop-trial-1-congruent-15", "trial_type": "html-keyboard-response", "trial_index": 172, "time_elapsed": 533349, "internal_node_id": "0.0-6.0-77.0"}}, {"uniqueid": "w82427054:a44159833", "current_trial": 173, "dateTime": 1664464452267, "trialdata": {"rt": 872, "stimulus": "<p id='stroop-text' class='stroop-red'>FORK</p>", "response": "r", "stimulus-type": "unrelated", "word": "FORK", "color": "red", "correct_response": "r", "trial_id": "stroop-trial-1-unrelated-27", "trial_type": "html-keyboard-response", "trial_index": 173, "time_elapsed": 534724, "internal_node_id": "0.0-6.0-78.0"}}, {"uniqueid": "w82427054:a44159833", "current_trial": 174, "dateTime": 1664464453643, "trialdata": {"rt": 873, "stimulus": "<p id='stroop-text' class='stroop-yellow'>RED</p>", "response": "y", "stimulus-type": "incongruent", "word": "red", "color": "yellow", "correct_response": "y", "trial_id": "stroop-trial-1-incongruent-21", "trial_type": "html-keyboard-response", "trial_index": 174, "time_elapsed": 536100, "internal_node_id": "0.0-6.0-79.0"}}, {"uniqueid": "w82427054:a44159833", "current_trial": 175, "dateTime": 1664464455163, "trialdata": {"rt": 1017, "stimulus": "<p id='stroop-text' class='stroop-red'>RED</p>", "response": "r", "stimulus-type": "congruent", "word": "red", "color": "red", "correct_response": "r", "trial_id": "stroop-trial-1-congruent-9", "trial_type": "html-keyboard-response", "trial_index": 175, "time_elapsed": 537620, "internal_node_id": "0.0-6.0-80.0"}}, {"uniqueid": "w82427054:a44159833", "current_trial": 176, "dateTime": 1664464456955, "trialdata": {"rt": 1288, "stimulus": "<p id='stroop-text' class='stroop-green'>GREEN</p>", "response": "g", "stimulus-type": "congruent", "word": "green", "color": "green", "correct_response": "g", "trial_id": "stroop-trial-1-congruent-26", "trial_type": "html-keyboard-response", "trial_index": 176, "time_elapsed": 539413, "internal_node_id": "0.0-6.0-81.0"}}, {"uniqueid": "w82427054:a44159833", "current_trial": 177, "dateTime": 1664464458636, "trialdata": {"rt": 1174, "stimulus": "<p id='stroop-text' class='stroop-blue'>STONE</p>", "response": "b", "stimulus-type": "unrelated", "word": "STONE", "color": "blue", "correct_response": "b", "trial_id": "stroop-trial-1-unrelated-2", "trial_type": "html-keyboard-response", "trial_index": 177, "time_elapsed": 541093, "internal_node_id": "0.0-6.0-82.0"}}, {"uniqueid": "w82427054:a44159833", "current_trial": 178, "dateTime": 1664464460028, "trialdata": {"rt": 885, "stimulus": "<p id='stroop-text' class='stroop-yellow'>YELLOW</p>", "response": "y", "stimulus-type": "congruent", "word": "yellow", "color": "yellow", "correct_response": "y", "trial_id": "stroop-trial-1-congruent-12", "trial_type": "html-keyboard-response", "trial_index": 178, "time_elapsed": 542485, "internal_node_id": "0.0-6.0-83.0"}}, {"uniqueid": "w82427054:a44159833", "current_trial": 179, "dateTime": 1664464461563, "trialdata": {"rt": 1031, "stimulus": "<p id='stroop-text' class='stroop-green'>WINDOW</p>", "response": "g", "stimulus-type": "unrelated", "word": "WINDOW", "color": "green", "correct_response": "g", "trial_id": "stroop-trial-1-unrelated-14", "trial_type": "html-keyboard-response", "trial_index": 179, "time_elapsed": 544021, "internal_node_id": "0.0-6.0-84.0"}}, {"uniqueid": "w82427054:a44159833", "current_trial": 180, "dateTime": 1664464463196, "trialdata": {"rt": 1129, "stimulus": "<p id='stroop-text' class='stroop-green'>GREEN</p>", "response": "g", "stimulus-type": "congruent", "word": "green", "color": "green", "correct_response": "g", "trial_id": "stroop-trial-1-congruent-30", "trial_type": "html-keyboard-response", "trial_index": 180, "time_elapsed": 545653, "internal_node_id": "0.0-6.0-85.0"}}, {"uniqueid": "w82427054:a44159833", "current_trial": 181, "dateTime": 1664464465627, "trialdata": {"rt": 1924, "stimulus": "<p id='stroop-text' class='stroop-yellow'>BLUE</p>", "response": "y", "stimulus-type": "incongruent", "word": "blue", "color": "yellow", "correct_response": "y", "trial_id": "stroop-trial-1-incongruent-30", "trial_type": "html-keyboard-response", "trial_index": 181, "time_elapsed": 548084, "internal_node_id": "0.0-6.0-86.0"}}, {"uniqueid": "w82427054:a44159833", "current_trial": 182, "dateTime": 1664464467260, "trialdata": {"rt": 1129, "stimulus": "<p id='stroop-text' class='stroop-red'>RED</p>", "response": "r", "stimulus-type": "congruent", "word": "red", "color": "red", "correct_response": "r", "trial_id": "stroop-trial-1-congruent-13", "trial_type": "html-keyboard-response", "trial_index": 182, "time_elapsed": 549718, "internal_node_id": "0.0-6.0-87.0"}}, {"uniqueid": "w82427054:a44159833", "current_trial": 183, "dateTime": 1664464468731, "trialdata": {"rt": 964, "stimulus": "<p id='stroop-text' class='stroop-green'>MONKEY</p>", "response": "g", "stimulus-type": "unrelated", "word": "MONKEY", "color": "green", "correct_response": "g", "trial_id": "stroop-trial-1-unrelated-28", "trial_type": "html-keyboard-response", "trial_index": 183, "time_elapsed": 551188, "internal_node_id": "0.0-6.0-88.0"}}, {"uniqueid": "w82427054:a44159833", "current_trial": 184, "dateTime": 1664464470748, "trialdata": {"rt": 1513, "stimulus": "<p id='stroop-text' class='stroop-green'>RED</p>", "response": "g", "stimulus-type": "incongruent", "word": "red", "color": "green", "correct_response": "g", "trial_id": "stroop-trial-1-incongruent-13", "trial_type": "html-keyboard-response", "trial_index": 184, "time_elapsed": 553205, "internal_node_id": "0.0-6.0-89.0"}}, {"uniqueid": "w82427054:a44159833", "current_trial": 185, "dateTime": 1664464509276, "trialdata": {"rt": 38021, "stimulus": "  <h1> End of block! </h1>\n\n  You have reached the end of the block 2/5. If you need a short break, feel free to take one now before moving on.\n\n  <br><br>\n  In the next block, you will complete another 90 rounds of this game.\n\n  <br><br>\n  <div style='text-align: center;'>Press <code>space</code> to begin.</div>\n  <br><br>\n<div style='text-align: center;'>(If the experiment doesn't continue, try clicking on the text and then pressing <code>space</code>.)</div>", "response": " ", "trial_id": "stroop_1_ready_3", "trial_type": "html-keyboard-response", "trial_index": 185, "time_elapsed": 591734, "internal_node_id": "0.0-7.0"}}, {"uniqueid": "w82427054:a44159833", "current_trial": 186, "dateTime": 1664464511179, "trialdata": {"rt": 1896, "stimulus": "<p id='stroop-text' class='stroop-yellow'>GREEN</p>", "response": "y", "stimulus-type": "incongruent", "word": "green", "color": "yellow", "correct_response": "y", "trial_id": "stroop-trial-1-incongruent-12", "trial_type": "html-keyboard-response", "trial_index": 186, "time_elapsed": 593637, "internal_node_id": "0.0-8.0-0.0"}}, {"uniqueid": "w82427054:a44159833", "current_trial": 187, "dateTime": 1664464512714, "trialdata": {"rt": 1022, "stimulus": "<p id='stroop-text' class='stroop-blue'>SHIP</p>", "response": "b", "stimulus-type": "unrelated", "word": "SHIP", "color": "blue", "correct_response": "b", "trial_id": "stroop-trial-1-unrelated-7", "trial_type": "html-keyboard-response", "trial_index": 187, "time_elapsed": 595172, "internal_node_id": "0.0-8.0-1.0"}}, {"uniqueid": "w82427054:a44159833", "current_trial": 188, "dateTime": 1664464514170, "trialdata": {"rt": 952, "stimulus": "<p id='stroop-text' class='stroop-yellow'>WINDOW</p>", "response": "y", "stimulus-type": "unrelated", "word": "WINDOW", "color": "yellow", "correct_response": "y", "trial_id": "stroop-trial-1-unrelated-12", "trial_type": "html-keyboard-response", "trial_index": 188, "time_elapsed": 596628, "internal_node_id": "0.0-8.0-2.0"}}, {"uniqueid": "w82427054:a44159833", "current_trial": 189, "dateTime": 1664464515402, "trialdata": {"rt": 727, "stimulus": "<p id='stroop-text' class='stroop-red'>RED</p>", "response": "r", "stimulus-type": "congruent", "word": "red", "color": "red", "correct_response": "r", "trial_id": "stroop-trial-1-congruent-21", "trial_type": "html-keyboard-response", "trial_index": 189, "time_elapsed": 597860, "internal_node_id": "0.0-8.0-3.0"}}, {"uniqueid": "w82427054:a44159833", "current_trial": 190, "dateTime": 1664464516362, "trialdata": {"rt": 456, "stimulus": "<p id='stroop-text' class='stroop-red'>BRIDGE</p>", "response": "r", "stimulus-type": "unrelated", "word": "BRIDGE", "color": "red", "correct_response": "r", "trial_id": "stroop-trial-1-unrelated-17", "trial_type": "html-keyboard-response", "trial_index": 190, "time_elapsed": 598820, "internal_node_id": "0.0-8.0-4.0"}}, {"uniqueid": "w82427054:a44159833", "current_trial": 191, "dateTime": 1664464518250, "trialdata": {"rt": 1384, "stimulus": "<p id='stroop-text' class='stroop-blue'>RED</p>", "response": "b", "stimulus-type": "incongruent", "word": "red", "color": "blue", "correct_response": "b", "trial_id": "stroop-trial-1-incongruent-15", "trial_type": "html-keyboard-response", "trial_index": 191, "time_elapsed": 600708, "internal_node_id": "0.0-8.0-5.0"}}, {"uniqueid": "w82427054:a44159833", "current_trial": 192, "dateTime": 1664464519530, "trialdata": {"rt": 777, "stimulus": "<p id='stroop-text' class='stroop-yellow'>YELLOW</p>", "response": "y", "stimulus-type": "congruent", "word": "yellow", "color": "yellow", "correct_response": "y", "trial_id": "stroop-trial-1-congruent-17", "trial_type": "html-keyboard-response", "trial_index": 192, "time_elapsed": 601988, "internal_node_id": "0.0-8.0-6.0"}}, {"uniqueid": "w82427054:a44159833", "current_trial": 193, "dateTime": 1664464521803, "trialdata": {"rt": 1768, "stimulus": "<p id='stroop-text' class='stroop-blue'>YELLOW</p>", "response": "b", "stimulus-type": "incongruent", "word": "yellow", "color": "blue", "correct_response": "b", "trial_id": "stroop-trial-1-incongruent-5", "trial_type": "html-keyboard-response", "trial_index": 193, "time_elapsed": 604260, "internal_node_id": "0.0-8.0-7.0"}}, {"uniqueid": "w82427054:a44159833", "current_trial": 194, "dateTime": 1664464523050, "trialdata": {"rt": 744, "stimulus": "<p id='stroop-text' class='stroop-red'>BRIDGE</p>", "response": "r", "stimulus-type": "unrelated", "word": "BRIDGE", "color": "red", "correct_response": "r", "trial_id": "stroop-trial-1-unrelated-25", "trial_type": "html-keyboard-response", "trial_index": 194, "time_elapsed": 605508, "internal_node_id": "0.0-8.0-8.0"}}, {"uniqueid": "w82427054:a44159833", "current_trial": 195, "dateTime": 1664464524379, "trialdata": {"rt": 826, "stimulus": "<p id='stroop-text' class='stroop-yellow'>YELLOW</p>", "response": "y", "stimulus-type": "congruent", "word": "yellow", "color": "yellow", "correct_response": "y", "trial_id": "stroop-trial-1-congruent-29", "trial_type": "html-keyboard-response", "trial_index": 195, "time_elapsed": 606837, "internal_node_id": "0.0-8.0-9.0"}}, {"uniqueid": "w82427054:a44159833", "current_trial": 196, "dateTime": 1664464526427, "trialdata": {"rt": 1541, "stimulus": "<p id='stroop-text' class='stroop-red'>RED</p>", "response": "r", "stimulus-type": "congruent", "word": "red", "color": "red", "correct_response": "r", "trial_id": "stroop-trial-1-congruent-16", "trial_type": "html-keyboard-response", "trial_index": 196, "time_elapsed": 608885, "internal_node_id": "0.0-8.0-10.0"}}, {"uniqueid": "w82427054:a44159833", "current_trial": 197, "dateTime": 1664464528010, "trialdata": {"rt": 1077, "stimulus": "<p id='stroop-text' class='stroop-blue'>BLUE</p>", "response": "b", "stimulus-type": "congruent", "word": "blue", "color": "blue", "correct_response": "b", "trial_id": "stroop-trial-1-congruent-8", "trial_type": "html-keyboard-response", "trial_index": 197, "time_elapsed": 610468, "internal_node_id": "0.0-8.0-11.0"}}, {"uniqueid": "w82427054:a44159833", "current_trial": 198, "dateTime": 1664464529594, "trialdata": {"rt": 1080, "stimulus": "<p id='stroop-text' class='stroop-green'>WINDOW</p>", "response": "g", "stimulus-type": "unrelated", "word": "WINDOW", "color": "green", "correct_response": "g", "trial_id": "stroop-trial-1-unrelated-16", "trial_type": "html-keyboard-response", "trial_index": 198, "time_elapsed": 612052, "internal_node_id": "0.0-8.0-12.0"}}, {"uniqueid": "w82427054:a44159833", "current_trial": 199, "dateTime": 1664464531260, "trialdata": {"rt": 1160, "stimulus": "<p id='stroop-text' class='stroop-green'>GREEN</p>", "response": "g", "stimulus-type": "congruent", "word": "green", "color": "green", "correct_response": "g", "trial_id": "stroop-trial-1-congruent-25", "trial_type": "html-keyboard-response", "trial_index": 199, "time_elapsed": 613717, "internal_node_id": "0.0-8.0-13.0"}}, {"uniqueid": "w82427054:a44159833", "current_trial": 200, "dateTime": 1664464534204, "trialdata": {"rt": 2424, "stimulus": "<p id='stroop-text' class='stroop-red'>BLUE</p>", "response": "r", "stimulus-type": "incongruent", "word": "blue", "color": "red", "correct_response": "r", "trial_id": "stroop-trial-1-incongruent-27", "trial_type": "html-keyboard-response", "trial_index": 200, "time_elapsed": 616661, "internal_node_id": "0.0-8.0-14.0"}}, {"uniqueid": "w82427054:a44159833", "current_trial": 201, "dateTime": 1664464535962, "trialdata": {"rt": 1254, "stimulus": "<p id='stroop-text' class='stroop-blue'>BLUE</p>", "response": "b", "stimulus-type": "congruent", "word": "blue", "color": "blue", "correct_response": "b", "trial_id": "stroop-trial-1-congruent-18", "trial_type": "html-keyboard-response", "trial_index": 201, "time_elapsed": 618420, "internal_node_id": "0.0-8.0-15.0"}}, {"uniqueid": "w82427054:a44159833", "current_trial": 202, "dateTime": 1664464537002, "trialdata": {"rt": 535, "stimulus": "<p id='stroop-text' class='stroop-blue'>BLUE</p>", "response": "b", "stimulus-type": "congruent", "word": "blue", "color": "blue", "correct_response": "b", "trial_id": "stroop-trial-1-congruent-20", "trial_type": "html-keyboard-response", "trial_index": 202, "time_elapsed": 619460, "internal_node_id": "0.0-8.0-16.0"}}, {"uniqueid": "w82427054:a44159833", "current_trial": 203, "dateTime": 1664464538010, "trialdata": {"rt": 504, "stimulus": "<p id='stroop-text' class='stroop-blue'>BLUE</p>", "response": "b", "stimulus-type": "congruent", "word": "blue", "color": "blue", "correct_response": "b", "trial_id": "stroop-trial-1-congruent-15", "trial_type": "html-keyboard-response", "trial_index": 203, "time_elapsed": 620468, "internal_node_id": "0.0-8.0-17.0"}}, {"uniqueid": "w82427054:a44159833", "current_trial": 204, "dateTime": 1664464539548, "trialdata": {"rt": 1034, "stimulus": "<p id='stroop-text' class='stroop-green'>YELLOW</p>", "response": "g", "stimulus-type": "incongruent", "word": "yellow", "color": "green", "correct_response": "g", "trial_id": "stroop-trial-1-incongruent-17", "trial_type": "html-keyboard-response", "trial_index": 204, "time_elapsed": 622005, "internal_node_id": "0.0-8.0-18.0"}}, {"uniqueid": "w82427054:a44159833", "current_trial": 205, "dateTime": 1664464540828, "trialdata": {"rt": 774, "stimulus": "<p id='stroop-text' class='stroop-red'>GREEN</p>", "response": "r", "stimulus-type": "incongruent", "word": "green", "color": "red", "correct_response": "r", "trial_id": "stroop-trial-1-incongruent-18", "trial_type": "html-keyboard-response", "trial_index": 205, "time_elapsed": 623285, "internal_node_id": "0.0-8.0-19.0"}}, {"uniqueid": "w82427054:a44159833", "current_trial": 206, "dateTime": 1664464542604, "trialdata": {"rt": 1268, "stimulus": "<p id='stroop-text' class='stroop-blue'>FORK</p>", "response": "b", "stimulus-type": "unrelated", "word": "FORK", "color": "blue", "correct_response": "b", "trial_id": "stroop-trial-1-unrelated-19", "trial_type": "html-keyboard-response", "trial_index": 206, "time_elapsed": 625061, "internal_node_id": "0.0-8.0-20.0"}}, {"uniqueid": "w82427054:a44159833", "current_trial": 207, "dateTime": 1664464544139, "trialdata": {"rt": 1029, "stimulus": "<p id='stroop-text' class='stroop-red'>BLUE</p>", "response": "r", "stimulus-type": "incongruent", "word": "blue", "color": "red", "correct_response": "r", "trial_id": "stroop-trial-1-incongruent-14", "trial_type": "html-keyboard-response", "trial_index": 207, "time_elapsed": 626596, "internal_node_id": "0.0-8.0-21.0"}}, {"uniqueid": "w82427054:a44159833", "current_trial": 208, "dateTime": 1664464546938, "trialdata": {"rt": 2295, "stimulus": "<p id='stroop-text' class='stroop-red'>YELLOW</p>", "response": "r", "stimulus-type": "incongruent", "word": "yellow", "color": "red", "correct_response": "r", "trial_id": "stroop-trial-1-incongruent-26", "trial_type": "html-keyboard-response", "trial_index": 208, "time_elapsed": 629396, "internal_node_id": "0.0-8.0-22.0"}}, {"uniqueid": "w82427054:a44159833", "current_trial": 209, "dateTime": 1664464548684, "trialdata": {"rt": 1233, "stimulus": "<p id='stroop-text' class='stroop-green'>GREEN</p>", "response": "g", "stimulus-type": "congruent", "word": "green", "color": "green", "correct_response": "g", "trial_id": "stroop-trial-1-congruent-22", "trial_type": "html-keyboard-response", "trial_index": 209, "time_elapsed": 631141, "internal_node_id": "0.0-8.0-23.0"}}, {"uniqueid": "w82427054:a44159833", "current_trial": 210, "dateTime": 1664464550108, "trialdata": {"rt": 917, "stimulus": "<p id='stroop-text' class='stroop-yellow'>RED</p>", "response": "y", "stimulus-type": "incongruent", "word": "red", "color": "yellow", "correct_response": "y", "trial_id": "stroop-trial-1-incongruent-2", "trial_type": "html-keyboard-response", "trial_index": 210, "time_elapsed": 632565, "internal_node_id": "0.0-8.0-24.0"}}, {"uniqueid": "w82427054:a44159833", "current_trial": 211, "dateTime": 1664464551724, "trialdata": {"rt": 1111, "stimulus": "<p id='stroop-text' class='stroop-green'>BLUE</p>", "response": "g", "stimulus-type": "incongruent", "word": "blue", "color": "green", "correct_response": "g", "trial_id": "stroop-trial-1-incongruent-6", "trial_type": "html-keyboard-response", "trial_index": 211, "time_elapsed": 634181, "internal_node_id": "0.0-8.0-25.0"}}, {"uniqueid": "w82427054:a44159833", "current_trial": 212, "dateTime": 1664464553323, "trialdata": {"rt": 1092, "stimulus": "<p id='stroop-text' class='stroop-green'>GREEN</p>", "response": "g", "stimulus-type": "congruent", "word": "green", "color": "green", "correct_response": "g", "trial_id": "stroop-trial-1-congruent-7", "trial_type": "html-keyboard-response", "trial_index": 212, "time_elapsed": 635781, "internal_node_id": "0.0-8.0-26.0"}}, {"uniqueid": "w82427054:a44159833", "current_trial": 213, "dateTime": 1664464554508, "trialdata": {"rt": 677, "stimulus": "<p id='stroop-text' class='stroop-red'>BOAT</p>", "response": "r", "stimulus-type": "unrelated", "word": "BOAT", "color": "red", "correct_response": "r", "trial_id": "stroop-trial-1-unrelated-26", "trial_type": "html-keyboard-response", "trial_index": 213, "time_elapsed": 636965, "internal_node_id": "0.0-8.0-27.0"}}, {"uniqueid": "w82427054:a44159833", "current_trial": 214, "dateTime": 1664464556171, "trialdata": {"rt": 1158, "stimulus": "<p id='stroop-text' class='stroop-red'>BRIDGE</p>", "response": "r", "stimulus-type": "unrelated", "word": "BRIDGE", "color": "red", "correct_response": "r", "trial_id": "stroop-trial-1-unrelated-2", "trial_type": "html-keyboard-response", "trial_index": 214, "time_elapsed": 638629, "internal_node_id": "0.0-8.0-28.0"}}, {"uniqueid": "w82427054:a44159833", "current_trial": 215, "dateTime": 1664464559626, "trialdata": {"rt": 2950, "stimulus": "<p id='stroop-text' class='stroop-red'>STONE</p>", "response": "r", "stimulus-type": "unrelated", "word": "STONE", "color": "red", "correct_response": "r", "trial_id": "stroop-trial-1-unrelated-24", "trial_type": "html-keyboard-response", "trial_index": 215, "time_elapsed": 642084, "internal_node_id": "0.0-8.0-29.0"}}, {"uniqueid": "w82427054:a44159833", "current_trial": 216, "dateTime": 1664464561787, "trialdata": {"rt": 1656, "stimulus": "<p id='stroop-text' class='stroop-blue'>BLUE</p>", "response": "b", "stimulus-type": "congruent", "word": "blue", "color": "blue", "correct_response": "b", "trial_id": "stroop-trial-1-congruent-5", "trial_type": "html-keyboard-response", "trial_index": 216, "time_elapsed": 644245, "internal_node_id": "0.0-8.0-30.0"}}, {"uniqueid": "w82427054:a44159833", "current_trial": 217, "dateTime": 1664464563227, "trialdata": {"rt": 936, "stimulus": "<p id='stroop-text' class='stroop-yellow'>GREEN</p>", "response": "y", "stimulus-type": "incongruent", "word": "green", "color": "yellow", "correct_response": "y", "trial_id": "stroop-trial-1-incongruent-3", "trial_type": "html-keyboard-response", "trial_index": 217, "time_elapsed": 645685, "internal_node_id": "0.0-8.0-31.0"}}, {"uniqueid": "w82427054:a44159833", "current_trial": 218, "dateTime": 1664464565099, "trialdata": {"rt": 1363, "stimulus": "<p id='stroop-text' class='stroop-red'>RED</p>", "response": "r", "stimulus-type": "congruent", "word": "red", "color": "red", "correct_response": "r", "trial_id": "stroop-trial-1-congruent-26", "trial_type": "html-keyboard-response", "trial_index": 218, "time_elapsed": 647556, "internal_node_id": "0.0-8.0-32.0"}}, {"uniqueid": "w82427054:a44159833", "current_trial": 219, "dateTime": 1664464566747, "trialdata": {"rt": 1142, "stimulus": "<p id='stroop-text' class='stroop-blue'>YELLOW</p>", "response": "b", "stimulus-type": "incongruent", "word": "yellow", "color": "blue", "correct_response": "b", "trial_id": "stroop-trial-1-incongruent-8", "trial_type": "html-keyboard-response", "trial_index": 219, "time_elapsed": 649205, "internal_node_id": "0.0-8.0-33.0"}}, {"uniqueid": "w82427054:a44159833", "current_trial": 220, "dateTime": 1664464568187, "trialdata": {"rt": 934, "stimulus": "<p id='stroop-text' class='stroop-red'>GREEN</p>", "response": "r", "stimulus-type": "incongruent", "word": "green", "color": "red", "correct_response": "r", "trial_id": "stroop-trial-1-incongruent-21", "trial_type": "html-keyboard-response", "trial_index": 220, "time_elapsed": 650645, "internal_node_id": "0.0-8.0-34.0"}}, {"uniqueid": "w82427054:a44159833", "current_trial": 221, "dateTime": 1664464569676, "trialdata": {"rt": 981, "stimulus": "<p id='stroop-text' class='stroop-blue'>BLUE</p>", "response": "b", "stimulus-type": "congruent", "word": "blue", "color": "blue", "correct_response": "b", "trial_id": "stroop-trial-1-congruent-3", "trial_type": "html-keyboard-response", "trial_index": 221, "time_elapsed": 652134, "internal_node_id": "0.0-8.0-35.0"}}, {"uniqueid": "w82427054:a44159833", "current_trial": 222, "dateTime": 1664464571900, "trialdata": {"rt": 1717, "stimulus": "<p id='stroop-text' class='stroop-yellow'>BLUE</p>", "response": "y", "stimulus-type": "incongruent", "word"