{"condition": 0, "counterbalance": 0, "assignmentId": "a60167208", "workerId": "w77270904", "hitId": "h50384081", "currenttrial": 958, "bonus": 0, "data": [{"uniqueid": "w77270904:a60167208", "current_trial": 0, "dateTime": 1664554846347, "trialdata": {"success": true, "trial_type": "fullscreen", "trial_index": 0, "time_elapsed": 8197, "internal_node_id": "0.0-0.0"}}, {"uniqueid": "w77270904:a60167208", "current_trial": 1, "dateTime": 1664554899618, "trialdata": {"view_history": [{"page_index": 0, "viewing_time": 53263}], "rt": 53264, "trial_id": "exp_instructions_distractor", "trial_type": "instructions", "trial_index": 1, "time_elapsed": 61469, "internal_node_id": "0.0-1.0"}}, {"uniqueid": "w77270904:a60167208", "current_trial": 2, "dateTime": 1664554943429, "trialdata": {"view_history": [{"page_index": 0, "viewing_time": 43809}], "rt": 43809, "trial_id": "color_game_instructions", "trial_type": "instructions", "trial_index": 2, "time_elapsed": 105280, "internal_node_id": "0.0-2.0"}}, {"uniqueid": "w77270904:a60167208", "current_trial": 3, "dateTime": 1664554952649, "trialdata": {"rt": 9218, "stimulus": "<h1> Get ready to start the game! </h1>\n\nThank you for reading the instructions. Get ready start with the first of 5 block(s) of this game.\n<br><br>\nIn this first block, you will complete 90 rounds of this game before moving on.\n<br><br>\nRemember, the better you perform, the bigger your bonus will be!\n<br><br>\n<div style='text-align: center;'>Press <code>space</code> to begin.</div>", "response": " ", "trial_id": "stroop_1_ready_1", "trial_type": "html-keyboard-response", "trial_index": 3, "time_elapsed": 114500, "internal_node_id": "0.0-3.0"}}, {"uniqueid": "w77270904:a60167208", "current_trial": 4, "dateTime": 1664554954505, "trialdata": {"rt": 1850, "stimulus": "<p id='stroop-text' class='stroop-blue'>BLUE</p>", "response": "b", "stimulus-type": "congruent", "word": "blue", "color": "blue", "correct_response": "b", "trial_id": "stroop-trial-1-congruent-25", "trial_type": "html-keyboard-response", "trial_index": 4, "time_elapsed": 116355, "internal_node_id": "0.0-4.0-0.0"}}, {"uniqueid": "w77270904:a60167208", "current_trial": 5, "dateTime": 1664554955712, "trialdata": {"rt": 706, "stimulus": "<p id='stroop-text' class='stroop-yellow'>YELLOW</p>", "response": "y", "stimulus-type": "congruent", "word": "yellow", "color": "yellow", "correct_response": "y", "trial_id": "stroop-trial-1-congruent-30", "trial_type": "html-keyboard-response", "trial_index": 5, "time_elapsed": 117563, "internal_node_id": "0.0-4.0-1.0"}}, {"uniqueid": "w77270904:a60167208", "current_trial": 6, "dateTime": 1664554957297, "trialdata": {"rt": 1078, "stimulus": "<p id='stroop-text' class='stroop-yellow'>FORK</p>", "response": "y", "stimulus-type": "unrelated", "word": "FORK", "color": "yellow", "correct_response": "y", "trial_id": "stroop-trial-1-unrelated-1", "trial_type": "html-keyboard-response", "trial_index": 6, "time_elapsed": 119147, "internal_node_id": "0.0-4.0-2.0"}}, {"uniqueid": "w77270904:a60167208", "current_trial": 7, "dateTime": 1664554959241, "trialdata": {"rt": 1442, "stimulus": "<p id='stroop-text' class='stroop-blue'>BLUE</p>", "response": "b", "stimulus-type": "congruent", "word": "blue", "color": "blue", "correct_response": "b", "trial_id": "stroop-trial-1-congruent-8", "trial_type": "html-keyboard-response", "trial_index": 7, "time_elapsed": 121091, "internal_node_id": "0.0-4.0-3.0"}}, {"uniqueid": "w77270904:a60167208", "current_trial": 8, "dateTime": 1664554960419, "trialdata": {"rt": 675, "stimulus": "<p id='stroop-text' class='stroop-red'>RED</p>", "response": "r", "stimulus-type": "congruent", "word": "red", "color": "red", "correct_response": "r", "trial_id": "stroop-trial-1-congruent-21", "trial_type": "html-keyboard-response", "trial_index": 8, "time_elapsed": 122270, "internal_node_id": "0.0-4.0-4.0"}}, {"uniqueid": "w77270904:a60167208", "current_trial": 9, "dateTime": 1664554962113, "trialdata": {"rt": 1191, "stimulus": "<p id='stroop-text' class='stroop-blue'>STONE</p>", "response": "b", "stimulus-type": "unrelated", "word": "STONE", "color": "blue", "correct_response": "b", "trial_id": "stroop-trial-1-unrelated-5", "trial_type": "html-keyboard-response", "trial_index": 9, "time_elapsed": 123964, "internal_node_id": "0.0-4.0-5.0"}}, {"uniqueid": "w77270904:a60167208", "current_trial": 10, "dateTime": 1664554963504, "trialdata": {"rt": 889, "stimulus": "<p id='stroop-text' class='stroop-blue'>RED</p>", "response": "r", "stimulus-type": "incongruent", "word": "red", "color": "blue", "correct_response": "b", "trial_id": "stroop-trial-1-incongruent-22", "trial_type": "html-keyboard-response", "trial_index": 10, "time_elapsed": 125355, "internal_node_id": "0.0-4.0-6.0"}}, {"uniqueid": "w77270904:a60167208", "current_trial": 11, "dateTime": 1664554965065, "trialdata": {"rt": 1059, "stimulus": "<p id='stroop-text' class='stroop-red'>RED</p>", "response": "r", "stimulus-type": "congruent", "word": "red", "color": "red", "correct_response": "r", "trial_id": "stroop-trial-1-congruent-10", "trial_type": "html-keyboard-response", "trial_index": 11, "time_elapsed": 126915, "internal_node_id": "0.0-4.0-7.0"}}, {"uniqueid": "w77270904:a60167208", "current_trial": 12, "dateTime": 1664554966473, "trialdata": {"rt": 907, "stimulus": "<p id='stroop-text' class='stroop-green'>BRAIN</p>", "response": "g", "stimulus-type": "unrelated", "word": "BRAIN", "color": "green", "correct_response": "g", "trial_id": "stroop-trial-1-unrelated-8", "trial_type": "html-keyboard-response", "trial_index": 12, "time_elapsed": 128324, "internal_node_id": "0.0-4.0-8.0"}}, {"uniqueid": "w77270904:a60167208", "current_trial": 13, "dateTime": 1664554967704, "trialdata": {"rt": 728, "stimulus": "<p id='stroop-text' class='stroop-green'>BRAIN</p>", "response": "g", "stimulus-type": "unrelated", "word": "BRAIN", "color": "green", "correct_response": "g", "trial_id": "stroop-trial-1-unrelated-6", "trial_type": "html-keyboard-response", "trial_index": 13, "time_elapsed": 129555, "internal_node_id": "0.0-4.0-9.0"}}, {"uniqueid": "w77270904:a60167208", "current_trial": 14, "dateTime": 1664554969577, "trialdata": {"rt": 1371, "stimulus": "<p id='stroop-text' class='stroop-red'>GREEN</p>", "response": "g", "stimulus-type": "incongruent", "word": "green", "color": "red", "correct_response": "r", "trial_id": "stroop-trial-1-incongruent-29", "trial_type": "html-keyboard-response", "trial_index": 14, "time_elapsed": 131427, "internal_node_id": "0.0-4.0-10.0"}}, {"uniqueid": "w77270904:a60167208", "current_trial": 15, "dateTime": 1664554971201, "trialdata": {"rt": 1122, "stimulus": "<p id='stroop-text' class='stroop-blue'>WINDOW</p>", "response": "b", "stimulus-type": "unrelated", "word": "WINDOW", "color": "blue", "correct_response": "b", "trial_id": "stroop-trial-1-unrelated-11", "trial_type": "html-keyboard-response", "trial_index": 15, "time_elapsed": 133052, "internal_node_id": "0.0-4.0-11.0"}}, {"uniqueid": "w77270904:a60167208", "current_trial": 16, "dateTime": 1664554972346, "trialdata": {"rt": 640, "stimulus": "<p id='stroop-text' class='stroop-yellow'>YELLOW</p>", "response": "y", "stimulus-type": "congruent", "word": "yellow", "color": "yellow", "correct_response": "y", "trial_id": "stroop-trial-1-congruent-14", "trial_type": "html-keyboard-response", "trial_index": 16, "time_elapsed": 134195, "internal_node_id": "0.0-4.0-12.0"}}, {"uniqueid": "w77270904:a60167208", "current_trial": 17, "dateTime": 1664554973881, "trialdata": {"rt": 1033, "stimulus": "<p id='stroop-text' class='stroop-yellow'>GREEN</p>", "response": "g", "stimulus-type": "incongruent", "word": "green", "color": "yellow", "correct_response": "y", "trial_id": "stroop-trial-1-incongruent-28", "trial_type": "html-keyboard-response", "trial_index": 17, "time_elapsed": 135732, "internal_node_id": "0.0-4.0-13.0"}}, {"uniqueid": "w77270904:a60167208", "current_trial": 18, "dateTime": 1664554975842, "trialdata": {"rt": 1457, "stimulus": "<p id='stroop-text' class='stroop-yellow'>YELLOW</p>", "response": "y", "stimulus-type": "congruent", "word": "yellow", "color": "yellow", "correct_response": "y", "trial_id": "stroop-trial-1-congruent-22", "trial_type": "html-keyboard-response", "trial_index": 18, "time_elapsed": 137692, "internal_node_id": "0.0-4.0-14.0"}}, {"uniqueid": "w77270904:a60167208", "current_trial": 19, "dateTime": 1664554977377, "trialdata": {"rt": 1033, "stimulus": "<p id='stroop-text' class='stroop-yellow'>YELLOW</p>", "response": "y", "stimulus-type": "congruent", "word": "yellow", "color": "yellow", "correct_response": "y", "trial_id": "stroop-trial-1-congruent-6", "trial_type": "html-keyboard-response", "trial_index": 19, "time_elapsed": 139228, "internal_node_id": "0.0-4.0-15.0"}}, {"uniqueid": "w77270904:a60167208", "current_trial": 20, "dateTime": 1664554978633, "trialdata": {"rt": 754, "stimulus": "<p id='stroop-text' class='stroop-green'>GREEN</p>", "response": "g", "stimulus-type": "congruent", "word": "green", "color": "green", "correct_response": "g", "trial_id": "stroop-trial-1-congruent-15", "trial_type": "html-keyboard-response", "trial_index": 20, "time_elapsed": 140484, "internal_node_id": "0.0-4.0-16.0"}}, {"uniqueid": "w77270904:a60167208", "current_trial": 21, "dateTime": 1664554980865, "trialdata": {"rt": 1730, "stimulus": "<p id='stroop-text' class='stroop-red'>YELLOW</p>", "response": "r", "stimulus-type": "incongruent", "word": "yellow", "color": "red", "correct_response": "r", "trial_id": "stroop-trial-1-incongruent-12", "trial_type": "html-keyboard-response", "trial_index": 21, "time_elapsed": 142716, "internal_node_id": "0.0-4.0-17.0"}}, {"uniqueid": "w77270904:a60167208", "current_trial": 22, "dateTime": 1664554982337, "trialdata": {"rt": 968, "stimulus": "<p id='stroop-text' class='stroop-yellow'>YELLOW</p>", "response": "y", "stimulus-type": "congruent", "word": "yellow", "color": "yellow", "correct_response": "y", "trial_id": "stroop-trial-1-congruent-4", "trial_type": "html-keyboard-response", "trial_index": 22, "time_elapsed": 144188, "internal_node_id": "0.0-4.0-18.0"}}, {"uniqueid": "w77270904:a60167208", "current_trial": 23, "dateTime": 1664554984217, "trialdata": {"rt": 1379, "stimulus": "<p id='stroop-text' class='stroop-blue'>RED</p>", "response": "b", "stimulus-type": "incongruent", "word": "red", "color": "blue", "correct_response": "b", "trial_id": "stroop-trial-1-incongruent-6", "trial_type": "html-keyboard-response", "trial_index": 23, "time_elapsed": 146068, "internal_node_id": "0.0-4.0-19.0"}}, {"uniqueid": "w77270904:a60167208", "current_trial": 24, "dateTime": 1664554985850, "trialdata": {"rt": 1128, "stimulus": "<p id='stroop-text' class='stroop-green'>FORK</p>", "response": "g", "stimulus-type": "unrelated", "word": "FORK", "color": "green", "correct_response": "g", "trial_id": "stroop-trial-1-unrelated-20", "trial_type": "html-keyboard-response", "trial_index": 24, "time_elapsed": 147700, "internal_node_id": "0.0-4.0-20.0"}}, {"uniqueid": "w77270904:a60167208", "current_trial": 25, "dateTime": 1664554987498, "trialdata": {"rt": 1145, "stimulus": "<p id='stroop-text' class='stroop-blue'>BLUE</p>", "response": "b", "stimulus-type": "congruent", "word": "blue", "color": "blue", "correct_response": "b", "trial_id": "stroop-trial-1-congruent-13", "trial_type": "html-keyboard-response", "trial_index": 25, "time_elapsed": 149349, "internal_node_id": "0.0-4.0-21.0"}}, {"uniqueid": "w77270904:a60167208", "current_trial": 26, "dateTime": 1664554988818, "trialdata": {"rt": 818, "stimulus": "<p id='stroop-text' class='stroop-green'>GREEN</p>", "response": "g", "stimulus-type": "congruent", "word": "green", "color": "green", "correct_response": "g", "trial_id": "stroop-trial-1-congruent-23", "trial_type": "html-keyboard-response", "trial_index": 26, "time_elapsed": 150669, "internal_node_id": "0.0-4.0-22.0"}}, {"uniqueid": "w77270904:a60167208", "current_trial": 27, "dateTime": 1664554990522, "trialdata": {"rt": 1202, "stimulus": "<p id='stroop-text' class='stroop-yellow'>RED</p>", "response": "y", "stimulus-type": "incongruent", "word": "red", "color": "yellow", "correct_response": "y", "trial_id": "stroop-trial-1-incongruent-23", "trial_type": "html-keyboard-response", "trial_index": 27, "time_elapsed": 152373, "internal_node_id": "0.0-4.0-23.0"}}, {"uniqueid": "w77270904:a60167208", "current_trial": 28, "dateTime": 1664554991714, "trialdata": {"rt": 689, "stimulus": "<p id='stroop-text' class='stroop-yellow'>RED</p>", "response": "y", "stimulus-type": "incongruent", "word": "red", "color": "yellow", "correct_response": "y", "trial_id": "stroop-trial-1-incongruent-16", "trial_type": "html-keyboard-response", "trial_index": 28, "time_elapsed": 153564, "internal_node_id": "0.0-4.0-24.0"}}, {"uniqueid": "w77270904:a60167208", "current_trial": 29, "dateTime": 1664554992938, "trialdata": {"rt": 722, "stimulus": "<p id='stroop-text' class='stroop-green'>GREEN</p>", "response": "g", "stimulus-type": "congruent", "word": "green", "color": "green", "correct_response": "g", "trial_id": "stroop-trial-1-congruent-27", "trial_type": "html-keyboard-response", "trial_index": 29, "time_elapsed": 154788, "internal_node_id": "0.0-4.0-25.0"}}, {"uniqueid": "w77270904:a60167208", "current_trial": 30, "dateTime": 1664554994354, "trialdata": {"rt": 914, "stimulus": "<p id='stroop-text' class='stroop-blue'>RED</p>", "response": "b", "stimulus-type": "incongruent", "word": "red", "color": "blue", "correct_response": "b", "trial_id": "stroop-trial-1-incongruent-14", "trial_type": "html-keyboard-response", "trial_index": 30, "time_elapsed": 156205, "internal_node_id": "0.0-4.0-26.0"}}, {"uniqueid": "w77270904:a60167208", "current_trial": 31, "dateTime": 1664554995538, "trialdata": {"rt": 683, "stimulus": "<p id='stroop-text' class='stroop-yellow'>BLUE</p>", "response": "y", "stimulus-type": "incongruent", "word": "blue", "color": "yellow", "correct_response": "y", "trial_id": "stroop-trial-1-incongruent-18", "trial_type": "html-keyboard-response", "trial_index": 31, "time_elapsed": 157389, "internal_node_id": "0.0-4.0-27.0"}}, {"uniqueid": "w77270904:a60167208", "current_trial": 32, "dateTime": 1664554996994, "trialdata": {"rt": 954, "stimulus": "<p id='stroop-text' class='stroop-green'>YELLOW</p>", "response": "g", "stimulus-type": "incongruent", "word": "yellow", "color": "green", "correct_response": "g", "trial_id": "stroop-trial-1-incongruent-11", "trial_type": "html-keyboard-response", "trial_index": 32, "time_elapsed": 158845, "internal_node_id": "0.0-4.0-28.0"}}, {"uniqueid": "w77270904:a60167208", "current_trial": 33, "dateTime": 1664554998091, "trialdata": {"rt": 594, "stimulus": "<p id='stroop-text' class='stroop-yellow'>YELLOW</p>", "response": "y", "stimulus-type": "congruent", "word": "yellow", "color": "yellow", "correct_response": "y", "trial_id": "stroop-trial-1-congruent-7", "trial_type": "html-keyboard-response", "trial_index": 33, "time_elapsed": 159941, "internal_node_id": "0.0-4.0-29.0"}}, {"uniqueid": "w77270904:a60167208", "current_trial": 34, "dateTime": 1664554999266, "trialdata": {"rt": 672, "stimulus": "<p id='stroop-text' class='stroop-yellow'>BOAT</p>", "response": "y", "stimulus-type": "unrelated", "word": "BOAT", "color": "yellow", "correct_response": "y", "trial_id": "stroop-trial-1-unrelated-24", "trial_type": "html-keyboard-response", "trial_index": 34, "time_elapsed": 161117, "internal_node_id": "0.0-4.0-30.0"}}, {"uniqueid": "w77270904:a60167208", "current_trial": 35, "dateTime": 1664555000386, "trialdata": {"rt": 617, "stimulus": "<p id='stroop-text' class='stroop-blue'>BOAT</p>", "response": "b", "stimulus-type": "unrelated", "word": "BOAT", "color": "blue", "correct_response": "b", "trial_id": "stroop-trial-1-unrelated-21", "trial_type": "html-keyboard-response", "trial_index": 35, "time_elapsed": 162237, "internal_node_id": "0.0-4.0-31.0"}}, {"uniqueid": "w77270904:a60167208", "current_trial": 36, "dateTime": 1664555001490, "trialdata": {"rt": 601, "stimulus": "<p id='stroop-text' class='stroop-yellow'>WINDOW</p>", "response": "y", "stimulus-type": "unrelated", "word": "WINDOW", "color": "yellow", "correct_response": "y", "trial_id": "stroop-trial-1-unrelated-25", "trial_type": "html-keyboard-response", "trial_index": 36, "time_elapsed": 163341, "internal_node_id": "0.0-4.0-32.0"}}, {"uniqueid": "w77270904:a60167208", "current_trial": 37, "dateTime": 1664555002539, "trialdata": {"rt": 547, "stimulus": "<p id='stroop-text' class='stroop-red'>MONKEY</p>", "response": "r", "stimulus-type": "unrelated", "word": "MONKEY", "color": "red", "correct_response": "r", "trial_id": "stroop-trial-1-unrelated-26", "trial_type": "html-keyboard-response", "trial_index": 37, "time_elapsed": 164390, "internal_node_id": "0.0-4.0-33.0"}}, {"uniqueid": "w77270904:a60167208", "current_trial": 38, "dateTime": 1664555003691, "trialdata": {"rt": 649, "stimulus": "<p id='stroop-text' class='stroop-green'>BLUE</p>", "response": "g", "stimulus-type": "incongruent", "word": "blue", "color": "green", "correct_response": "g", "trial_id": "stroop-trial-1-incongruent-15", "trial_type": "html-keyboard-response", "trial_index": 38, "time_elapsed": 165541, "internal_node_id": "0.0-4.0-34.0"}}, {"uniqueid": "w77270904:a60167208", "current_trial": 39, "dateTime": 1664555004794, "trialdata": {"rt": 601, "stimulus": "<p id='stroop-text' class='stroop-green'>YELLOW</p>", "response": "g", "stimulus-type": "incongruent", "word": "yellow", "color": "green", "correct_response": "g", "trial_id": "stroop-trial-1-incongruent-20", "trial_type": "html-keyboard-response", "trial_index": 39, "time_elapsed": 166645, "internal_node_id": "0.0-4.0-35.0"}}, {"uniqueid": "w77270904:a60167208", "current_trial": 40, "dateTime": 1664555005858, "trialdata": {"rt": 561, "stimulus": "<p id='stroop-text' class='stroop-red'>CHAIR</p>", "response": "r", "stimulus-type": "unrelated", "word": "CHAIR", "color": "red", "correct_response": "r", "trial_id": "stroop-trial-1-unrelated-17", "trial_type": "html-keyboard-response", "trial_index": 40, "time_elapsed": 167709, "internal_node_id": "0.0-4.0-36.0"}}, {"uniqueid": "w77270904:a60167208", "current_trial": 41, "dateTime": 1664555006915, "trialdata": {"rt": 553, "stimulus": "<p id='stroop-text' class='stroop-yellow'>SHIP</p>", "response": "y", "stimulus-type": "unrelated", "word": "SHIP", "color": "yellow", "correct_response": "y", "trial_id": "stroop-trial-1-unrelated-14", "trial_type": "html-keyboard-response", "trial_index": 41, "time_elapsed": 168765, "internal_node_id": "0.0-4.0-37.0"}}, {"uniqueid": "w77270904:a60167208", "current_trial": 42, "dateTime": 1664555008403, "trialdata": {"rt": 985, "stimulus": "<p id='stroop-text' class='stroop-red'>RED</p>", "response": "r", "stimulus-type": "congruent", "word": "red", "color": "red", "correct_response": "r", "trial_id": "stroop-trial-1-congruent-1", "trial_type": "html-keyboard-response", "trial_index": 42, "time_elapsed": 170254, "internal_node_id": "0.0-4.0-38.0"}}, {"uniqueid": "w77270904:a60167208", "current_trial": 43, "dateTime": 1664555009763, "trialdata": {"rt": 857, "stimulus": "<p id='stroop-text' class='stroop-red'>BLUE</p>", "response": "r", "stimulus-type": "incongruent", "word": "blue", "color": "red", "correct_response": "r", "trial_id": "stroop-trial-1-incongruent-10", "trial_type": "html-keyboard-response", "trial_index": 43, "time_elapsed": 171614, "internal_node_id": "0.0-4.0-39.0"}}, {"uniqueid": "w77270904:a60167208", "current_trial": 44, "dateTime": 1664555010667, "trialdata": {"rt": 401, "stimulus": "<p id='stroop-text' class='stroop-red'>YELLOW</p>", "response": "r", "stimulus-type": "incongruent", "word": "yellow", "color": "red", "correct_response": "r", "trial_id": "stroop-trial-1-incongruent-7", "trial_type": "html-keyboard-response", "trial_index": 44, "time_elapsed": 172517, "internal_node_id": "0.0-4.0-40.0"}}, {"uniqueid": "w77270904:a60167208", "current_trial": 45, "dateTime": 1664555011811, "trialdata": {"rt": 642, "stimulus": "<p id='stroop-text' class='stroop-yellow'>GREEN</p>", "response": "y", "stimulus-type": "incongruent", "word": "green", "color": "yellow", "correct_response": "y", "trial_id": "stroop-trial-1-incongruent-5", "trial_type": "html-keyboard-response", "trial_index": 45, "time_elapsed": 173661, "internal_node_id": "0.0-4.0-41.0"}}, {"uniqueid": "w77270904:a60167208", "current_trial": 46, "dateTime": 1664555013035, "trialdata": {"rt": 707, "stimulus": "<p id='stroop-text' class='stroop-green'>GREEN</p>", "response": "g", "stimulus-type": "congruent", "word": "green", "color": "green", "correct_response": "g", "trial_id": "stroop-trial-1-congruent-9", "trial_type": "html-keyboard-response", "trial_index": 46, "time_elapsed": 174886, "internal_node_id": "0.0-4.0-42.0"}}, {"uniqueid": "w77270904:a60167208", "current_trial": 47, "dateTime": 1664555014188, "trialdata": {"rt": 650, "stimulus": "<p id='stroop-text' class='stroop-red'>GREEN</p>", "response": "r", "stimulus-type": "incongruent", "word": "green", "color": "red", "correct_response": "r", "trial_id": "stroop-trial-1-incongruent-30", "trial_type": "html-keyboard-response", "trial_index": 47, "time_elapsed": 176038, "internal_node_id": "0.0-4.0-43.0"}}, {"uniqueid": "w77270904:a60167208", "current_trial": 48, "dateTime": 1664555015251, "trialdata": {"rt": 562, "stimulus": "<p id='stroop-text' class='stroop-yellow'>YELLOW</p>", "response": "y", "stimulus-type": "congruent", "word": "yellow", "color": "yellow", "correct_response": "y", "trial_id": "stroop-trial-1-congruent-18", "trial_type": "html-keyboard-response", "trial_index": 48, "time_elapsed": 177102, "internal_node_id": "0.0-4.0-44.0"}}, {"uniqueid": "w77270904:a60167208", "current_trial": 49, "dateTime": 1664555016363, "trialdata": {"rt": 599, "stimulus": "<p id='stroop-text' class='stroop-green'>GREEN</p>", "response": "g", "stimulus-type": "congruent", "word": "green", "color": "green", "correct_response": "g", "trial_id": "stroop-trial-1-congruent-16", "trial_type": "html-keyboard-response", "trial_index": 49, "time_elapsed": 178213, "internal_node_id": "0.0-4.0-45.0"}}, {"uniqueid": "w77270904:a60167208", "current_trial": 50, "dateTime": 1664555017403, "trialdata": {"rt": 537, "stimulus": "<p id='stroop-text' class='stroop-blue'>BLUE</p>", "response": "b", "stimulus-type": "congruent", "word": "blue", "color": "blue", "correct_response": "b", "trial_id": "stroop-trial-1-congruent-19", "trial_type": "html-keyboard-response", "trial_index": 50, "time_elapsed": 179254, "internal_node_id": "0.0-4.0-46.0"}}, {"uniqueid": "w77270904:a60167208", "current_trial": 51, "dateTime": 1664555018579, "trialdata": {"rt": 673, "stimulus": "<p id='stroop-text' class='stroop-blue'>YELLOW</p>", "response": "b", "stimulus-type": "incongruent", "word": "yellow", "color": "blue", "correct_response": "b", "trial_id": "stroop-trial-1-incongruent-3", "trial_type": "html-keyboard-response", "trial_index": 51, "time_elapsed": 180430, "internal_node_id": "0.0-4.0-47.0"}}, {"uniqueid": "w77270904:a60167208", "current_trial": 52, "dateTime": 1664555019795, "trialdata": {"rt": 714, "stimulus": "<p id='stroop-text' class='stroop-green'>GREEN</p>", "response": "g", "stimulus-type": "congruent", "word": "green", "color": "green", "correct_response": "g", "trial_id": "stroop-trial-1-congruent-11", "trial_type": "html-keyboard-response", "trial_index": 52, "time_elapsed": 181646, "internal_node_id": "0.0-4.0-48.0"}}, {"uniqueid": "w77270904:a60167208", "current_trial": 53, "dateTime": 1664555020803, "trialdata": {"rt": 505, "stimulus": "<p id='stroop-text' class='stroop-green'>DOG</p>", "response": "g", "stimulus-type": "unrelated", "word": "DOG", "color": "green", "correct_response": "g", "trial_id": "stroop-trial-1-unrelated-19", "trial_type": "html-keyboard-response", "trial_index": 53, "time_elapsed": 182654, "internal_node_id": "0.0-4.0-49.0"}}, {"uniqueid": "w77270904:a60167208", "current_trial": 54, "dateTime": 1664555021796, "trialdata": {"rt": 489, "stimulus": "<p id='stroop-text' class='stroop-green'>GREEN</p>", "response": "g", "stimulus-type": "congruent", "word": "green", "color": "green", "correct_response": "g", "trial_id": "stroop-trial-1-congruent-17", "trial_type": "html-keyboard-response", "trial_index": 54, "time_elapsed": 183646, "internal_node_id": "0.0-4.0-50.0"}}, {"uniqueid": "w77270904:a60167208", "current_trial": 55, "dateTime": 1664555022844, "trialdata": {"rt": 545, "stimulus": "<p id='stroop-text' class='stroop-green'>BLUE</p>", "response": "g", "stimulus-type": "incongruent", "word": "blue", "color": "green", "correct_response": "g", "trial_id": "stroop-trial-1-incongruent-19", "trial_type": "html-keyboard-response", "trial_index": 55, "time_elapsed": 184694, "internal_node_id": "0.0-4.0-51.0"}}, {"uniqueid": "w77270904:a60167208", "current_trial": 56, "dateTime": 1664555023860, "trialdata": {"rt": 514, "stimulus": "<p id='stroop-text' class='stroop-yellow'>FORK</p>", "response": "y", "stimulus-type": "unrelated", "word": "FORK", "color": "yellow", "correct_response": "y", "trial_id": "stroop-trial-1-unrelated-27", "trial_type": "html-keyboard-response", "trial_index": 56, "time_elapsed": 185710, "internal_node_id": "0.0-4.0-52.0"}}, {"uniqueid": "w77270904:a60167208", "current_trial": 57, "dateTime": 1664555025060, "trialdata": {"rt": 698, "stimulus": "<p id='stroop-text' class='stroop-blue'>RED</p>", "response": "r", "stimulus-type": "incongruent", "word": "red", "color": "blue", "correct_response": "b", "trial_id": "stroop-trial-1-incongruent-4", "trial_type": "html-keyboard-response", "trial_index": 57, "time_elapsed": 186910, "internal_node_id": "0.0-4.0-53.0"}}, {"uniqueid": "w77270904:a60167208", "current_trial": 58, "dateTime": 1664555026259, "trialdata": {"rt": 695, "stimulus": "<p id='stroop-text' class='stroop-blue'>BLUE</p>", "response": "b", "stimulus-type": "congruent", "word": "blue", "color": "blue", "correct_response": "b", "trial_id": "stroop-trial-1-congruent-20", "trial_type": "html-keyboard-response", "trial_index": 58, "time_elapsed": 188110, "internal_node_id": "0.0-4.0-54.0"}}, {"uniqueid": "w77270904:a60167208", "current_trial": 59, "dateTime": 1664555027300, "trialdata": {"rt": 538, "stimulus": "<p id='stroop-text' class='stroop-yellow'>SHIP</p>", "response": "y", "stimulus-type": "unrelated", "word": "SHIP", "color": "yellow", "correct_response": "y", "trial_id": "stroop-trial-1-unrelated-9", "trial_type": "html-keyboard-response", "trial_index": 59, "time_elapsed": 189150, "internal_node_id": "0.0-4.0-55.0"}}, {"uniqueid": "w77270904:a60167208", "current_trial": 60, "dateTime": 1664555028868, "trialdata": {"rt": 1064, "stimulus": "<p id='stroop-text' class='stroop-red'>BOTTLE</p>", "response": "r", "stimulus-type": "unrelated", "word": "BOTTLE", "color": "red", "correct_response": "r", "trial_id": "stroop-trial-1-unrelated-4", "trial_type": "html-keyboard-response", "trial_index": 60, "time_elapsed": 190719, "internal_node_id": "0.0-4.0-56.0"}}, {"uniqueid": "w77270904:a60167208", "current_trial": 61, "dateTime": 1664555029932, "trialdata": {"rt": 549, "stimulus": "<p id='stroop-text' class='stroop-red'>FORK</p>", "response": "r", "stimulus-type": "unrelated", "word": "FORK", "color": "red", "correct_response": "r", "trial_id": "stroop-trial-1-unrelated-10", "trial_type": "html-keyboard-response", "trial_index": 61, "time_elapsed": 191782, "internal_node_id": "0.0-4.0-57.0"}}, {"uniqueid": "w77270904:a60167208", "current_trial": 62, "dateTime": 1664555030932, "trialdata": {"rt": 484, "stimulus": "<p id='stroop-text' class='stroop-red'>BLUE</p>", "response": "r", "stimulus-type": "incongruent", "word": "blue", "color": "red", "correct_response": "r", "trial_id": "stroop-trial-1-incongruent-17", "trial_type": "html-keyboard-response", "trial_index": 62, "time_elapsed": 192782, "internal_node_id": "0.0-4.0-58.0"}}, {"uniqueid": "w77270904:a60167208", "current_trial": 63, "dateTime": 1664555032292, "trialdata": {"rt": 858, "stimulus": "<p id='stroop-text' class='stroop-blue'>BLUE</p>", "response": "b", "stimulus-type": "congruent", "word": "blue", "color": "blue", "correct_response": "b", "trial_id": "stroop-trial-1-congruent-12", "trial_type": "html-keyboard-response", "trial_index": 63, "time_elapsed": 194143, "internal_node_id": "0.0-4.0-59.0"}}, {"uniqueid": "w77270904:a60167208", "current_trial": 64, "dateTime": 1664555033500, "trialdata": {"rt": 705, "stimulus": "<p id='stroop-text' class='stroop-red'>MONKEY</p>", "response": "r", "stimulus-type": "unrelated", "word": "MONKEY", "color": "red", "correct_response": "r", "trial_id": "stroop-trial-1-unrelated-29", "trial_type": "html-keyboard-response", "trial_index": 64, "time_elapsed": 195351, "internal_node_id": "0.0-4.0-60.0"}}, {"uniqueid": "w77270904:a60167208", "current_trial": 65, "dateTime": 1664555034628, "trialdata": {"rt": 611, "stimulus": "<p id='stroop-text' class='stroop-yellow'>BOAT</p>", "response": "y", "stimulus-type": "unrelated", "word": "BOAT", "color": "yellow", "correct_response": "y", "trial_id": "stroop-trial-1-unrelated-23", "trial_type": "html-keyboard-response", "trial_index": 65, "time_elapsed": 196479, "internal_node_id": "0.0-4.0-61.0"}}, {"uniqueid": "w77270904:a60167208", "current_trial": 66, "dateTime": 1664555035964, "trialdata": {"rt": 834, "stimulus": "<p id='stroop-text' class='stroop-yellow'>YELLOW</p>", "response": "y", "stimulus-type": "congruent", "word": "yellow", "color": "yellow", "correct_response": "y", "trial_id": "stroop-trial-1-congruent-2", "trial_type": "html-keyboard-response", "trial_index": 66, "time_elapsed": 197815, "internal_node_id": "0.0-4.0-62.0"}}, {"uniqueid": "w77270904:a60167208", "current_trial": 67, "dateTime": 1664555037172, "trialdata": {"rt": 706, "stimulus": "<p id='stroop-text' class='stroop-yellow'>BRAIN</p>", "response": "y", "stimulus-type": "unrelated", "word": "BRAIN", "color": "yellow", "correct_response": "y", "trial_id": "stroop-trial-1-unrelated-16", "trial_type": "html-keyboard-response", "trial_index": 67, "time_elapsed": 199023, "internal_node_id": "0.0-4.0-63.0"}}, {"uniqueid": "w77270904:a60167208", "current_trial": 68, "dateTime": 1664555038412, "trialdata": {"rt": 735, "stimulus": "<p id='stroop-text' class='stroop-yellow'>STONE</p>", "response": "y", "stimulus-type": "unrelated", "word": "STONE", "color": "yellow", "correct_response": "y", "trial_id": "stroop-trial-1-unrelated-18", "trial_type": "html-keyboard-response", "trial_index": 68, "time_elapsed": 200263, "internal_node_id": "0.0-4.0-64.0"}}, {"uniqueid": "w77270904:a60167208", "current_trial": 69, "dateTime": 1664555039477, "trialdata": {"rt": 561, "stimulus": "<p id='stroop-text' class='stroop-red'>YELLOW</p>", "response": "r", "stimulus-type": "incongruent", "word": "yellow", "color": "red", "correct_response": "r", "trial_id": "stroop-trial-1-incongruent-21", "trial_type": "html-keyboard-response", "trial_index": 69, "time_elapsed": 201327, "internal_node_id": "0.0-4.0-65.0"}}, {"uniqueid": "w77270904:a60167208", "current_trial": 70, "dateTime": 1664555040653, "trialdata": {"rt": 674, "stimulus": "<p id='stroop-text' class='stroop-blue'>BRAIN</p>", "response": "b", "stimulus-type": "unrelated", "word": "BRAIN", "color": "blue", "correct_response": "b", "trial_id": "stroop-trial-1-unrelated-7", "trial_type": "html-keyboard-response", "trial_index": 70, "time_elapsed": 202503, "internal_node_id": "0.0-4.0-66.0"}}, {"uniqueid": "w77270904:a60167208", "current_trial": 71, "dateTime": 1664555041660, "trialdata": {"rt": 506, "stimulus": "<p id='stroop-text' class='stroop-blue'>BRIDGE</p>", "response": "b", "stimulus-type": "unrelated", "word": "BRIDGE", "color": "blue", "correct_response": "b", "trial_id": "stroop-trial-1-unrelated-30", "trial_type": "html-keyboard-response", "trial_index": 71, "time_elapsed": 203511, "internal_node_id": "0.0-4.0-67.0"}}, {"uniqueid": "w77270904:a60167208", "current_trial": 72, "dateTime": 1664555042829, "trialdata": {"rt": 666, "stimulus": "<p id='stroop-text' class='stroop-yellow'>YELLOW</p>", "response": "y", "stimulus-type": "congruent", "word": "yellow", "color": "yellow", "correct_response": "y", "trial_id": "stroop-trial-1-congruent-28", "trial_type": "html-keyboard-response", "trial_index": 72, "time_elapsed": 204679, "internal_node_id": "0.0-4.0-68.0"}}, {"uniqueid": "w77270904:a60167208", "current_trial": 73, "dateTime": 1664555044028, "trialdata": {"rt": 696, "stimulus": "<p id='stroop-text' class='stroop-blue'>BLUE</p>", "response": "b", "stimulus-type": "congruent", "word": "blue", "color": "blue", "correct_response": "b", "trial_id": "stroop-trial-1-congruent-26", "trial_type": "html-keyboard-response", "trial_index": 73, "time_elapsed": 205879, "internal_node_id": "0.0-4.0-69.0"}}, {"uniqueid": "w77270904:a60167208", "current_trial": 74, "dateTime": 1664555045765, "trialdata": {"rt": 1234, "stimulus": "<p id='stroop-text' class='stroop-green'>RED</p>", "response": "g", "stimulus-type": "incongruent", "word": "red", "color": "green", "correct_response": "g", "trial_id": "stroop-trial-1-incongruent-25", "trial_type": "html-keyboard-response", "trial_index": 74, "time_elapsed": 207615, "internal_node_id": "0.0-4.0-70.0"}}, {"uniqueid": "w77270904:a60167208", "current_trial": 75, "dateTime": 1664555046917, "trialdata": {"rt": 650, "stimulus": "<p id='stroop-text' class='stroop-green'>BLUE</p>", "response": "g", "stimulus-type": "incongruent", "word": "blue", "color": "green", "correct_response": "g", "trial_id": "stroop-trial-1-incongruent-27", "trial_type": "html-keyboard-response", "trial_index": 75, "time_elapsed": 208767, "internal_node_id": "0.0-4.0-71.0"}}, {"uniqueid": "w77270904:a60167208", "current_trial": 76, "dateTime": 1664555048156, "trialdata": {"rt": 738, "stimulus": "<p id='stroop-text' class='stroop-red'>STONE</p>", "response": "r", "stimulus-type": "unrelated", "word": "STONE", "color": "red", "correct_response": "r", "trial_id": "stroop-trial-1-unrelated-15", "trial_type": "html-keyboard-response", "trial_index": 76, "time_elapsed": 210007, "internal_node_id": "0.0-4.0-72.0"}}, {"uniqueid": "w77270904:a60167208", "current_trial": 77, "dateTime": 1664555049325, "trialdata": {"rt": 665, "stimulus": "<p id='stroop-text' class='stroop-yellow'>RED</p>", "response": "y", "stimulus-type": "incongruent", "word": "red", "color": "yellow", "correct_response": "y", "trial_id": "stroop-trial-1-incongruent-1", "trial_type": "html-keyboard-response", "trial_index": 77, "time_elapsed": 211175, "internal_node_id": "0.0-4.0-73.0"}}, {"uniqueid": "w77270904:a60167208", "current_trial": 78, "dateTime": 1664555050502, "trialdata": {"rt": 674, "stimulus": "<p id='stroop-text' class='stroop-yellow'>BLUE</p>", "response": "y", "stimulus-type": "incongruent", "word": "blue", "color": "yellow", "correct_response": "y", "trial_id": "stroop-trial-1-incongruent-2", "trial_type": "html-keyboard-response", "trial_index": 78, "time_elapsed": 212352, "internal_node_id": "0.0-4.0-74.0"}}, {"uniqueid": "w77270904:a60167208", "current_trial": 79, "dateTime": 1664555051629, "trialdata": {"rt": 624, "stimulus": "<p id='stroop-text' class='stroop-yellow'>GREEN</p>", "response": "y", "stimulus-type": "incongruent", "word": "green", "color": "yellow", "correct_response": "y", "trial_id": "stroop-trial-1-incongruent-26", "trial_type": "html-keyboard-response", "trial_index": 79, "time_elapsed": 213480, "internal_node_id": "0.0-4.0-75.0"}}, {"uniqueid": "w77270904:a60167208", "current_trial": 80, "dateTime": 1664555053341, "trialdata": {"rt": 1210, "stimulus": "<p id='stroop-text' class='stroop-blue'>YELLOW</p>", "response": "b", "stimulus-type": "incongruent", "word": "yellow", "color": "blue", "correct_response": "b", "trial_id": "stroop-trial-1-incongruent-24", "trial_type": "html-keyboard-response", "trial_index": 80, "time_elapsed": 215192, "internal_node_id": "0.0-4.0-76.0"}}, {"uniqueid": "w77270904:a60167208", "current_trial": 81, "dateTime": 1664555054389, "trialdata": {"rt": 544, "stimulus": "<p id='stroop-text' class='stroop-yellow'>FORK</p>", "response": "y", "stimulus-type": "unrelated", "word": "FORK", "color": "yellow", "correct_response": "y", "trial_id": "stroop-trial-1-unrelated-28", "trial_type": "html-keyboard-response", "trial_index": 81, "time_elapsed": 216240, "internal_node_id": "0.0-4.0-77.0"}}, {"uniqueid": "w77270904:a60167208", "current_trial": 82, "dateTime": 1664555055453, "trialdata": {"rt": 562, "stimulus": "<p id='stroop-text' class='stroop-red'>STONE</p>", "response": "r", "stimulus-type": "unrelated", "word": "STONE", "color": "red", "correct_response": "r", "trial_id": "stroop-trial-1-unrelated-2", "trial_type": "html-keyboard-response", "trial_index": 82, "time_elapsed": 217304, "internal_node_id": "0.0-4.0-78.0"}}, {"uniqueid": "w77270904:a60167208", "current_trial": 83, "dateTime": 1664555056605, "trialdata": {"rt": 649, "stimulus": "<p id='stroop-text' class='stroop-green'>YELLOW</p>", "response": "g", "stimulus-type": "incongruent", "word": "yellow", "color": "green", "correct_response": "g", "trial_id": "stroop-trial-1-incongruent-8", "trial_type": "html-keyboard-response", "trial_index": 83, "time_elapsed": 218456, "internal_node_id": "0.0-4.0-79.0"}}, {"uniqueid": "w77270904:a60167208", "current_trial": 84, "dateTime": 1664555057702, "trialdata": {"rt": 593, "stimulus": "<p id='stroop-text' class='stroop-yellow'>DOG</p>", "response": "y", "stimulus-type": "unrelated", "word": "DOG", "color": "yellow", "correct_response": "y", "trial_id": "stroop-trial-1-unrelated-22", "trial_type": "html-keyboard-response", "trial_index": 84, "time_elapsed": 219552, "internal_node_id": "0.0-4.0-80.0"}}, {"uniqueid": "w77270904:a60167208", "current_trial": 85, "dateTime": 1664555058949, "trialdata": {"rt": 738, "stimulus": "<p id='stroop-text' class='stroop-red'>BOTTLE</p>", "response": "r", "stimulus-type": "unrelated", "word": "BOTTLE", "color": "red", "correct_response": "r", "trial_id": "stroop-trial-1-unrelated-12", "trial_type": "html-keyboard-response", "trial_index": 85, "time_elapsed": 220800, "internal_node_id": "0.0-4.0-81.0"}}, {"uniqueid": "w77270904:a60167208", "current_trial": 86, "dateTime": 1664555060110, "trialdata": {"rt": 659, "stimulus": "<p id='stroop-text' class='stroop-yellow'>CHAIR</p>", "response": "y", "stimulus-type": "unrelated", "word": "CHAIR", "color": "yellow", "correct_response": "y", "trial_id": "stroop-trial-1-unrelated-13", "trial_type": "html-keyboard-response", "trial_index": 86, "time_elapsed": 221960, "internal_node_id": "0.0-4.0-82.0"}}, {"uniqueid": "w77270904:a60167208", "current_trial": 87, "dateTime": 1664555061518, "trialdata": {"rt": 906, "stimulus": "<p id='stroop-text' class='stroop-blue'>GREEN</p>", "response": "b", "stimulus-type": "incongruent", "word": "green", "color": "blue", "correct_response": "b", "trial_id": "stroop-trial-1-incongruent-13", "trial_type": "html-keyboard-response", "trial_index": 87, "time_elapsed": 223369, "internal_node_id": "0.0-4.0-83.0"}}, {"uniqueid": "w77270904:a60167208", "current_trial": 88, "dateTime": 1664555062550, "trialdata": {"rt": 529, "stimulus": "<p id='stroop-text' class='stroop-yellow'>YELLOW</p>", "response": "y", "stimulus-type": "congruent", "word": "yellow", "color": "yellow", "correct_response": "y", "trial_id": "stroop-trial-1-congruent-29", "trial_type": "html-keyboard-response", "trial_index": 88, "time_elapsed": 224400, "internal_node_id": "0.0-4.0-84.0"}}, {"uniqueid": "w77270904:a60167208", "current_trial": 89, "dateTime": 1664555063821, "trialdata": {"rt": 770, "stimulus": "<p id='stroop-text' class='stroop-yellow'>MONKEY</p>", "response": "y", "stimulus-type": "unrelated", "word": "MONKEY", "color": "yellow", "correct_response": "y", "trial_id": "stroop-trial-1-unrelated-3", "trial_type": "html-keyboard-response", "trial_index": 89, "time_elapsed": 225672, "internal_node_id": "0.0-4.0-85.0"}}, {"uniqueid": "w77270904:a60167208", "current_trial": 90, "dateTime": 1664555064877, "trialdata": {"rt": 554, "stimulus": "<p id='stroop-text' class='stroop-red'>RED</p>", "response": "r", "stimulus-type": "congruent", "word": "red", "color": "red", "correct_response": "r", "trial_id": "stroop-trial-1-congruent-5", "trial_type": "html-keyboard-response", "trial_index": 90, "time_elapsed": 226728, "internal_node_id": "0.0-4.0-86.0"}}, {"uniqueid": "w77270904:a60167208", "current_trial": 91, "dateTime": 1664555066205, "trialdata": {"rt": 824, "stimulus": "<p id='stroop-text' class='stroop-yellow'>RED</p>", "response": "y", "stimulus-type": "incongruent", "word": "red", "color": "yellow", "correct_response": "y", "trial_id": "stroop-trial-1-incongruent-9", "trial_type": "html-keyboard-response", "trial_index": 91, "time_elapsed": 228056, "internal_node_id": "0.0-4.0-87.0"}}, {"uniqueid": "w77270904:a60167208", "current_trial": 92, "dateTime": 1664555067573, "trialdata": {"rt": 866, "stimulus": "<p id='stroop-text' class='stroop-red'>RED</p>", "response": "r", "stimulus-type": "congruent", "word": "red", "color": "red", "correct_response": "r", "trial_id": "stroop-trial-1-congruent-3", "trial_type": "html-keyboard-response", "trial_index": 92, "time_elapsed": 229424, "internal_node_id": "0.0-4.0-88.0"}}, {"uniqueid": "w77270904:a60167208", "current_trial": 93, "dateTime": 1664555068614, "trialdata": {"rt": 538, "stimulus": "<p id='stroop-text' class='stroop-yellow'>YELLOW</p>", "response": "y", "stimulus-type": "congruent", "word": "yellow", "color": "yellow", "correct_response": "y", "trial_id": "stroop-trial-1-congruent-24", "trial_type": "html-keyboard-response", "trial_index": 93, "time_elapsed": 230464, "internal_node_id": "0.0-4.0-89.0"}}, {"uniqueid": "w77270904:a60167208", "current_trial": 94, "dateTime": 1664555073638, "trialdata": {"rt": 4519, "stimulus": "  <h1> End of block! </h1>\n\n  You have reached the end of the block 1/5. If you need a short break, feel free to take one now before moving on.\n\n  <br><br>\n  In the next block, you will complete another 90 rounds of this game.\n\n  <br><br>\n  <div style='text-align: center;'>Press <code>space</code> to begin.</div>\n  <br><br>\n<div style='text-align: center;'>(If the experiment doesn't continue, try clicking on the text and then pressing <code>space</code>.)</div>", "response": " ", "trial_id": "stroop_1_ready_2", "trial_type": "html-keyboard-response", "trial_index": 94, "time_elapsed": 235489, "internal_node_id": "0.0-5.0"}}, {"uniqueid": "w77270904:a60167208", "current_trial": 95, "dateTime": 1664555074590, "trialdata": {"rt": 949, "stimulus": "<p id='stroop-text' class='stroop-red'>SHIP</p>", "response": "r", "stimulus-type": "unrelated", "word": "SHIP", "color": "red", "correct_response": "r", "trial_id": "stroop-trial-1-unrelated-2", "trial_type": "html-keyboard-response", "trial_index": 95, "time_elapsed": 236441, "internal_node_id": "0.0-6.0-0.0"}}, {"uniqueid": "w77270904:a60167208", "current_trial": 96, "dateTime": 1664555075934, "trialdata": {"rt": 842, "stimulus": "<p id='stroop-text' class='stroop-green'>BOAT</p>", "response": "g", "stimulus-type": "unrelated", "word": "BOAT", "color": "green", "correct_response": "g", "trial_id": "stroop-trial-1-unrelated-20", "trial_type": "html-keyboard-response", "trial_index": 96, "time_elapsed": 237785, "internal_node_id": "0.0-6.0-1.0"}}, {"uniqueid": "w77270904:a60167208", "current_trial": 97, "dateTime": 1664555077006, "trialdata": {"rt": 569, "stimulus": "<p id='stroop-text' class='stroop-red'>CHAIR</p>", "response": "r", "stimulus-type": "unrelated", "word": "CHAIR", "color": "red", "correct_response": "r", "trial_id": "stroop-trial-1-unrelated-1", "trial_type": "html-keyboard-response", "trial_index": 97, "time_elapsed": 238857, "internal_node_id": "0.0-6.0-2.0"}}, {"uniqueid": "w77270904:a60167208", "current_trial": 98, "dateTime": 1664555078174, "trialdata": {"rt": 665, "stimulus": "<p id='stroop-text' class='stroop-blue'>MONKEY</p>", "response": "b", "stimulus-type": "unrelated", "word": "MONKEY", "color": "blue", "correct_response": "b", "trial_id": "stroop-trial-1-unrelated-8", "trial_type": "html-keyboard-response", "trial_index": 98, "time_elapsed": 240025, "internal_node_id": "0.0-6.0-3.0"}}, {"uniqueid": "w77270904:a60167208", "current_trial": 99, "dateTime": 1664555079470, "trialdata": {"rt": 794, "stimulus": "<p id='stroop-text' class='stroop-red'>GREEN</p>", "response": "r", "stimulus-type": "incongruent", "word": "green", "color": "red", "correct_response": "r", "trial_id": "stroop-trial-1-incongruent-21", "trial_type": "html-keyboard-response", "trial_index": 99, "time_elapsed": 241321, "internal_node_id": "0.0-6.0-4.0"}}, {"uniqueid": "w77270904:a60167208", "current_trial": 100, "dateTime": 1664555080750, "trialdata": {"rt": 777, "stimulus": "<p id='stroop-text' class='stroop-green'>BLUE</p>", "response": "g", "stimulus-type": "incongruent", "word": "blue", "color": "green", "correct_response": "g", "trial_id": "stroop-trial-1-incongruent-27", "trial_type": "html-keyboard-response", "trial_index": 100, "time_elapsed": 242600, "internal_node_id": "0.0-6.0-5.0"}}, {"uniqueid": "w77270904:a60167208", "current_trial": 101, "dateTime": 1664555081814, "trialdata": {"rt": 562, "stimulus": "<p id='stroop-text' class='stroop-yellow'>YELLOW</p>", "response": "y", "stimulus-type": "congruent", "word": "yellow", "color": "yellow", "correct_response": "y", "trial_id": "stroop-trial-1-congruent-3", "trial_type": "html-keyboard-response", "trial_index": 101, "time_elapsed": 243665, "internal_node_id": "0.0-6.0-6.0"}}, {"uniqueid": "w77270904:a60167208", "current_trial": 102, "dateTime": 1664555082855, "trialdata": {"rt": 538, "stimulus": "<p id='stroop-text' class='stroop-yellow'>YELLOW</p>", "response": "y", "stimulus-type": "congruent", "word": "yellow", "color": "yellow", "correct_response": "y", "trial_id": "stroop-trial-1-congruent-22", "trial_type": "html-keyboard-response", "trial_index": 102, "time_elapsed": 244705, "internal_node_id": "0.0-6.0-7.0"}}, {"uniqueid": "w77270904:a60167208", "current_trial": 103, "dateTime": 1664555083870, "trialdata": {"rt": 512, "stimulus": "<p id='stroop-text' class='stroop-yellow'>GREEN</p>", "response": "y", "stimulus-type": "incongruent", "word": "green", "color": "yellow", "correct_response": "y", "trial_id": "stroop-trial-1-incongruent-6", "trial_type": "html-keyboard-response", "trial_index": 103, "time_elapsed": 245721, "internal_node_id": "0.0-6.0-8.0"}}, {"uniqueid": "w77270904:a60167208", "current_trial": 104, "dateTime": 1664555084886, "trialdata": {"rt": 514, "stimulus": "<p id='stroop-text' class='stroop-red'>GREEN</p>", "response": "r", "stimulus-type": "incongruent", "word": "green", "color": "red", "correct_response": "r", "trial_id": "stroop-trial-1-incongruent-16", "trial_type": "html-keyboard-response", "trial_index": 104, "time_elapsed": 246737, "internal_node_id": "0.0-6.0-9.0"}}, {"uniqueid": "w77270904:a60167208", "current_trial": 105, "dateTime": 1664555086031, "trialdata": {"rt": 642, "stimulus": "<p id='stroop-text' class='stroop-yellow'>RED</p>", "response": "y", "stimulus-type": "incongruent", "word": "red", "color": "yellow", "correct_response": "y", "trial_id": "stroop-trial-1-incongruent-15", "trial_type": "html-keyboard-response", "trial_index": 105, "time_elapsed": 247881, "internal_node_id": "0.0-6.0-10.0"}}, {"uniqueid": "w77270904:a60167208", "current_trial": 106, "dateTime": 1664555087063, "trialdata": {"rt": 519, "stimulus": "<p id='stroop-text' class='stroop-green'>GREEN</p>", "response": "g", "stimulus-type": "congruent", "word": "green", "color": "green", "correct_response": "g", "trial_id": "stroop-trial-1-congruent-8", "trial_type": "html-keyboard-response", "trial_index": 106, "time_elapsed": 248914, "internal_node_id": "0.0-6.0-11.0"}}, {"uniqueid": "w77270904:a60167208", "current_trial": 107, "dateTime": 1664555088015, "trialdata": {"rt": 449, "stimulus": "<p id='stroop-text' class='stroop-blue'>GREEN</p>", "response": "b", "stimulus-type": "incongruent", "word": "green", "color": "blue", "correct_response": "b", "trial_id": "stroop-trial-1-incongruent-14", "trial_type": "html-keyboard-response", "trial_index": 107, "time_elapsed": 249866, "internal_node_id": "0.0-6.0-12.0"}}, {"uniqueid": "w77270904:a60167208", "current_trial": 108, "dateTime": 1664555089007, "trialdata": {"rt": 489, "stimulus": "<p id='stroop-text' class='stroop-yellow'>YELLOW</p>", "response": "y", "stimulus-type": "congruent", "word": "yellow", "color": "yellow", "correct_response": "y", "trial_id": "stroop-trial-1-congruent-10", "trial_type": "html-keyboard-response", "trial_index": 108, "time_elapsed": 250858, "internal_node_id": "0.0-6.0-13.0"}}, {"uniqueid": "w77270904:a60167208", "current_trial": 109, "dateTime": 1664555090543, "trialdata": {"rt": 1033, "stimulus": "<p id='stroop-text' class='stroop-green'>RED</p>", "response": "g", "stimulus-type": "incongruent", "word": "red", "color": "green", "correct_response": "g", "trial_id": "stroop-trial-1-incongruent-12", "trial_type": "html-keyboard-response", "trial_index": 109, "time_elapsed": 252394, "internal_node_id": "0.0-6.0-14.0"}}, {"uniqueid": "w77270904:a60167208", "current_trial": 110, "dateTime": 1664555091614, "trialdata": {"rt": 567, "stimulus": "<p id='stroop-text' class='stroop-red'>RED</p>", "response": "r", "stimulus-type": "congruent", "word": "red", "color": "red", "correct_response": "r", "trial_id": "stroop-trial-1-congruent-9", "trial_type": "html-keyboard-response", "trial_index": 110, "time_elapsed": 253465, "internal_node_id": "0.0-6.0-15.0"}}, {"uniqueid": "w77270904:a60167208", "current_trial": 111, "dateTime": 1664555092606, "trialdata": {"rt": 489, "stimulus": "<p id='stroop-text' class='stroop-yellow'>YELLOW</p>", "response": "y", "stimulus-type": "congruent", "word": "yellow", "color": "yellow", "correct_response": "y", "trial_id": "stroop-trial-1-congruent-27", "trial_type": "html-keyboard-response", "trial_index": 111, "time_elapsed": 254457, "internal_node_id": "0.0-6.0-16.0"}}, {"uniqueid": "w77270904:a60167208", "current_trial": 112, "dateTime": 1664555093766, "trialdata": {"rt": 657, "stimulus": "<p id='stroop-text' class='stroop-yellow'>MONKEY</p>", "response": "y", "stimulus-type": "unrelated", "word": "MONKEY", "color": "yellow", "correct_response": "y", "trial_id": "stroop-trial-1-unrelated-9", "trial_type": "html-keyboard-response", "trial_index": 112, "time_elapsed": 255617, "internal_node_id": "0.0-6.0-17.0"}}, {"uniqueid": "w77270904:a60167208", "current_trial": 113, "dateTime": 1664555094815, "trialdata": {"rt": 546, "stimulus": "<p id='stroop-text' class='stroop-red'>RED</p>", "response": "r", "stimulus-type": "congruent", "word": "red", "color": "red", "correct_response": "r", "trial_id": "stroop-trial-1-congruent-12", "trial_type": "html-keyboard-response", "trial_index": 113, "time_elapsed": 256665, "internal_node_id": "0.0-6.0-18.0"}}, {"uniqueid": "w77270904:a60167208", "current_trial": 114, "dateTime": 1664555095943, "trialdata": {"rt": 624, "stimulus": "<p id='stroop-text' class='stroop-green'>GREEN</p>", "response": "g", "stimulus-type": "congruent", "word": "green", "color": "green", "correct_response": "g", "trial_id": "stroop-trial-1-congruent-26", "trial_type": "html-keyboard-response", "trial_index": 114, "time_elapsed": 257794, "internal_node_id": "0.0-6.0-19.0"}}, {"uniqueid": "w77270904:a60167208", "current_trial": 115, "dateTime": 1664555097167, "trialdata": {"rt": 722, "stimulus": "<p id='stroop-text' class='stroop-red'>GREEN</p>", "response": "r", "stimulus-type": "incongruent", "word": "green", "color": "red", "correct_response": "r", "trial_id": "stroop-trial-1-incongruent-4", "trial_type": "html-keyboard-response", "trial_index": 115, "time_elapsed": 259018, "internal_node_id": "0.0-6.0-20.0"}}, {"uniqueid": "w77270904:a60167208", "current_trial": 116, "dateTime": 1664555098159, "trialdata": {"rt": 490, "stimulus": "<p id='stroop-text' class='stroop-red'>RED</p>", "response": "r", "stimulus-type": "congruent", "word": "red", "color": "red", "correct_response": "r", "trial_id": "stroop-trial-1-congruent-7", "trial_type": "html-keyboard-response", "trial_index": 116, "time_elapsed": 260010, "internal_node_id": "0.0-6.0-21.0"}}, {"uniqueid": "w77270904:a60167208", "current_trial": 117, "dateTime": 1664555099135, "trialdata": {"rt": 474, "stimulus": "<p id='stroop-text' class='stroop-red'>FORK</p>", "response": "r", "stimulus-type": "unrelated", "word": "FORK", "color": "red", "correct_response": "r", "trial_id": "stroop-trial-1-unrelated-13", "trial_type": "html-keyboard-response", "trial_index": 117, "time_elapsed": 260986, "internal_node_id": "0.0-6.0-22.0"}}, {"uniqueid": "w77270904:a60167208", "current_trial": 118, "dateTime": 1664555100151, "trialdata": {"rt": 513, "stimulus": "<p id='stroop-text' class='stroop-red'>RED</p>", "response": "r", "stimulus-type": "congruent", "word": "red", "color": "red", "correct_response": "r", "trial_id": "stroop-trial-1-congruent-23", "trial_type": "html-keyboard-response", "trial_index": 118, "time_elapsed": 262002, "internal_node_id": "0.0-6.0-23.0"}}, {"uniqueid": "w77270904:a60167208", "current_trial": 119, "dateTime": 1664555101199, "trialdata": {"rt": 536, "stimulus": "<p id='stroop-text' class='stroop-blue'>BLUE</p>", "response": "b", "stimulus-type": "congruent", "word": "blue", "color": "blue", "correct_response": "b", "trial_id": "stroop-trial-1-congruent-16", "trial_type": "html-keyboard-response", "trial_index": 119, "time_elapsed": 263050, "internal_node_id": "0.0-6.0-24.0"}}, {"uniqueid": "w77270904:a60167208", "current_trial": 120, "dateTime": 1664555102167, "trialdata": {"rt": 465, "stimulus": "<p id='stroop-text' class='stroop-blue'>YELLOW</p>", "response": "b", "stimulus-type": "incongruent", "word": "yellow", "color": "blue", "correct_response": "b", "trial_id": "stroop-trial-1-incongruent-28", "trial_type": "html-keyboard-response", "trial_index": 120, "time_elapsed": 264018, "internal_node_id": "0.0-6.0-25.0"}}, {"uniqueid": "w77270904:a60167208", "current_trial": 121, "dateTime": 1664555103247, "trialdata": {"rt": 577, "stimulus": "<p id='stroop-text' class='stroop-green'>CHAIR</p>", "response": "g", "stimulus-type": "unrelated", "word": "CHAIR", "color": "green", "correct_response": "g", "trial_id": "stroop-trial-1-unrelated-22", "trial_type": "html-keyboard-response", "trial_index": 121, "time_elapsed": 265098, "internal_node_id": "0.0-6.0-26.0"}}, {"uniqueid": "w77270904:a60167208", "current_trial": 122, "dateTime": 1664555104519, "trialdata": {"rt": 769, "stimulus": "<p id='stroop-text' class='stroop-red'>GREEN</p>", "response": "r", "stimulus-type": "incongruent", "word": "green", "color": "red", "correct_response": "r", "trial_id": "stroop-trial-1-incongruent-3", "trial_type": "html-keyboard-response", "trial_index": 122, "time_elapsed": 266370, "internal_node_id": "0.0-6.0-27.0"}}, {"uniqueid": "w77270904:a60167208", "current_trial": 123, "dateTime": 1664555105496, "trialdata": {"rt": 474, "stimulus": "<p id='stroop-text' class='stroop-red'>YELLOW</p>", "response": "r", "stimulus-type": "incongruent", "word": "yellow", "color": "red", "correct_response": "r", "trial_id": "stroop-trial-1-incongruent-9", "trial_type": "html-keyboard-response", "trial_index": 123, "time_elapsed": 267346, "internal_node_id": "0.0-6.0-28.0"}}, {"uniqueid": "w77270904:a60167208", "current_trial": 124, "dateTime": 1664555106631, "trialdata": {"rt": 633, "stimulus": "<p id='stroop-text' class='stroop-yellow'>GREEN</p>", "response": "y", "stimulus-type": "incongruent", "word": "green", "color": "yellow", "correct_response": "y", "trial_id": "stroop-trial-1-incongruent-2", "trial_type": "html-keyboard-response", "trial_index": 124, "time_elapsed": 268482, "internal_node_id": "0.0-6.0-29.0"}}, {"uniqueid": "w77270904:a60167208", "current_trial": 125, "dateTime": 1664555108016, "trialdata": {"rt": 882, "stimulus": "<p id='stroop-text' class='stroop-blue'>YELLOW</p>", "response": "b", "stimulus-type": "incongruent", "word": "yellow", "color": "blue", "correct_response": "b", "trial_id": "stroop-trial-1-incongruent-30", "trial_type": "html-keyboard-response", "trial_index": 125, "time_elapsed": 269867, "internal_node_id": "0.0-6.0-30.0"}}, {"uniqueid": "w77270904:a60167208", "current_trial": 126, "dateTime": 1664555109063, "trialdata": {"rt": 544, "stimulus": "<p id='stroop-text' class='stroop-green'>GREEN</p>", "response": "g", "stimulus-type": "congruent", "word": "green", "color": "green", "correct_response": "g", "trial_id": "stroop-trial-1-congruent-5", "trial_type": "html-keyboard-response", "trial_index": 126, "time_elapsed": 270914, "internal_node_id": "0.0-6.0-31.0"}}, {"uniqueid": "w77270904:a60167208", "current_trial": 127, "dateTime": 1664555110447, "trialdata": {"rt": 881, "stimulus": "<p id='stroop-text' class='stroop-blue'>YELLOW</p>", "response": "b", "stimulus-type": "incongruent", "word": "yellow", "color": "blue", "correct_response": "b", "trial_id": "stroop-trial-1-incongruent-11", "trial_type": "html-keyboard-response", "trial_index": 127, "time_elapsed": 272298, "internal_node_id": "0.0-6.0-32.0"}}, {"uniqueid": "w77270904:a60167208", "current_trial": 128, "dateTime": 1664555111575, "trialdata": {"rt": 625, "stimulus": "<p id='stroop-text' class='stroop-green'>MONKEY</p>", "response": "g", "stimulus-type": "unrelated", "word": "MONKEY", "color": "green", "correct_response": "g", "trial_id": "stroop-trial-1-unrelated-15", "trial_type": "html-keyboard-response", "trial_index": 128, "time_elapsed": 273426, "internal_node_id": "0.0-6.0-33.0"}}, {"uniqueid": "w77270904:a60167208", "current_trial": 129, "dateTime": 1664555112976, "trialdata": {"rt": 897, "stimulus": "<p id='stroop-text' class='stroop-green'>GREEN</p>", "response": "g", "stimulus-type": "congruent", "word": "green", "color": "green", "correct_response": "g", "trial_id": "stroop-trial-1-congruent-6", "trial_type": "html-keyboard-response", "trial_index": 129, "time_elapsed": 274826, "internal_node_id": "0.0-6.0-34.0"}}, {"uniqueid": "w77270904:a60167208", "current_trial": 130, "dateTime": 1664555114024, "trialdata": {"rt": 545, "stimulus": "<p id='stroop-text' class='stroop-green'>STONE</p>", "response": "g", "stimulus-type": "unrelated", "word": "STONE", "color": "green", "correct_response": "g", "trial_id": "stroop-trial-1-unrelated-24", "trial_type": "html-keyboard-response", "trial_index": 130, "time_elapsed": 275874, "internal_node_id": "0.0-6.0-35.0"}}, {"uniqueid": "w77270904:a60167208", "current_trial": 131, "dateTime": 1664555115272, "trialdata": {"rt": 745, "stimulus": "<p id='stroop-text' class='stroop-blue'>CHAIR</p>", "response": "b", "stimulus-type": "unrelated", "word": "CHAIR", "color": "blue", "correct_response": "b", "trial_id": "stroop-trial-1-unrelated-27", "trial_type": "html-keyboard-response", "trial_index": 131, "time_elapsed": 277123, "internal_node_id": "0.0-6.0-36.0"}}, {"uniqueid": "w77270904:a60167208", "current_trial": 132, "dateTime": 1664555116384, "trialdata": {"rt": 609, "stimulus": "<p id='stroop-text' class='stroop-red'>BLUE</p>", "response": "r", "stimulus-type": "incongruent", "word": "blue", "color": "red", "correct_response": "r", "trial_id": "stroop-trial-1-incongruent-8", "trial_type": "html-keyboard-response", "trial_index": 132, "time_elapsed": 278235, "internal_node_id": "0.0-6.0-37.0"}}, {"uniqueid": "w77270904:a60167208", "current_trial": 133, "dateTime": 1664555117688, "trialdata": {"rt": 802, "stimulus": "<p id='stroop-text' class='stroop-blue'>BLUE</p>", "response": "b", "stimulus-type": "congruent", "word": "blue", "color": "blue", "correct_response": "b", "trial_id": "stroop-trial-1-congruent-13", "trial_type": "html-keyboard-response", "trial_index": 133, "time_elapsed": 279539, "internal_node_id": "0.0-6.0-38.0"}}, {"uniqueid": "w77270904:a60167208", "current_trial": 134, "dateTime": 1664555118688, "trialdata": {"rt": 495, "stimulus": "<p id='stroop-text' class='stroop-red'>GREEN</p>", "response": "r", "stimulus-type": "incongruent", "word": "green", "color": "red", "correct_response": "r", "trial_id": "stroop-trial-1-incongruent-17", "trial_type": "html-keyboard-response", "trial_index": 134, "time_elapsed": 280539, "internal_node_id": "0.0-6.0-39.0"}}, {"uniqueid": "w77270904:a60167208", "current_trial": 135, "dateTime": 1664555119728, "trialdata": {"rt": 536, "stimulus": "<p id='stroop-text' class='stroop-red'>RED</p>", "response": "r", "stimulus-type": "congruent", "word": "red", "color": "red", "correct_response": "r", "trial_id": "stroop-trial-1-congruent-1", "trial_type": "html-keyboard-response", "trial_index": 135, "time_elapsed": 281579, "internal_node_id": "0.0-6.0-40.0"}}, {"uniqueid": "w77270904:a60167208", "current_trial": 136, "dateTime": 1664555120704, "trialdata": {"rt": 474, "stimulus": "<p id='stroop-text' class='stroop-red'>CHAIR</p>", "response": "r", "stimulus-type": "unrelated", "word": "CHAIR", "color": "red", "correct_response": "r", "trial_id": "stroop-trial-1-unrelated-25", "trial_type": "html-keyboard-response", "trial_index": 136, "time_elapsed": 282555, "internal_node_id": "0.0-6.0-41.0"}}, {"uniqueid": "w77270904:a60167208", "current_trial": 137, "dateTime": 1664555121832, "trialdata": {"rt": 625, "stimulus": "<p id='stroop-text' class='stroop-blue'>BLUE</p>", "response": "b", "stimulus-type": "congruent", "word": "blue", "color": "blue", "correct_response": "b", "trial_id": "stroop-trial-1-congruent-2", "trial_type": "html-keyboard-response", "trial_index": 137, "time_elapsed": 283683, "internal_node_id": "0.0-6.0-42.0"}}, {"uniqueid": "w77270904:a60167208", "current_trial": 138, "dateTime": 1664555122952, "trialdata": {"rt": 617, "stimulus": "<p id='stroop-text' class='stroop-red'>DOG</p>", "response": "r", "stimulus-type": "unrelated", "word": "DOG", "color": "red", "correct_response": "r", "trial_id": "stroop-trial-1-unrelated-10", "trial_type": "html-keyboard-response", "trial_index": 138, "time_elapsed": 284803, "internal_node_id": "0.0-6.0-43.0"}}, {"uniqueid": "w77270904:a60167208", "current_trial": 139, "dateTime": 1664555124208, "trialdata": {"rt": 753, "stimulus": "<p id='stroop-text' class='stroop-blue'>BLUE</p>", "response": "b", "stimulus-type": "congruent", "word": "blue", "color": "blue", "correct_response": "b", "trial_id": "stroop-trial-1-congruent-21", "trial_type": "html-keyboard-response", "trial_index": 139, "time_elapsed": 286059, "internal_node_id": "0.0-6.0-44.0"}}, {"uniqueid": "w77270904:a60167208", "current_trial": 140, "dateTime": 1664555125272, "trialdata": {"rt": 560, "stimulus": "<p id='stroop-text' class='stroop-blue'>BLUE</p>", "response": "b", "stimulus-type": "congruent", "word": "blue", "color": "blue", "correct_response": "b", "trial_id": "stroop-trial-1-congruent-14", "trial_type": "html-keyboard-response", "trial_index": 140, "time_elapsed": 287123, "internal_node_id": "0.0-6.0-45.0"}}, {"uniqueid": "w77270904:a60167208", "current_trial": 141, "dateTime": 1664555126624, "trialdata": {"rt": 849, "stimulus": "<p id='stroop-text' class='stroop-green'>CHAIR</p>", "response": "g", "stimulus-type": "unrelated", "word": "CHAIR", "color": "green", "correct_response": "g", "trial_id": "stroop-trial-1-unrelated-6", "trial_type": "html-keyboard-response", "trial_index": 141, "time_elapsed": 288475, "internal_node_id": "0.0-6.0-46.0"}}, {"uniqueid": "w77270904:a60167208", "current_trial": 142, "dateTime": 1664555127976, "trialdata": {"rt": 850, "stimulus": "<p id='stroop-text' class='stroop-red'>YELLOW</p>", "response": "r", "stimulus-type": "incongruent", "word": "yellow", "color": "red", "correct_response": "r", "trial_id": "stroop-trial-1-incongruent-29", "trial_type": "html-keyboard-response", "trial_index": 142, "time_elapsed": 289827, "internal_node_id": "0.0-6.0-47.0"}}, {"uniqueid": "w77270904:a60167208", "current_trial": 143, "dateTime": 1664555129720, "trialdata": {"rt": 1240, "stimulus": "<p id='stroop-text' class='stroop-blue'>GREEN</p>", "response": "b", "stimulus-type": "incongruent", "word": "green", "color": "blue", "correct_response": "b", "trial_id": "stroop-trial-1-incongruent-24", "trial_type": "html-keyboard-response", "trial_index": 143, "time_elapsed": 291571, "internal_node_id": "0.0-6.0-48.0"}}, {"uniqueid": "w77270904:a60167208", "current_trial": 144, "dateTime": 1664555130992, "trialdata": {"rt": 754, "stimulus": "<p id='stroop-text' class='stroop-red'>GREEN</p>", "response": "r", "stimulus-type": "incongruent", "word": "green", "color": "red", "correct_response": "r", "trial_id": "stroop-trial-1-incongruent-13", "trial_type": "html-keyboard-response", "trial_index": 144, "time_elapsed": 292843, "internal_node_id": "0.0-6.0-49.0"}}, {"uniqueid": "w77270904:a60167208", "current_trial": 145, "dateTime": 1664555132097, "trialdata": {"rt": 601, "stimulus": "<p id='stroop-text' class='stroop-red'>RED</p>", "response": "r", "stimulus-type": "congruent", "word": "red", "color": "red", "correct_response": "r", "trial_id": "stroop-trial-1-congruent-20", "trial_type": "html-keyboard-response", "trial_index": 145, "time_elapsed": 293947, "internal_node_id": "0.0-6.0-50.0"}}, {"uniqueid": "w77270904:a60167208", "current_trial": 146, "dateTime": 1664555133169, "trialdata": {"rt": 567, "stimulus": "<p id='stroop-text' class='stroop-yellow'>YELLOW</p>", "response": "y", "stimulus-type": "congruent", "word": "yellow", "color": "yellow", "correct_response": "y", "trial_id": "stroop-trial-1-congruent-15", "trial_type": "html-keyboard-response", "trial_index": 146, "time_elapsed": 295019, "internal_node_id": "0.0-6.0-51.0"}}, {"uniqueid": "w77270904:a60167208", "current_trial": 147, "dateTime": 1664555134321, "trialdata": {"rt": 649, "stimulus": "<p id='stroop-text' class='stroop-red'>SHIP</p>", "response": "r", "stimulus-type": "unrelated", "word": "SHIP", "color": "red", "correct_response": "r", "trial_id": "stroop-trial-1-unrelated-17", "trial_type": "html-keyboard-response", "trial_index": 147, "time_elapsed": 296172, "internal_node_id": "0.0-6.0-52.0"}}, {"uniqueid": "w77270904:a60167208", "current_trial": 148, "dateTime": 1664555135768, "trialdata": {"rt": 930, "stimulus": "<p id='stroop-text' class='stroop-green'>YELLOW</p>", "response": "g", "stimulus-type": "incongruent", "word": "yellow", "color": "green", "correct_response": "g", "trial_id": "stroop-trial-1-incongruent-1", "trial_type": "html-keyboard-response", "trial_index": 148, "time_elapsed": 297619, "internal_node_id": "0.0-6.0-53.0"}}, {"uniqueid": "w77270904:a60167208", "current_trial": 149, "dateTime": 1664555136825, "trialdata": {"rt": 554, "stimulus": "<p id='stroop-text' class='stroop-red'>BRIDGE</p>", "response": "r", "stimulus-type": "unrelated", "word": "BRIDGE", "color": "red", "correct_response": "r", "trial_id": "stroop-trial-1-unrelated-19", "trial_type": "html-keyboard-response", "trial_index": 149, "time_elapsed": 298676, "internal_node_id": "0.0-6.0-54.0"}}, {"uniqueid": "w77270904:a60167208", "current_trial": 150, "dateTime": 1664555137865, "trialdata": {"rt": 536, "stimulus": "<p id='stroop-text' class='stroop-yellow'>BOAT</p>", "response": "y", "stimulus-type": "unrelated", "word": "BOAT", "color": "yellow", "correct_response": "y", "trial_id": "stroop-trial-1-unrelated-16", "trial_type": "html-keyboard-response", "trial_index": 150, "time_elapsed": 299715, "internal_node_id": "0.0-6.0-55.0"}}, {"uniqueid": "w77270904:a60167208", "current_trial": 151, "dateTime": 1664555139001, "trialdata": {"rt": 633, "stimulus": "<p id='stroop-text' class='stroop-yellow'>YELLOW</p>", "response": "y", "stimulus-type": "congruent", "word": "yellow", "color": "yellow", "correct_response": "y", "trial_id": "stroop-trial-1-congruent-28", "trial_type": "html-keyboard-response", "trial_index": 151, "time_elapsed": 300852, "internal_node_id": "0.0-6.0-56.0"}}, {"uniqueid": "w77270904:a60167208", "current_trial": 152, "dateTime": 1664555140050, "trialdata": {"rt": 545, "stimulus": "<p id='stroop-text' class='stroop-red'>DOG</p>", "response": "r", "stimulus-type": "unrelated", "word": "DOG", "color": "red", "correct_response": "r", "trial_id": "stroop-trial-1-unrelated-26", "trial_type": "html-keyboard-response", "trial_index": 152, "time_elapsed": 301900, "internal_node_id": "0.0-6.0-57.0"}}, {"uniqueid": "w77270904:a60167208", "current_trial": 153, "dateTime": 1664555141226, "trialdata": {"rt": 672, "stimulus": "<p id='stroop-text' class='stroop-blue'>BRIDGE</p>", "response": "b", "stimulus-type": "unrelated", "word": "BRIDGE", "color": "blue", "correct_response": "b", "trial_id": "stroop-trial-1-unrelated-14", "trial_type": "html-keyboard-response", "trial_index": 153, "time_elapsed": 303076, "internal_node_id": "0.0-6.0-58.0"}}, {"uniqueid": "w77270904:a60167208", "current_trial": 154, "dateTime": 1664555142634, "trialdata": {"rt": 906, "stimulus": "<p id='stroop-text' class='stroop-blue'>MONKEY</p>", "response": "b", "stimulus-type": "unrelated", "word": "MONKEY", "color": "blue", "correct_response": "b", "trial_id": "stroop-trial-1-unrelated-30", "trial_type": "html-keyboard-response", "trial_index": 154, "time_elapsed": 304484, "internal_node_id": "0.0-6.0-59.0"}}, {"uniqueid": "w77270904:a60167208", "current_trial": 155, "dateTime": 1664555143786, "trialdata": {"rt": 649, "stimulus": "<p id='stroop-text' class='stroop-green'>BLUE</p>", "response": "g", "stimulus-type": "incongruent", "word": "blue", "color": "green", "correct_response": "g", "trial_id": "stroop-trial-1-incongruent-20", "trial_type": "html-keyboard-response", "trial_index": 155, "time_elapsed": 305636, "internal_node_id": "0.0-6.0-60.0"}}, {"uniqueid": "w77270904:a60167208", "current_trial": 156, "dateTime": 1664555144818, "trialdata": {"rt": 529, "stimulus": "<p id='stroop-text' class='stroop-green'>BRAIN</p>", "response": "g", "stimulus-type": "unrelated", "word": "BRAIN", "color": "green", "correct_response": "g", "trial_id": "stroop-trial-1-unrelated-18", "trial_type": "html-keyboard-response", "trial_index": 156, "time_elapsed": 306668, "internal_node_id": "0.0-6.0-61.0"}}, {"uniqueid": "w77270904:a60167208", "current_trial": 157, "dateTime": 1664555145954, "trialdata": {"rt": 634, "stimulus": "<p id='stroop-text' class='stroop-yellow'>BLUE</p>", "response": "y", "stimulus-type": "incongruent", "word": "blue", "color": "yellow", "correct_response": "y", "trial_id": "stroop-trial-1-incongruent-19", "trial_type": "html-keyboard-response", "trial_index": 157, "time_elapsed": 307805, "internal_node_id": "0.0-6.0-62.0"}}, {"uniqueid": "w77270904:a60167208", "current_trial": 158, "dateTime": 1664555147226, "trialdata": {"rt": 769, "stimulus": "<p id='stroop-text' class='stroop-blue'>BLUE</p>", "response": "b", "stimulus-type": "congruent", "word": "blue", "color": "blue", "correct_response": "b", "trial_id": "stroop-trial-1-congruent-19", "trial_type": "html-keyboard-response", "trial_index": 158, "time_elapsed": 309077, "internal_node_id": "0.0-6.0-63.0"}}, {"uniqueid": "w77270904:a60167208", "current_trial": 159, "dateTime": 1664555148474, "trialdata": {"rt": 745, "stimulus": "<p id='stroop-text' class='stroop-green'>SHIP</p>", "response": "g", "stimulus-type": "unrelated", "word": "SHIP", "color": "green", "correct_response": "g", "trial_id": "stroop-trial-1-unrelated-12", "trial_type": "html-keyboard-response", "trial_index": 159, "time_elapsed": 310325, "internal_node_id": "0.0-6.0-64.0"}}, {"uniqueid": "w77270904:a60167208", "current_trial": 160, "dateTime": 1664555149722, "trialdata": {"rt": 745, "stimulus": "<p id='stroop-text' class='stroop-green'>FORK</p>", "response": "g", "stimulus-type": "unrelated", "word": "FORK", "color": "green", "correct_response": "g", "trial_id": "stroop-trial-1-unrelated-21", "trial_type": "html-keyboard-response", "trial_index": 160, "time_elapsed": 311573, "internal_node_id": "0.0-6.0-65.0"}}, {"uniqueid": "w77270904:a60167208", "current_trial": 161, "dateTime": 1664555150858, "trialdata": {"rt": 634, "stimulus": "<p id='stroop-text' class='stroop-green'>GREEN</p>", "response": "g", "stimulus-type": "congruent", "word": "green", "color": "green", "correct_response": "g", "trial_id": "stroop-trial-1-congruent-24", "trial_type": "html-keyboard-response", "trial_index": 161, "time_elapsed": 312709, "internal_node_id": "0.0-6.0-66.0"}}, {"uniqueid": "w77270904:a60167208", "current_trial": 162, "dateTime": 1664555151906, "trialdata": {"rt": 545, "stimulus": "<p id='stroop-text' class='stroop-green'>GREEN</p>", "response": "g", "stimulus-type": "congruent", "word": "green", "color": "green", "correct_response": "g", "trial_id": "stroop-trial-1-congruent-18", "trial_type": "html-keyboard-response", "trial_index": 162, "time_elapsed": 313757, "internal_node_id": "0.0-6.0-67.0"}}, {"uniqueid": "w77270904:a60167208", "current_trial": 163, "dateTime": 1664555152882, "trialdata": {"rt": 473, "stimulus": "<p id='stroop-text' class='stroop-green'>RED</p>", "response": "g", "stimulus-type": "incongruent", "word": "red", "color": "green", "correct_response": "g", "trial_id": "stroop-trial-1-incongruent-25", "trial_type": "html-keyboard-response", "trial_index": 163, "time_elapsed": 314733, "internal_node_id": "0.0-6.0-68.0"}}, {"uniqueid": "w77270904:a60167208", "current_trial": 164, "dateTime": 1664555154066, "trialdata": {"rt": 681, "stimulus": "<p id='stroop-text' class='stroop-blue'>WINDOW</p>", "response": "b", "stimulus-type": "unrelated", "word": "WINDOW", "color": "blue", "correct_response": "b", "trial_id": "stroop-trial-1-unrelated-7", "trial_type": "html-keyboard-response", "trial_index": 164, "time_elapsed": 315917, "internal_node_id": "0.0-6.0-69.0"}}, {"uniqueid": "w77270904:a60167208", "current_trial": 165, "dateTime": 1664555155146, "trialdata": {"rt": 578, "stimulus": "<p id='stroop-text' class='stroop-green'>GREEN</p>", "response": "g", "stimulus-type": "congruent", "word": "green", "color": "green", "correct_response": "g", "trial_id": "stroop-trial-1-congruent-17", "trial_type": "html-keyboard-response", "trial_index": 165, "time_elapsed": 316997, "internal_node_id": "0.0-6.0-70.0"}}, {"uniqueid": "w77270904:a60167208", "current_trial": 166, "dateTime": 1664555156147, "trialdata": {"rt": 498, "stimulus": "<p id='stroop-text' class='stroop-green'>CHAIR</p>", "response": "g", "stimulus-type": "unrelated", "word": "CHAIR", "color": "green", "correct_response": "g", "trial_id": "stroop-trial-1-unrelated-3", "trial_type": "html-keyboard-response", "trial_index": 166, "time_elapsed": 317997, "internal_node_id": "0.0-6.0-71.0"}}, {"uniqueid": "w77270904:a60167208", "current_trial": 167, "dateTime": 1664555157091, "trialdata": {"rt": 440, "stimulus": "<p id='stroop-text' class='stroop-green'>GREEN</p>", "response": "g", "stimulus-type": "congruent", "word": "green", "color": "green", "correct_response": "g", "trial_id": "stroop-trial-1-congruent-29", "trial_type": "html-keyboard-response", "trial_index": 167, "time_elapsed": 318941, "internal_node_id": "0.0-6.0-72.0"}}, {"uniqueid": "w77270904:a60167208", "current_trial": 168, "dateTime": 1664555158411, "trialdata": {"rt": 815, "stimulus": "<p id='stroop-text' class='stroop-yellow'>RED</p>", "response": "y", "stimulus-type": "incongruent", "word": "red", "color": "yellow", "correct_response": "y", "trial_id": "stroop-trial-1-incongruent-7", "trial_type": "html-keyboard-response", "trial_index": 168, "time_elapsed": 320262, "internal_node_id": "0.0-6.0-73.0"}}, {"uniqueid": "w77270904:a60167208", "current_trial": 169, "dateTime": 1664555159890, "trialdata": {"rt": 976, "stimulus": "<p id='stroop-text' class='stroop-blue'>STONE</p>", "response": "b", "stimulus-type": "unrelated", "word": "STONE", "color": "blue", "correct_response": "b", "trial_id": "stroop-trial-1-unrelated-11", "trial_type": "html-keyboard-response", "trial_index": 169, "time_elapsed": 321741, "internal_node_id": "0.0-6.0-74.0"}}, {"uniqueid": "w77270904:a60167208", "current_trial": 170, "dateTime": 1664555160962, "trialdata": {"rt": 568, "stimulus": "<p id='stroop-text' class='stroop-yellow'>GREEN</p>", "response": "y", "stimulus-type": "incongruent", "word": "green", "color": "yellow", "correct_response": "y", "trial_id": "stroop-trial-1-incongruent-23", "trial_type": "html-keyboard-response", "trial_index": 170, "time_elapsed": 322813, "internal_node_id": "0.0-6.0-75.0"}}, {"uniqueid": "w77270904:a60167208", "current_trial": 171, "dateTime": 1664555162027, "trialdata": {"rt": 560, "stimulus": "<p id='stroop-text' class='stroop-yellow'>FORK</p>", "response": "y", "stimulus-type": "unrelated", "word": "FORK", "color": "yellow", "correct_response": "y", "trial_id": "stroop-trial-1-unrelated-4", "trial_type": "html-keyboard-response", "trial_index": 171, "time_elapsed": 323877, "internal_node_id": "0.0-6.0-76.0"}}, {"uniqueid": "w77270904:a60167208", "current_trial": 172, "dateTime": 1664555163611, "trialdata": {"rt": 1082, "stimulus": "<p id='stroop-text' class='stroop-blue'>RED</p>", "response": "b", "stimulus-type": "incongruent", "word": "red", "color": "blue", "correct_response": "b", "trial_id": "stroop-trial-1-incongruent-18", "trial_type": "html-keyboard-response", "trial_index": 172, "time_elapsed": 325462, "internal_node_id": "0.0-6.0-77.0"}}, {"uniqueid": "w77270904:a60167208", "current_trial": 173, "dateTime": 1664555164619, "trialdata": {"rt": 490, "stimulus": "<p id='stroop-text' class='stroop-red'>RED</p>", "response": "r", "stimulus-type": "congruent", "word": "red", "color": "red", "correct_response": "r", "trial_id": "stroop-trial-1-congruent-30", "trial_type": "html-keyboard-response", "trial_index": 173, "time_elapsed": 326470, "internal_node_id": "0.0-6.0-78.0"}}, {"uniqueid": "w77270904:a60167208", "current_trial": 174, "dateTime": 1664555165603, "trialdata": {"rt": 480, "stimulus": "<p id='stroop-text' class='stroop-red'>RED</p>", "response": "r", "stimulus-type": "congruent", "word": "red", "color": "red", "correct_response": "r", "trial_id": "stroop-trial-1-congruent-4", "trial_type": "html-keyboard-response", "trial_index": 174, "time_elapsed": 327454, "internal_node_id": "0.0-6.0-79.0"}}, {"uniqueid": "w77270904:a60167208", "current_trial": 175, "dateTime": 1664555166571, "trialdata": {"rt": 464, "stimulus": "<p id='stroop-text' class='stroop-red'>GREEN</p>", "response": "r", "stimulus-type": "incongruent", "word": "green", "color": "red", "correct_response": "r", "trial_id": "stroop-trial-1-incongruent-26", "trial_type": "html-keyboard-response", "trial_index": 175, "time_elapsed": 328422, "internal_node_id": "0.0-6.0-80.0"}}, {"uniqueid": "w77270904:a60167208", "current_trial": 176, "dateTime": 1664555167691, "trialdata": {"rt": 616, "stimulus": "<p id='stroop-text' class='stroop-blue'>BLUE</p>", "response": "b", "stimulus-type": "congruent", "word": "blue", "color": "blue", "correct_response": "b", "trial_id": "stroop-trial-1-congruent-25", "trial_type": "html-keyboard-response", "trial_index": 176, "time_elapsed": 329542, "internal_node_id": "0.0-6.0-81.0"}}, {"uniqueid": "w77270904:a60167208", "current_trial": 177, "dateTime": 1664555168763, "trialdata": {"rt": 570, "stimulus": "<p id='stroop-text' class='stroop-blue'>GREEN</p>", "response": "b", "stimulus-type": "incongruent", "word": "green", "color": "blue", "correct_response": "b", "trial_id": "stroop-trial-1-incongruent-5", "trial_type": "html-keyboard-response", "trial_index": 177, "time_elapsed": 330614, "internal_node_id": "0.0-6.0-82.0"}}, {"uniqueid": "w77270904:a60167208", "current_trial": 178, "dateTime": 1664555169819, "trialdata": {"rt": 553, "stimulus": "<p id='stroop-text' class='stroop-blue'>BOAT</p>", "response": "b", "stimulus-type": "unrelated", "word": "BOAT", "color": "blue", "correct_response": "b", "trial_id": "stroop-trial-1-unrelated-5", "trial_type": "html-keyboard-response", "trial_index": 178, "time_elapsed": 331670, "internal_node_id": "0.0-6.0-83.0"}}, {"uniqueid": "w77270904:a60167208", "current_trial": 179, "dateTime": 1664555171403, "trialdata": {"rt": 1078, "stimulus": "<p id='stroop-text' class='stroop-red'>BLUE</p>", "response": "r", "stimulus-type": "incongruent", "word": "blue", "color": "red", "correct_response": "r", "trial_id": "stroop-trial-1-incongruent-10", "trial_type": "html-keyboard-response", "trial_index": 179, "time_elapsed": 333254, "internal_node_id": "0.0-6.0-84.0"}}, {"uniqueid": "w77270904:a60167208", "current_trial": 180, "dateTime": 1664555172723, "trialdata": {"rt": 808, "stimulus": "<p id='stroop-text' class='stroop-blue'>SHIP</p>", "response": "b", "stimulus-type": "unrelated", "word": "SHIP", "color": "blue", "correct_response": "b", "trial_id": "stroop-trial-1-unrelated-28", "trial_type": "html-keyboard-response", "trial_index": 180, "time_elapsed": 334574, "internal_node_id": "0.0-6.0-85.0"}}, {"uniqueid": "w77270904:a60167208", "current_trial": 181, "dateTime": 1664555173803, "trialdata": {"rt": 577, "stimulus": "<p id='stroop-text' class='stroop-yellow'>YELLOW</p>", "response": "y", "stimulus-type": "congruent", "word": "yellow", "color": "yellow", "correct_response": "y", "trial_id": "stroop-trial-1-congruent-11", "trial_type": "html-keyboard-response", "trial_index": 181, "time_elapsed": 335654, "internal_node_id": "0.0-6.0-86.0"}}, {"uniqueid": "w77270904:a60167208", "current_trial": 182, "dateTime": 1664555175259, "trialdata": {"rt": 953, "stimulus": "<p id='stroop-text' class='stroop-blue'>FORK</p>", "response": "b", "stimulus-type": "unrelated", "word": "FORK", "color": "blue", "correct_response": "b", "trial_id": "stroop-trial-1-unrelated-23", "trial_type": "html-keyboard-response", "trial_index": 182, "time_elapsed": 337110, "internal_node_id": "0.0-6.0-87.0"}}, {"uniqueid": "w77270904:a60167208", "current_trial": 183, "dateTime": 1664555177036, "trialdata": {"rt": 1273, "stimulus": "<p id='stroop-text' class='stroop-blue'>GREEN</p>", "response": "b", "stimulus-type": "incongruent", "word": "green", "color": "blue", "correct_response": "b", "trial_id": "stroop-trial-1-incongruent-22", "trial_type": "html-keyboard-response", "trial_index": 183, "time_elapsed": 338886, "internal_node_id": "0.0-6.0-88.0"}}, {"uniqueid": "w77270904:a60167208", "current_trial": 184, "dateTime": 1664555178036, "trialdata": {"rt": 494, "stimulus": "<p id='stroop-text' class='stroop-yellow'>BRIDGE</p>", "response": "y", "stimulus-type": "unrelated", "word": "BRIDGE", "color": "yellow", "correct_response": "y", "trial_id": "stroop-trial-1-unrelated-29", "trial_type": "html-keyboard-response", "trial_index": 184, "time_elapsed": 339886, "internal_node_id": "0.0-6.0-89.0"}}, {"uniqueid": "w77270904:a60167208", "current_trial": 185, "dateTime": 1664555180219, "trialdata": {"rt": 1680, "stimulus": "  <h1> End of block! </h1>\n\n  You have reached the end of the block 2/5. If you need a short break, feel free to take one now before moving on.\n\n  <br><br>\n  In the next block, you will complete another 90 rounds of this game.\n\n  <br><br>\n  <div style='text-align: center;'>Press <code>space</code> to begin.</div>\n  <br><br>\n<div style='text-align: center;'>(If the experiment doesn't continue, try clicking on the text and then pressing <code>space</code>.)</div>", "response": " ", "trial_id": "stroop_1_ready_3", "trial_type": "html-keyboard-response", "trial_index": 185, "time_elapsed": 342070, "internal_node_id": "0.0-7.0"}}, {"uniqueid": "w77270904:a60167208", "current_trial": 186, "dateTime": 1664555181404, "trialdata": {"rt": 1182, "stimulus": "<p id='stroop-text' class='stroop-yellow'>RED</p>", "response": "y", "stimulus-type": "incongruent", "word": "red", "color": "yellow", "correct_response": "y", "trial_id": "stroop-trial-1-incongruent-17", "trial_type": "html-keyboard-response", "trial_index": 186, "time_elapsed": 343254, "internal_node_id": "0.0-8.0-0.0"}}, {"uniqueid": "w77270904:a60167208", "current_trial": 187, "dateTime": 1664555182500, "trialdata": {"rt": 593, "stimulus": "<p id='stroop-text' class='stroop-red'>RED</p>", "response": "r", "stimulus-type": "congruent", "word": "red", "color": "red", "correct_response": "r", "trial_id": "stroop-trial-1-congruent-15", "trial_type": "html-keyboard-response", "trial_index": 187, "time_elapsed": 344351, "internal_node_id": "0.0-8.0-1.0"}}, {"uniqueid": "w77270904:a60167208", "current_trial": 188, "dateTime": 1664555183588, "trialdata": {"rt": 585, "stimulus": "<p id='stroop-text' class='stroop-red'>BOAT</p>", "response": "r", "stimulus-type": "unrelated", "word": "BOAT", "color": "red", "correct_response": "r", "trial_id": "stroop-trial-1-unrelated-9", "trial_type": "html-keyboard-response", "trial_index": 188, "time_elapsed": 345438, "internal_node_id": "0.0-8.0-2.0"}}, {"uniqueid": "w77270904:a60167208", "current_trial": 189, "dateTime": 1664555184764, "trialdata": {"rt": 673, "stimulus": "<p id='stroop-text' class='stroop-green'>GREEN</p>", "response": "g", "stimulus-type": "congruent", "word": "green", "color": "green", "correct_response": "g", "trial_id": "stroop-trial-1-congruent-30", "trial_type": "html-keyboard-response", "trial_index": 189, "time_elapsed": 346615, "internal_node_id": "0.0-8.0-3.0"}}, {"uniqueid": "w77270904:a60167208", "current_trial": 190, "dateTime": 1664555185916, "trialdata": {"rt": 647, "stimulus": "<p id='stroop-text' class='stroop-green'>GREEN</p>", "response": "g", "stimulus-type": "congruent", "word": "green", "color": "green", "correct_response": "g", "trial_id": "stroop-trial-1-congruent-11", "trial_type": "html-keyboard-response", "trial_index": 190, "time_elapsed": 347766, "internal_node_id": "0.0-8.0-4.0"}}, {"uniqueid": "w77270904:a60167208", "current_trial": 191, "dateTime": 1664555186828, "trialdata": {"rt": 408, "stimulus": "<p id='stroop-text' class='stroop-green'>GREEN</p>", "response": "g", "stimulus-type": "congruent", "word": "green", "color": "green", "correct_response": "g", "trial_id": "stroop-trial-1-congruent-24", "trial_type": "html-keyboard-response", "trial_index": 191, "time_elapsed": 348679, "internal_node_id": "0.0-8.0-5.0"}}, {"uniqueid": "w77270904:a60167208", "current_trial": 192, "dateTime": 1664555187820, "trialdata": {"rt": 489, "stimulus": "<p id='stroop-text' class='stroop-green'>BRIDGE</p>", "response": "g", "stimulus-type": "unrelated", "word": "BRIDGE", "color": "green", "correct_response": "g", "trial_id": "stroop-trial-1-unrelated-23", "trial_type": "html-keyboard-response", "trial_index": 192, "time_elapsed": 349671, "internal_node_id": "0.0-8.0-6.0"}}, {"uniqueid": "w77270904:a60167208", "current_trial": 193, "dateTime": 1664555188836, "trialdata": {"rt": 513, "stimulus": "<p id='stroop-text' class='stroop-blue'>BLUE</p>", "response": "b", "stimulus-type": "congruent", "word": "blue", "color": "blue", "correct_response": "b", "trial_id": "stroop-trial-1-congruent-29", "trial_type": "html-keyboard-response", "trial_index": 193, "time_elapsed": 350687, "internal_node_id": "0.0-8.0-7.0"}}, {"uniqueid": "w77270904:a60167208", "current_trial": 194, "dateTime": 1664555189804, "trialdata": {"rt": 465, "stimulus": "<p id='stroop-text' class='stroop-blue'>CHAIR</p>", "response": "b", "stimulus-type": "unrelated", "word": "CHAIR", "color": "blue", "correct_response": "b", "trial_id": "stroop-trial-1-unrelated-3", "trial_type": "html-keyboard-response", "trial_index": 194, "time_elapsed": 351655, "internal_node_id": "0.0-8.0-8.0"}}, {"uniqueid": "w77270904:a60167208", "current_trial": 195, "dateTime": 1664555190796, "trialdata": {"rt": 488, "stimulus": "<p id='stroop-text' class='stroop-yellow'>YELLOW</p>", "response": "y", "stimulus-type": "congruent", "word": "yellow", "color": "yellow", "correct_response": "y", "trial_id": "stroop-trial-1-congruent-13", "trial_type": "html-keyboard-response", "trial_index": 195, "time_elapsed": 352647, "internal_node_id": "0.0-8.0-9.0"}}, {"uniqueid": "w77270904:a60167208", "current_trial": 196, "dateTime": 1664555192108, "trialdata": {"rt": 807, "stimulus": "<p id='stroop-text' class='stroop-green'>YELLOW</p>", "response": "g", "stimulus-type": "incongruent", "word": "yellow", "color": "green", "correct_response": "g", "trial_id": "stroop-trial-1-incongruent-29", "trial_type": "html-keyboard-response", "trial_index": 196, "time_elapsed": 353959, "internal_node_id": "0.0-8.0-10.0"}}, {"uniqueid": "w77270904:a60167208", "current_trial": 197, "dateTime": 1664555193476, "trialdata": {"rt": 864, "stimulus": "<p id='stroop-text' class='stroop-blue'>RED</p>", "response": "b", "stimulus-type": "incongruent", "word": "red", "color": "blue", "correct_response": "b", "trial_id": "stroop-trial-1-incongruent-13", "trial_type": "html-keyboard-response", "trial_index": 197, "time_elapsed": 355327, "internal_node_id": "0.0-8.0-11.0"}}, {"uniqueid": "w77270904:a60167208", "current_trial": 198, "dateTime": 1664555194397, "trialdata": {"rt": 416, "stimulus": "<p id='stroop-text' class='stroop-yellow'>YELLOW</p>", "response": "y", "stimulus-type": "congruent", "word": "yellow", "color": "yellow", "correct_response": "y", "trial_id": "stroop-trial-1-congruent-26", "trial_type": "html-keyboard-response", "trial_index": 198, "time_elapsed": 356247, "internal_node_id": "0.0-8.0-12.0"}}, {"uniqueid": "w77270904:a60167208", "current_trial": 199, "dateTime": 1664555195476, "trialdata": {"rt": 576, "stimulus": "<p id='stroop-text' class='stroop-red'>RED</p>", "response": "r", "stimulus-type": "congruent", "word": "red", "color": "red", "correct_response": "r", "trial_id": "stroop-trial-1-congruent-28", "trial_type": "html-keyboard-response", "trial_index": 199, "time_elapsed": 357327, "internal_node_id": "0.0-8.0-13.0"}}, {"uniqueid": "w77270904:a60167208", "current_trial": 200, "dateTime": 1664555196484, "trialdata": {"rt": 502, "stimulus": "<p id='stroop-text' class='stroop-red'>RED</p>", "response": "r", "stimulus-type": "congruent", "word": "red", "color": "red", "correct_response": "r", "trial_id": "stroop-trial-1-congruent-2", "trial_type": "html-keyboard-response", "trial_index": 200, "time_elapsed": 358335, "internal_node_id": "0.0-8.0-14.0"}}, {"uniqueid": "w77270904:a60167208", "current_trial": 201, "dateTime": 1664555197628, "trialdata": {"rt": 641, "stimulus": "<p id='stroop-text' class='stroop-green'>FORK</p>", "response": "g", "stimulus-type": "unrelated", "word": "FORK", "color": "green", "correct_response": "g", "trial_id": "stroop-trial-1-unrelated-10", "trial_type": "html-keyboard-response", "trial_index": 201, "time_elapsed": 359479, "internal_node_id": "0.0-8.0-15.0"}}, {"uniqueid": "w77270904:a60167208", "current_trial": 202, "dateTime": 1664555198604, "trialdata": {"rt": 474, "stimulus": "<p id='stroop-text' class='stroop-green'>BRAIN</p>", "response": "g", "stimulus-type": "unrelated", "word": "BRAIN", "color": "green", "correct_response": "g", "trial_id": "stroop-trial-1-unrelated-7", "trial_type": "html-keyboard-response", "trial_index": 202, "time_elapsed": 360455, "internal_node_id": "0.0-8.0-16.0"}}, {"uniqueid": "w77270904:a60167208", "current_trial": 203, "dateTime": 1664555200117, "trialdata": {"rt": 1005, "stimulus": "<p id='stroop-text' class='stroop-yellow'>CHAIR</p>", "response": "y", "stimulus-type": "unrelated", "word": "CHAIR", "color": "yellow", "correct_response": "y", "trial_id": "stroop-trial-1-unrelated-20", "trial_type": "html-keyboard-response", "trial_index": 203, "time_elapsed": 361967, "internal_node_id": "0.0-8.0-17.0"}}, {"uniqueid": "w77270904:a60167208", "current_trial": 204, "dateTime": 1664555201037, "trialdata": {"rt": 416, "stimulus": "<p id='stroop-text' class='stroop-yellow'>BOAT</p>", "response": "y", "stimulus-type": "unrelated", "word": "BOAT", "color": "yellow", "correct_response": "y", "trial_id": "stroop-trial-1-unrelated-19", "trial_type": "html-keyboard-response", "trial_index": 204, "time_elapsed": 362888, "internal_node_id": "0.0-8.0-18.0"}}, {"uniqueid": "w77270904:a60167208", "current_trial": 205, "dateTime": 1664555201964, "trialdata": {"rt": 423, "stimulus": "<p id='stroop-text' class='stroop-yellow'>RED</p>", "response": "y", "stimulus-type": "incongruent", "word": "red", "color": "yellow", "correct_response": "y", "trial_id": "stroop-trial-1-incongruent-6", "trial_type": "html-keyboard-response", "trial_index": 205, "time_elapsed": 363815, "internal_node_id": "0.0-8.0-19.0"}}, {"uniqueid": "w77270904:a60167208", "current_trial": 206, "dateTime": 1664555202917, "trialdata": {"rt": 450, "stimulus": "<p id='stroop-text' class='stroop-yellow'>BRIDGE</p>", "response": "y", "stimulus-type": "unrelated", "word": "BRIDGE", "color": "yellow", "correct_response": "y", "trial_id": "stroop-trial-1-unrelated-8", "trial_type": "html-keyboard-response", "trial_index": 206, "time_elapsed": 364768, "internal_node_id": "0.0-8.0-20.0"}}, {"uniqueid": "w77270904:a60167208", "current_trial": 207, "dateTime": 1664555203885, "trialdata": {"rt": 463, "stimulus": "<p id='stroop-text' class='stroop-blue'>BLUE</p>", "response": "b", "stimulus-type": "congruent", "word": "blue", "color": "blue", "correct_response": "b", "trial_id": "stroop-trial-1-congruent-4", "trial_type": "html-keyboard-response", "trial_index": 207, "time_elapsed": 365735, "internal_node_id": "0.0-8.0-21.0"}}, {"uniqueid": "w77270904:a60167208", "current_trial": 208, "dateTime": 1664555205045, "trialdata": {"rt": 657, "stimulus": "<p id='stroop-text' class='stroop-green'>YELLOW</p>", "response": "g", "stimulus-type": "incongruent", "word": "yellow", "color": "green", "correct_response": "g", "trial_id": "stroop-trial-1-incongruent-8", "trial_type": "html-keyboard-response", "trial_index": 208, "time_elapsed": 366895, "internal_node_id": "0.0-8.0-22.0"}}, {"uniqueid": "w77270904:a60167208", "current_trial": 209, "dateTime": 1664555205956, "trialdata": {"rt": 409, "stimulus": "<p id='stroop-text' class='stroop-green'>GREEN</p>", "response": "g", "stimulus-type": "congruent", "word": "green", "color": "green", "correct_response": "g", "trial_id": "stroop-trial-1-congruent-9", "trial_type": "html-keyboard-response", "trial_index": 209, "time_elapsed": 367807, "internal_node_id": "0.0-8.0-23.0"}}, {"uniqueid": "w77270904:a60167208", "current_trial": 210, "dateTime": 1664555207013, "trialdata": {"rt": 554, "stimulus": "<p id='stroop-text' class='stroop-yellow'>BOTTLE</p>", "response": "y", "stimulus-type": "unrelated", "word": "BOTTLE", "color": "yellow", "correct_response": "y", "trial_id": "stroop-trial-1-unrelated-17", "trial_type": "html-keyboard-response", "trial_index": 210, "time_elapsed": 368863, "internal_node_id": "0.0-8.0-24.0"}}, {"uniqueid": "w77270904:a60167208", "current_trial": 211, "dateTime": 1664555208253, "trialdata": {"rt": 737, "stimulus": "<p id='stroop-text' class='stroop-yellow'>GREEN</p>", "response": "y", "stimulus-type": "incongruent", "word": "green", "color": "yellow", "correct_response": "y", "trial_id": "stroop-trial-1-incongruent-15", "trial_type": "html-keyboard-response", "trial_index": 211, "time_elapsed": 370103, "internal_node_id": "0.0-8.0-25.0"}}, {"uniqueid": "w77270904:a60167208", "current_trial": 212, "dateTime": 1664555209365, "trialdata": {"rt": 609, "stimulus": "<p id='stroop-text' class='stroop-blue'>BLUE</p>", "response": "b", "stimulus-type": "congruent", "word": "blue", "color": "blue", "correct_response": "b", "trial_id": "stroop-trial-1-congruent-23", "trial_type": "html-keyboard-response", "trial_index": 212, "time_elapsed": 371216, "internal_node_id": "0.0-8.0-26.0"}}, {"uniqueid": "w77270904:a60167208", "current_trial": 213, "dateTime": 1664555210437, "trialdata": {"rt": 569, "stimulus": "<p id='stroop-text' class='stroop-red'>RED</p>", "response": "r", "stimulus-type": "congruent", "word": "red", "color": "red", "correct_response": "r", "trial_id": "stroop-trial-1-congruent-10", "trial_type": "html-keyboard-response", "trial_index": 213, "time_elapsed": 372288, "internal_node_id": "0.0-8.0-27.0"}}, {"uniqueid": "w77270904:a60167208", "current_trial": 214, "dateTime": 1664555211581, "trialdata": {"rt": 641, "stimulus": "<p id='stroop-text' class='stroop-yellow'>BLUE</p>", "response": "y", "stimulus-type": "incongruent", "word": "blue", "color": "yellow", "correct_response": "y", "trial_id": "stroop-trial-1-incongruent-12", "trial_type": "html-keyboard-response", "trial_index": 214, "time_elapsed": 373432, "internal_node_id": "0.0-8.0-28.0"}}, {"uniqueid": "w77270904:a60167208", "current_trial": 215, "dateTime": 1664555212805, "trialdata": {"rt": 717, "stimulus": "<p id='stroop-text' class='stroop-blue'>BLUE</p>", "response": "b", "stimulus-type": "congruent", "word": "blue", "color": "blue", "correct_response": "b", "trial_id": "stroop-trial-1-congruent-16", "trial_type": "html-keyboard-response", "trial_index": 215, "time_elapsed": 374656, "internal_node_id": "0.0-8.0-29.0"}}, {"uniqueid": "w77270904:a60167208", "current_trial": 216, "dateTime": 1664555213925, "trialdata": {"rt": 615, "stimulus": "<p id='stroop-text' class='stroop-red'>BRAIN</p>", "response": "r", "stimulus-type": "unrelated", "word": "BRAIN", "color": "red", "correct_response": "r", "trial_id": "stroop-trial-1-unrelated-22", "trial_type": "html-keyboard-response", "trial_index": 216, "time_elapsed": 375776, "internal_node_id": "0.0-8.0-30.0"}}, {"uniqueid": "w77270904:a60167208", "current_trial": 217, "dateTime": 1664555215062, "trialdata": {"rt": 633, "stimulus": "<p id='stroop-text' class='stroop-blue'>BLUE</p>", "response": "b", "stimulus-type": "congruent", "word": "blue", "color": "blue", "correct_response": "b", "trial_id": "stroop-trial-1-congruent-25", "trial_type": "html-keyboard-response", "trial_index": 217, "time_elapsed": 376912, "internal_node_id": "0.0-8.0-31.0"}}, {"uniqueid": "w77270904:a60167208", "current_trial": 218, "dateTime": 1664555216142, "trialdata": {"rt": 577, "stimulus": "<p id='stroop-text' class='stroop-yellow'>BRIDGE</p>", "response": "y", "stimulus-type": "unrelated", "word": "BRIDGE", "color": "yellow", "correct_response": "y", "trial_id": "stroop-trial-1-unrelated-27", "trial_type": "html-keyboard-response", "trial_index": 218, "time_elapsed": 377992, "internal_node_id": "0.0-8.0-32.0"}}, {"uniqueid": "w77270904:a60167208", "current_trial": 219, "dateTime": 1664555217117, "trialdata": {"rt": 471, "stimulus": "<p id='stroop-text' class='stroop-red'>RED</p>", "response": "r", "stimulus-type": "congruent", "word": "red", "color": "red", "correct_response": "r", "trial_id": "stroop-trial-1-congruent-3", "trial_type": "html-keyboard-response", "trial_index": 219, "time_elapsed": 378968, "internal_node_id": "0.0-8.0-33.0"}}, {"uniqueid": "w77270904:a60167208", "current_trial": 220, "dateTime": 1664555218581, "trialdata": {"rt": 962, "stimulus": "<p id='stroop-text' class='stroop-green'>BRIDGE</p>", "response": "g", "stimulus-type": "unrelated", "word": "BRIDGE", "color": "green", "correct_response": "g", "trial_id": "stroop-trial-1-unrelated-11", "trial_type": "html-keyboard-response", "trial_index": 220, "time_elapsed": 380432, "internal_node_id": "0.0-8.0-34.0"}}, {"uniqueid": "w77270904:a60167208", "current_trial": 221, "dateTime": 1664555219861, "trialdata": {"rt": 775, "stimulus": "<p id='stroop-text' class='stroop-red'>BRAIN</p>", "response": "r", "stimulus-type": "unrelated", "word": "BRAIN", "color": "red", "correct_response": "r", "trial_id": "stroop-trial-1-unrelated-2", "trial_type": "html-keyboard-response", "trial_index": 221, "time_elapsed": 381712, "internal_node_id": "0.0-8.0-35.0"}}, {"uniqueid": "w77270904:a60167208", "current_trial": 222, "dateTime": 1664555221150, "trialdata": {"rt": 784, "stimulus": "<p id='stroop-text' class='stroop-green'>GREEN</p>", "response": "g", "stimulus-type": "congruent", "word": "green", "color": "green", "correct_response": "g", "trial_id": "stroop-trial-1-congruent-8", "trial_type": "html-keyboard-response", "tria