{"condition": 0, "counterbalance": 0, "assignmentId": "a78502938", "workerId": "w99438415", "hitId": "h52056408", "currenttrial": 959, "bonus": 0, "data": [{"uniqueid": "w99438415:a78502938", "current_trial": 0, "dateTime": 1664873281441, "trialdata": {"success": true, "trial_type": "fullscreen", "trial_index": 0, "time_elapsed": 4182, "internal_node_id": "0.0-0.0"}}, {"uniqueid": "w99438415:a78502938", "current_trial": 1, "dateTime": 1664873307437, "trialdata": {"view_history": [{"page_index": 0, "viewing_time": 25983}], "rt": 25984, "trial_id": "exp_instructions_distractor", "trial_type": "instructions", "trial_index": 1, "time_elapsed": 30180, "internal_node_id": "0.0-1.0"}}, {"uniqueid": "w99438415:a78502938", "current_trial": 2, "dateTime": 1664873370448, "trialdata": {"view_history": [{"page_index": 0, "viewing_time": 63009}], "rt": 63009, "trial_id": "color_game_instructions", "trial_type": "instructions", "trial_index": 2, "time_elapsed": 93191, "internal_node_id": "0.0-2.0"}}, {"uniqueid": "w99438415:a78502938", "current_trial": 3, "dateTime": 1664873388765, "trialdata": {"rt": 18315, "stimulus": "<h1> Get ready to start the game! </h1>\n\nThank you for reading the instructions. Get ready start with the first of 5 block(s) of this game.\n<br><br>\nIn this first block, you will complete 90 rounds of this game before moving on.\n<br><br>\nRemember, the better you perform, the bigger your bonus will be!\n<br><br>\n<div style='text-align: center;'>Press <code>space</code> to begin.</div>", "response": " ", "trial_id": "stroop_1_ready_1", "trial_type": "html-keyboard-response", "trial_index": 3, "time_elapsed": 111508, "internal_node_id": "0.0-3.0"}}, {"uniqueid": "w99438415:a78502938", "current_trial": 4, "dateTime": 1664873390189, "trialdata": {"rt": 1385, "stimulus": "<p id='stroop-text' class='stroop-green'>GREEN</p>", "response": "g", "stimulus-type": "congruent", "word": "green", "color": "green", "correct_response": "g", "trial_id": "stroop-trial-1-congruent-9", "trial_type": "html-keyboard-response", "trial_index": 4, "time_elapsed": 112931, "internal_node_id": "0.0-4.0-0.0"}}, {"uniqueid": "w99438415:a78502938", "current_trial": 5, "dateTime": 1664873391683, "trialdata": {"rt": 990, "stimulus": "<p id='stroop-text' class='stroop-blue'>BLUE</p>", "response": "b", "stimulus-type": "congruent", "word": "blue", "color": "blue", "correct_response": "b", "trial_id": "stroop-trial-1-congruent-25", "trial_type": "html-keyboard-response", "trial_index": 5, "time_elapsed": 114425, "internal_node_id": "0.0-4.0-1.0"}}, {"uniqueid": "w99438415:a78502938", "current_trial": 6, "dateTime": 1664873393056, "trialdata": {"rt": 868, "stimulus": "<p id='stroop-text' class='stroop-red'>RED</p>", "response": "r", "stimulus-type": "congruent", "word": "red", "color": "red", "correct_response": "r", "trial_id": "stroop-trial-1-congruent-5", "trial_type": "html-keyboard-response", "trial_index": 6, "time_elapsed": 115798, "internal_node_id": "0.0-4.0-2.0"}}, {"uniqueid": "w99438415:a78502938", "current_trial": 7, "dateTime": 1664873394913, "trialdata": {"rt": 1353, "stimulus": "<p id='stroop-text' class='stroop-yellow'>SHIP</p>", "response": "y", "stimulus-type": "unrelated", "word": "SHIP", "color": "yellow", "correct_response": "y", "trial_id": "stroop-trial-1-unrelated-18", "trial_type": "html-keyboard-response", "trial_index": 7, "time_elapsed": 117655, "internal_node_id": "0.0-4.0-3.0"}}, {"uniqueid": "w99438415:a78502938", "current_trial": 8, "dateTime": 1664873396379, "trialdata": {"rt": 963, "stimulus": "<p id='stroop-text' class='stroop-yellow'>DOG</p>", "response": "y", "stimulus-type": "unrelated", "word": "DOG", "color": "yellow", "correct_response": "y", "trial_id": "stroop-trial-1-unrelated-3", "trial_type": "html-keyboard-response", "trial_index": 8, "time_elapsed": 119121, "internal_node_id": "0.0-4.0-4.0"}}, {"uniqueid": "w99438415:a78502938", "current_trial": 9, "dateTime": 1664873397584, "trialdata": {"rt": 701, "stimulus": "<p id='stroop-text' class='stroop-yellow'>FORK</p>", "response": "y", "stimulus-type": "unrelated", "word": "FORK", "color": "yellow", "correct_response": "y", "trial_id": "stroop-trial-1-unrelated-1", "trial_type": "html-keyboard-response", "trial_index": 9, "time_elapsed": 120326, "internal_node_id": "0.0-4.0-5.0"}}, {"uniqueid": "w99438415:a78502938", "current_trial": 10, "dateTime": 1664873399090, "trialdata": {"rt": 1002, "stimulus": "<p id='stroop-text' class='stroop-blue'>DOG</p>", "response": "b", "stimulus-type": "unrelated", "word": "DOG", "color": "blue", "correct_response": "b", "trial_id": "stroop-trial-1-unrelated-19", "trial_type": "html-keyboard-response", "trial_index": 10, "time_elapsed": 121833, "internal_node_id": "0.0-4.0-6.0"}}, {"uniqueid": "w99438415:a78502938", "current_trial": 11, "dateTime": 1664873400506, "trialdata": {"rt": 912, "stimulus": "<p id='stroop-text' class='stroop-green'>GREEN</p>", "response": "g", "stimulus-type": "congruent", "word": "green", "color": "green", "correct_response": "g", "trial_id": "stroop-trial-1-congruent-1", "trial_type": "html-keyboard-response", "trial_index": 11, "time_elapsed": 123249, "internal_node_id": "0.0-4.0-7.0"}}, {"uniqueid": "w99438415:a78502938", "current_trial": 12, "dateTime": 1664873401824, "trialdata": {"rt": 814, "stimulus": "<p id='stroop-text' class='stroop-yellow'>YELLOW</p>", "response": "y", "stimulus-type": "congruent", "word": "yellow", "color": "yellow", "correct_response": "y", "trial_id": "stroop-trial-1-congruent-13", "trial_type": "html-keyboard-response", "trial_index": 12, "time_elapsed": 124567, "internal_node_id": "0.0-4.0-8.0"}}, {"uniqueid": "w99438415:a78502938", "current_trial": 13, "dateTime": 1664873403161, "trialdata": {"rt": 834, "stimulus": "<p id='stroop-text' class='stroop-yellow'>CHAIR</p>", "response": "y", "stimulus-type": "unrelated", "word": "CHAIR", "color": "yellow", "correct_response": "y", "trial_id": "stroop-trial-1-unrelated-11", "trial_type": "html-keyboard-response", "trial_index": 13, "time_elapsed": 125903, "internal_node_id": "0.0-4.0-9.0"}}, {"uniqueid": "w99438415:a78502938", "current_trial": 14, "dateTime": 1664873404689, "trialdata": {"rt": 1024, "stimulus": "<p id='stroop-text' class='stroop-green'>FORK</p>", "response": "g", "stimulus-type": "unrelated", "word": "FORK", "color": "green", "correct_response": "g", "trial_id": "stroop-trial-1-unrelated-2", "trial_type": "html-keyboard-response", "trial_index": 14, "time_elapsed": 127432, "internal_node_id": "0.0-4.0-10.0"}}, {"uniqueid": "w99438415:a78502938", "current_trial": 15, "dateTime": 1664873405970, "trialdata": {"rt": 777, "stimulus": "<p id='stroop-text' class='stroop-red'>RED</p>", "response": "r", "stimulus-type": "congruent", "word": "red", "color": "red", "correct_response": "r", "trial_id": "stroop-trial-1-congruent-17", "trial_type": "html-keyboard-response", "trial_index": 15, "time_elapsed": 128712, "internal_node_id": "0.0-4.0-11.0"}}, {"uniqueid": "w99438415:a78502938", "current_trial": 16, "dateTime": 1664873407916, "trialdata": {"rt": 1444, "stimulus": "<p id='stroop-text' class='stroop-green'>BOTTLE</p>", "response": "g", "stimulus-type": "unrelated", "word": "BOTTLE", "color": "green", "correct_response": "g", "trial_id": "stroop-trial-1-unrelated-20", "trial_type": "html-keyboard-response", "trial_index": 16, "time_elapsed": 130659, "internal_node_id": "0.0-4.0-12.0"}}, {"uniqueid": "w99438415:a78502938", "current_trial": 17, "dateTime": 1664873409378, "trialdata": {"rt": 958, "stimulus": "<p id='stroop-text' class='stroop-yellow'>YELLOW</p>", "response": "y", "stimulus-type": "congruent", "word": "yellow", "color": "yellow", "correct_response": "y", "trial_id": "stroop-trial-1-congruent-10", "trial_type": "html-keyboard-response", "trial_index": 17, "time_elapsed": 132121, "internal_node_id": "0.0-4.0-13.0"}}, {"uniqueid": "w99438415:a78502938", "current_trial": 18, "dateTime": 1664873410690, "trialdata": {"rt": 808, "stimulus": "<p id='stroop-text' class='stroop-green'>GREEN</p>", "response": "g", "stimulus-type": "congruent", "word": "green", "color": "green", "correct_response": "g", "trial_id": "stroop-trial-1-congruent-18", "trial_type": "html-keyboard-response", "trial_index": 18, "time_elapsed": 133433, "internal_node_id": "0.0-4.0-14.0"}}, {"uniqueid": "w99438415:a78502938", "current_trial": 19, "dateTime": 1664873412258, "trialdata": {"rt": 1064, "stimulus": "<p id='stroop-text' class='stroop-red'>GREEN</p>", "response": "r", "stimulus-type": "incongruent", "word": "green", "color": "red", "correct_response": "r", "trial_id": "stroop-trial-1-incongruent-17", "trial_type": "html-keyboard-response", "trial_index": 19, "time_elapsed": 135001, "internal_node_id": "0.0-4.0-15.0"}}, {"uniqueid": "w99438415:a78502938", "current_trial": 20, "dateTime": 1664873413486, "trialdata": {"rt": 721, "stimulus": "<p id='stroop-text' class='stroop-blue'>STONE</p>", "response": "b", "stimulus-type": "unrelated", "word": "STONE", "color": "blue", "correct_response": "b", "trial_id": "stroop-trial-1-unrelated-26", "trial_type": "html-keyboard-response", "trial_index": 20, "time_elapsed": 136229, "internal_node_id": "0.0-4.0-16.0"}}, {"uniqueid": "w99438415:a78502938", "current_trial": 21, "dateTime": 1664873414684, "trialdata": {"rt": 693, "stimulus": "<p id='stroop-text' class='stroop-red'>BLUE</p>", "response": "r", "stimulus-type": "incongruent", "word": "blue", "color": "red", "correct_response": "r", "trial_id": "stroop-trial-1-incongruent-10", "trial_type": "html-keyboard-response", "trial_index": 21, "time_elapsed": 137426, "internal_node_id": "0.0-4.0-17.0"}}, {"uniqueid": "w99438415:a78502938", "current_trial": 22, "dateTime": 1664873416014, "trialdata": {"rt": 827, "stimulus": "<p id='stroop-text' class='stroop-blue'>STONE</p>", "response": "b", "stimulus-type": "unrelated", "word": "STONE", "color": "blue", "correct_response": "b", "trial_id": "stroop-trial-1-unrelated-5", "trial_type": "html-keyboard-response", "trial_index": 22, "time_elapsed": 138756, "internal_node_id": "0.0-4.0-18.0"}}, {"uniqueid": "w99438415:a78502938", "current_trial": 23, "dateTime": 1664873417332, "trialdata": {"rt": 814, "stimulus": "<p id='stroop-text' class='stroop-yellow'>BOAT</p>", "response": "y", "stimulus-type": "unrelated", "word": "BOAT", "color": "yellow", "correct_response": "y", "trial_id": "stroop-trial-1-unrelated-25", "trial_type": "html-keyboard-response", "trial_index": 23, "time_elapsed": 140074, "internal_node_id": "0.0-4.0-19.0"}}, {"uniqueid": "w99438415:a78502938", "current_trial": 24, "dateTime": 1664873418770, "trialdata": {"rt": 934, "stimulus": "<p id='stroop-text' class='stroop-red'>BLUE</p>", "response": "r", "stimulus-type": "incongruent", "word": "blue", "color": "red", "correct_response": "r", "trial_id": "stroop-trial-1-incongruent-11", "trial_type": "html-keyboard-response", "trial_index": 24, "time_elapsed": 141512, "internal_node_id": "0.0-4.0-20.0"}}, {"uniqueid": "w99438415:a78502938", "current_trial": 25, "dateTime": 1664873420055, "trialdata": {"rt": 781, "stimulus": "<p id='stroop-text' class='stroop-yellow'>YELLOW</p>", "response": "y", "stimulus-type": "congruent", "word": "yellow", "color": "yellow", "correct_response": "y", "trial_id": "stroop-trial-1-congruent-23", "trial_type": "html-keyboard-response", "trial_index": 25, "time_elapsed": 142797, "internal_node_id": "0.0-4.0-21.0"}}, {"uniqueid": "w99438415:a78502938", "current_trial": 26, "dateTime": 1664873421474, "trialdata": {"rt": 915, "stimulus": "<p id='stroop-text' class='stroop-red'>BRAIN</p>", "response": "r", "stimulus-type": "unrelated", "word": "BRAIN", "color": "red", "correct_response": "r", "trial_id": "stroop-trial-1-unrelated-9", "trial_type": "html-keyboard-response", "trial_index": 26, "time_elapsed": 144217, "internal_node_id": "0.0-4.0-22.0"}}, {"uniqueid": "w99438415:a78502938", "current_trial": 27, "dateTime": 1664873422803, "trialdata": {"rt": 823, "stimulus": "<p id='stroop-text' class='stroop-green'>GREEN</p>", "response": "g", "stimulus-type": "congruent", "word": "green", "color": "green", "correct_response": "g", "trial_id": "stroop-trial-1-congruent-21", "trial_type": "html-keyboard-response", "trial_index": 27, "time_elapsed": 145545, "internal_node_id": "0.0-4.0-23.0"}}, {"uniqueid": "w99438415:a78502938", "current_trial": 28, "dateTime": 1664873424420, "trialdata": {"rt": 1113, "stimulus": "<p id='stroop-text' class='stroop-yellow'>RED</p>", "response": "y", "stimulus-type": "incongruent", "word": "red", "color": "yellow", "correct_response": "y", "trial_id": "stroop-trial-1-incongruent-19", "trial_type": "html-keyboard-response", "trial_index": 28, "time_elapsed": 147162, "internal_node_id": "0.0-4.0-24.0"}}, {"uniqueid": "w99438415:a78502938", "current_trial": 29, "dateTime": 1664873425763, "trialdata": {"rt": 840, "stimulus": "<p id='stroop-text' class='stroop-green'>GREEN</p>", "response": "g", "stimulus-type": "congruent", "word": "green", "color": "green", "correct_response": "g", "trial_id": "stroop-trial-1-congruent-30", "trial_type": "html-keyboard-response", "trial_index": 29, "time_elapsed": 148505, "internal_node_id": "0.0-4.0-25.0"}}, {"uniqueid": "w99438415:a78502938", "current_trial": 30, "dateTime": 1664873427103, "trialdata": {"rt": 837, "stimulus": "<p id='stroop-text' class='stroop-blue'>BLUE</p>", "response": "b", "stimulus-type": "congruent", "word": "blue", "color": "blue", "correct_response": "b", "trial_id": "stroop-trial-1-congruent-6", "trial_type": "html-keyboard-response", "trial_index": 30, "time_elapsed": 149845, "internal_node_id": "0.0-4.0-26.0"}}, {"uniqueid": "w99438415:a78502938", "current_trial": 31, "dateTime": 1664873428784, "trialdata": {"rt": 1176, "stimulus": "<p id='stroop-text' class='stroop-red'>STONE</p>", "response": "r", "stimulus-type": "unrelated", "word": "STONE", "color": "red", "correct_response": "r", "trial_id": "stroop-trial-1-unrelated-4", "trial_type": "html-keyboard-response", "trial_index": 31, "time_elapsed": 151526, "internal_node_id": "0.0-4.0-27.0"}}, {"uniqueid": "w99438415:a78502938", "current_trial": 32, "dateTime": 1664873430147, "trialdata": {"rt": 858, "stimulus": "<p id='stroop-text' class='stroop-blue'>BLUE</p>", "response": "b", "stimulus-type": "congruent", "word": "blue", "color": "blue", "correct_response": "b", "trial_id": "stroop-trial-1-congruent-16", "trial_type": "html-keyboard-response", "trial_index": 32, "time_elapsed": 152889, "internal_node_id": "0.0-4.0-28.0"}}, {"uniqueid": "w99438415:a78502938", "current_trial": 33, "dateTime": 1664873431372, "trialdata": {"rt": 721, "stimulus": "<p id='stroop-text' class='stroop-blue'>GREEN</p>", "response": "b", "stimulus-type": "incongruent", "word": "green", "color": "blue", "correct_response": "b", "trial_id": "stroop-trial-1-incongruent-23", "trial_type": "html-keyboard-response", "trial_index": 33, "time_elapsed": 154114, "internal_node_id": "0.0-4.0-29.0"}}, {"uniqueid": "w99438415:a78502938", "current_trial": 34, "dateTime": 1664873432866, "trialdata": {"rt": 990, "stimulus": "<p id='stroop-text' class='stroop-blue'>GREEN</p>", "response": "b", "stimulus-type": "incongruent", "word": "green", "color": "blue", "correct_response": "b", "trial_id": "stroop-trial-1-incongruent-14", "trial_type": "html-keyboard-response", "trial_index": 34, "time_elapsed": 155609, "internal_node_id": "0.0-4.0-30.0"}}, {"uniqueid": "w99438415:a78502938", "current_trial": 35, "dateTime": 1664873434129, "trialdata": {"rt": 758, "stimulus": "<p id='stroop-text' class='stroop-yellow'>BOAT</p>", "response": "y", "stimulus-type": "unrelated", "word": "BOAT", "color": "yellow", "correct_response": "y", "trial_id": "stroop-trial-1-unrelated-30", "trial_type": "html-keyboard-response", "trial_index": 35, "time_elapsed": 156871, "internal_node_id": "0.0-4.0-31.0"}}, {"uniqueid": "w99438415:a78502938", "current_trial": 36, "dateTime": 1664873436250, "trialdata": {"rt": 1617, "stimulus": "<p id='stroop-text' class='stroop-red'>BLUE</p>", "response": "r", "stimulus-type": "incongruent", "word": "blue", "color": "red", "correct_response": "r", "trial_id": "stroop-trial-1-incongruent-30", "trial_type": "html-keyboard-response", "trial_index": 36, "time_elapsed": 158992, "internal_node_id": "0.0-4.0-32.0"}}, {"uniqueid": "w99438415:a78502938", "current_trial": 37, "dateTime": 1664873437881, "trialdata": {"rt": 1126, "stimulus": "<p id='stroop-text' class='stroop-blue'>BLUE</p>", "response": "b", "stimulus-type": "congruent", "word": "blue", "color": "blue", "correct_response": "b", "trial_id": "stroop-trial-1-congruent-12", "trial_type": "html-keyboard-response", "trial_index": 37, "time_elapsed": 160623, "internal_node_id": "0.0-4.0-33.0"}}, {"uniqueid": "w99438415:a78502938", "current_trial": 38, "dateTime": 1664873439352, "trialdata": {"rt": 966, "stimulus": "<p id='stroop-text' class='stroop-green'>YELLOW</p>", "response": "y", "stimulus-type": "incongruent", "word": "yellow", "color": "green", "correct_response": "g", "trial_id": "stroop-trial-1-incongruent-22", "trial_type": "html-keyboard-response", "trial_index": 38, "time_elapsed": 162094, "internal_node_id": "0.0-4.0-34.0"}}, {"uniqueid": "w99438415:a78502938", "current_trial": 39, "dateTime": 1664873440486, "trialdata": {"rt": 630, "stimulus": "<p id='stroop-text' class='stroop-green'>GREEN</p>", "response": "g", "stimulus-type": "congruent", "word": "green", "color": "green", "correct_response": "g", "trial_id": "stroop-trial-1-congruent-14", "trial_type": "html-keyboard-response", "trial_index": 39, "time_elapsed": 163228, "internal_node_id": "0.0-4.0-35.0"}}, {"uniqueid": "w99438415:a78502938", "current_trial": 40, "dateTime": 1664873442771, "trialdata": {"rt": 1781, "stimulus": "<p id='stroop-text' class='stroop-blue'>YELLOW</p>", "response": "b", "stimulus-type": "incongruent", "word": "yellow", "color": "blue", "correct_response": "b", "trial_id": "stroop-trial-1-incongruent-28", "trial_type": "html-keyboard-response", "trial_index": 40, "time_elapsed": 165513, "internal_node_id": "0.0-4.0-36.0"}}, {"uniqueid": "w99438415:a78502938", "current_trial": 41, "dateTime": 1664873444398, "trialdata": {"rt": 1123, "stimulus": "<p id='stroop-text' class='stroop-yellow'>BOTTLE</p>", "response": "y", "stimulus-type": "unrelated", "word": "BOTTLE", "color": "yellow", "correct_response": "y", "trial_id": "stroop-trial-1-unrelated-8", "trial_type": "html-keyboard-response", "trial_index": 41, "time_elapsed": 167141, "internal_node_id": "0.0-4.0-37.0"}}, {"uniqueid": "w99438415:a78502938", "current_trial": 42, "dateTime": 1664873446961, "trialdata": {"rt": 2056, "stimulus": "<p id='stroop-text' class='stroop-blue'>RED</p>", "response": "b", "stimulus-type": "incongruent", "word": "red", "color": "blue", "correct_response": "b", "trial_id": "stroop-trial-1-incongruent-4", "trial_type": "html-keyboard-response", "trial_index": 42, "time_elapsed": 169703, "internal_node_id": "0.0-4.0-38.0"}}, {"uniqueid": "w99438415:a78502938", "current_trial": 43, "dateTime": 1664873448507, "trialdata": {"rt": 1042, "stimulus": "<p id='stroop-text' class='stroop-yellow'>RED</p>", "response": "y", "stimulus-type": "incongruent", "word": "red", "color": "yellow", "correct_response": "y", "trial_id": "stroop-trial-1-incongruent-9", "trial_type": "html-keyboard-response", "trial_index": 43, "time_elapsed": 171250, "internal_node_id": "0.0-4.0-39.0"}}, {"uniqueid": "w99438415:a78502938", "current_trial": 44, "dateTime": 1664873450356, "trialdata": {"rt": 1344, "stimulus": "<p id='stroop-text' class='stroop-red'>YELLOW</p>", "response": "r", "stimulus-type": "incongruent", "word": "yellow", "color": "red", "correct_response": "r", "trial_id": "stroop-trial-1-incongruent-8", "trial_type": "html-keyboard-response", "trial_index": 44, "time_elapsed": 173098, "internal_node_id": "0.0-4.0-40.0"}}, {"uniqueid": "w99438415:a78502938", "current_trial": 45, "dateTime": 1664873451602, "trialdata": {"rt": 742, "stimulus": "<p id='stroop-text' class='stroop-yellow'>YELLOW</p>", "response": "y", "stimulus-type": "congruent", "word": "yellow", "color": "yellow", "correct_response": "y", "trial_id": "stroop-trial-1-congruent-19", "trial_type": "html-keyboard-response", "trial_index": 45, "time_elapsed": 174344, "internal_node_id": "0.0-4.0-41.0"}}, {"uniqueid": "w99438415:a78502938", "current_trial": 46, "dateTime": 1664873452743, "trialdata": {"rt": 635, "stimulus": "<p id='stroop-text' class='stroop-red'>RED</p>", "response": "r", "stimulus-type": "congruent", "word": "red", "color": "red", "correct_response": "r", "trial_id": "stroop-trial-1-congruent-28", "trial_type": "html-keyboard-response", "trial_index": 46, "time_elapsed": 175485, "internal_node_id": "0.0-4.0-42.0"}}, {"uniqueid": "w99438415:a78502938", "current_trial": 47, "dateTime": 1664873454860, "trialdata": {"rt": 1614, "stimulus": "<p id='stroop-text' class='stroop-green'>GREEN</p>", "response": "g", "stimulus-type": "congruent", "word": "green", "color": "green", "correct_response": "g", "trial_id": "stroop-trial-1-congruent-29", "trial_type": "html-keyboard-response", "trial_index": 47, "time_elapsed": 177603, "internal_node_id": "0.0-4.0-43.0"}}, {"uniqueid": "w99438415:a78502938", "current_trial": 48, "dateTime": 1664873455955, "trialdata": {"rt": 591, "stimulus": "<p id='stroop-text' class='stroop-green'>STONE</p>", "response": "g", "stimulus-type": "unrelated", "word": "STONE", "color": "green", "correct_response": "g", "trial_id": "stroop-trial-1-unrelated-28", "trial_type": "html-keyboard-response", "trial_index": 48, "time_elapsed": 178698, "internal_node_id": "0.0-4.0-44.0"}}, {"uniqueid": "w99438415:a78502938", "current_trial": 49, "dateTime": 1664873457496, "trialdata": {"rt": 1037, "stimulus": "<p id='stroop-text' class='stroop-blue'>BLUE</p>", "response": "b", "stimulus-type": "congruent", "word": "blue", "color": "blue", "correct_response": "b", "trial_id": "stroop-trial-1-congruent-7", "trial_type": "html-keyboard-response", "trial_index": 49, "time_elapsed": 180238, "internal_node_id": "0.0-4.0-45.0"}}, {"uniqueid": "w99438415:a78502938", "current_trial": 50, "dateTime": 1664873459920, "trialdata": {"rt": 1918, "stimulus": "<p id='stroop-text' class='stroop-blue'>YELLOW</p>", "response": "b", "stimulus-type": "incongruent", "word": "yellow", "color": "blue", "correct_response": "b", "trial_id": "stroop-trial-1-incongruent-7", "trial_type": "html-keyboard-response", "trial_index": 50, "time_elapsed": 182663, "internal_node_id": "0.0-4.0-46.0"}}, {"uniqueid": "w99438415:a78502938", "current_trial": 51, "dateTime": 1664873462499, "trialdata": {"rt": 2074, "stimulus": "<p id='stroop-text' class='stroop-green'>BLUE</p>", "response": "g", "stimulus-type": "incongruent", "word": "blue", "color": "green", "correct_response": "g", "trial_id": "stroop-trial-1-incongruent-3", "trial_type": "html-keyboard-response", "trial_index": 51, "time_elapsed": 185241, "internal_node_id": "0.0-4.0-47.0"}}, {"uniqueid": "w99438415:a78502938", "current_trial": 52, "dateTime": 1664873464038, "trialdata": {"rt": 1035, "stimulus": "<p id='stroop-text' class='stroop-yellow'>YELLOW</p>", "response": "y", "stimulus-type": "congruent", "word": "yellow", "color": "yellow", "correct_response": "y", "trial_id": "stroop-trial-1-congruent-26", "trial_type": "html-keyboard-response", "trial_index": 52, "time_elapsed": 186780, "internal_node_id": "0.0-4.0-48.0"}}, {"uniqueid": "w99438415:a78502938", "current_trial": 53, "dateTime": 1664873465561, "trialdata": {"rt": 1018, "stimulus": "<p id='stroop-text' class='stroop-green'>BOAT</p>", "response": "g", "stimulus-type": "unrelated", "word": "BOAT", "color": "green", "correct_response": "g", "trial_id": "stroop-trial-1-unrelated-22", "trial_type": "html-keyboard-response", "trial_index": 53, "time_elapsed": 188303, "internal_node_id": "0.0-4.0-49.0"}}, {"uniqueid": "w99438415:a78502938", "current_trial": 54, "dateTime": 1664873466684, "trialdata": {"rt": 618, "stimulus": "<p id='stroop-text' class='stroop-green'>BRIDGE</p>", "response": "g", "stimulus-type": "unrelated", "word": "BRIDGE", "color": "green", "correct_response": "g", "trial_id": "stroop-trial-1-unrelated-23", "trial_type": "html-keyboard-response", "trial_index": 54, "time_elapsed": 189426, "internal_node_id": "0.0-4.0-50.0"}}, {"uniqueid": "w99438415:a78502938", "current_trial": 55, "dateTime": 1664873468121, "trialdata": {"rt": 934, "stimulus": "<p id='stroop-text' class='stroop-blue'>WINDOW</p>", "response": "b", "stimulus-type": "unrelated", "word": "WINDOW", "color": "blue", "correct_response": "b", "trial_id": "stroop-trial-1-unrelated-15", "trial_type": "html-keyboard-response", "trial_index": 55, "time_elapsed": 190864, "internal_node_id": "0.0-4.0-51.0"}}, {"uniqueid": "w99438415:a78502938", "current_trial": 56, "dateTime": 1664873469082, "trialdata": {"rt": 456, "stimulus": "<p id='stroop-text' class='stroop-blue'>CHAIR</p>", "response": "b", "stimulus-type": "unrelated", "word": "CHAIR", "color": "blue", "correct_response": "b", "trial_id": "stroop-trial-1-unrelated-12", "trial_type": "html-keyboard-response", "trial_index": 56, "time_elapsed": 191824, "internal_node_id": "0.0-4.0-52.0"}}, {"uniqueid": "w99438415:a78502938", "current_trial": 57, "dateTime": 1664873470389, "trialdata": {"rt": 803, "stimulus": "<p id='stroop-text' class='stroop-yellow'>YELLOW</p>", "response": "y", "stimulus-type": "congruent", "word": "yellow", "color": "yellow", "correct_response": "y", "trial_id": "stroop-trial-1-congruent-4", "trial_type": "html-keyboard-response", "trial_index": 57, "time_elapsed": 193131, "internal_node_id": "0.0-4.0-53.0"}}, {"uniqueid": "w99438415:a78502938", "current_trial": 58, "dateTime": 1664873472148, "trialdata": {"rt": 1253, "stimulus": "<p id='stroop-text' class='stroop-red'>GREEN</p>", "response": "r", "stimulus-type": "incongruent", "word": "green", "color": "red", "correct_response": "r", "trial_id": "stroop-trial-1-incongruent-24", "trial_type": "html-keyboard-response", "trial_index": 58, "time_elapsed": 194891, "internal_node_id": "0.0-4.0-54.0"}}, {"uniqueid": "w99438415:a78502938", "current_trial": 59, "dateTime": 1664873474151, "trialdata": {"rt": 1498, "stimulus": "<p id='stroop-text' class='stroop-blue'>YELLOW</p>", "response": "b", "stimulus-type": "incongruent", "word": "yellow", "color": "blue", "correct_response": "b", "trial_id": "stroop-trial-1-incongruent-20", "trial_type": "html-keyboard-response", "trial_index": 59, "time_elapsed": 196893, "internal_node_id": "0.0-4.0-55.0"}}, {"uniqueid": "w99438415:a78502938", "current_trial": 60, "dateTime": 1664873475877, "trialdata": {"rt": 1221, "stimulus": "<p id='stroop-text' class='stroop-green'>WINDOW</p>", "response": "g", "stimulus-type": "unrelated", "word": "WINDOW", "color": "green", "correct_response": "g", "trial_id": "stroop-trial-1-unrelated-10", "trial_type": "html-keyboard-response", "trial_index": 60, "time_elapsed": 198620, "internal_node_id": "0.0-4.0-56.0"}}, {"uniqueid": "w99438415:a78502938", "current_trial": 61, "dateTime": 1664873477294, "trialdata": {"rt": 911, "stimulus": "<p id='stroop-text' class='stroop-blue'>SHIP</p>", "response": "b", "stimulus-type": "unrelated", "word": "SHIP", "color": "blue", "correct_response": "b", "trial_id": "stroop-trial-1-unrelated-29", "trial_type": "html-keyboard-response", "trial_index": 61, "time_elapsed": 200036, "internal_node_id": "0.0-4.0-57.0"}}, {"uniqueid": "w99438415:a78502938", "current_trial": 62, "dateTime": 1664873478772, "trialdata": {"rt": 975, "stimulus": "<p id='stroop-text' class='stroop-blue'>GREEN</p>", "response": "b", "stimulus-type": "incongruent", "word": "green", "color": "blue", "correct_response": "b", "trial_id": "stroop-trial-1-incongruent-21", "trial_type": "html-keyboard-response", "trial_index": 62, "time_elapsed": 201515, "internal_node_id": "0.0-4.0-58.0"}}, {"uniqueid": "w99438415:a78502938", "current_trial": 63, "dateTime": 1664873480294, "trialdata": {"rt": 1018, "stimulus": "<p id='stroop-text' class='stroop-yellow'>RED</p>", "response": "y", "stimulus-type": "incongruent", "word": "red", "color": "yellow", "correct_response": "y", "trial_id": "stroop-trial-1-incongruent-5", "trial_type": "html-keyboard-response", "trial_index": 63, "time_elapsed": 203036, "internal_node_id": "0.0-4.0-59.0"}}, {"uniqueid": "w99438415:a78502938", "current_trial": 64, "dateTime": 1664873482023, "trialdata": {"rt": 1225, "stimulus": "<p id='stroop-text' class='stroop-blue'>YELLOW</p>", "response": "b", "stimulus-type": "incongruent", "word": "yellow", "color": "blue", "correct_response": "b", "trial_id": "stroop-trial-1-incongruent-6", "trial_type": "html-keyboard-response", "trial_index": 64, "time_elapsed": 204765, "internal_node_id": "0.0-4.0-60.0"}}, {"uniqueid": "w99438415:a78502938", "current_trial": 65, "dateTime": 1664873483421, "trialdata": {"rt": 895, "stimulus": "<p id='stroop-text' class='stroop-green'>GREEN</p>", "response": "g", "stimulus-type": "congruent", "word": "green", "color": "green", "correct_response": "g", "trial_id": "stroop-trial-1-congruent-11", "trial_type": "html-keyboard-response", "trial_index": 65, "time_elapsed": 206164, "internal_node_id": "0.0-4.0-61.0"}}, {"uniqueid": "w99438415:a78502938", "current_trial": 66, "dateTime": 1664873484577, "trialdata": {"rt": 652, "stimulus": "<p id='stroop-text' class='stroop-green'>GREEN</p>", "response": "g", "stimulus-type": "congruent", "word": "green", "color": "green", "correct_response": "g", "trial_id": "stroop-trial-1-congruent-27", "trial_type": "html-keyboard-response", "trial_index": 66, "time_elapsed": 207320, "internal_node_id": "0.0-4.0-62.0"}}, {"uniqueid": "w99438415:a78502938", "current_trial": 67, "dateTime": 1664873486489, "trialdata": {"rt": 1407, "stimulus": "<p id='stroop-text' class='stroop-red'>GREEN</p>", "response": "r", "stimulus-type": "incongruent", "word": "green", "color": "red", "correct_response": "r", "trial_id": "stroop-trial-1-incongruent-13", "trial_type": "html-keyboard-response", "trial_index": 67, "time_elapsed": 209231, "internal_node_id": "0.0-4.0-63.0"}}, {"uniqueid": "w99438415:a78502938", "current_trial": 68, "dateTime": 1664873487823, "trialdata": {"rt": 828, "stimulus": "<p id='stroop-text' class='stroop-yellow'>GREEN</p>", "response": "y", "stimulus-type": "incongruent", "word": "green", "color": "yellow", "correct_response": "y", "trial_id": "stroop-trial-1-incongruent-26", "trial_type": "html-keyboard-response", "trial_index": 68, "time_elapsed": 210565, "internal_node_id": "0.0-4.0-64.0"}}, {"uniqueid": "w99438415:a78502938", "current_trial": 69, "dateTime": 1664873489387, "trialdata": {"rt": 1059, "stimulus": "<p id='stroop-text' class='stroop-green'>FORK</p>", "response": "g", "stimulus-type": "unrelated", "word": "FORK", "color": "green", "correct_response": "g", "trial_id": "stroop-trial-1-unrelated-21", "trial_type": "html-keyboard-response", "trial_index": 69, "time_elapsed": 212129, "internal_node_id": "0.0-4.0-65.0"}}, {"uniqueid": "w99438415:a78502938", "current_trial": 70, "dateTime": 1664873490836, "trialdata": {"rt": 943, "stimulus": "<p id='stroop-text' class='stroop-yellow'>GREEN</p>", "response": "y", "stimulus-type": "incongruent", "word": "green", "color": "yellow", "correct_response": "y", "trial_id": "stroop-trial-1-incongruent-27", "trial_type": "html-keyboard-response", "trial_index": 70, "time_elapsed": 213578, "internal_node_id": "0.0-4.0-66.0"}}, {"uniqueid": "w99438415:a78502938", "current_trial": 71, "dateTime": 1664873492064, "trialdata": {"rt": 725, "stimulus": "<p id='stroop-text' class='stroop-green'>BRAIN</p>", "response": "g", "stimulus-type": "unrelated", "word": "BRAIN", "color": "green", "correct_response": "g", "trial_id": "stroop-trial-1-unrelated-16", "trial_type": "html-keyboard-response", "trial_index": 71, "time_elapsed": 214807, "internal_node_id": "0.0-4.0-67.0"}}, {"uniqueid": "w99438415:a78502938", "current_trial": 72, "dateTime": 1664873493104, "trialdata": {"rt": 534, "stimulus": "<p id='stroop-text' class='stroop-yellow'>STONE</p>", "response": "y", "stimulus-type": "unrelated", "word": "STONE", "color": "yellow", "correct_response": "y", "trial_id": "stroop-trial-1-unrelated-27", "trial_type": "html-keyboard-response", "trial_index": 72, "time_elapsed": 215847, "internal_node_id": "0.0-4.0-68.0"}}, {"uniqueid": "w99438415:a78502938", "current_trial": 73, "dateTime": 1664873494317, "trialdata": {"rt": 708, "stimulus": "<p id='stroop-text' class='stroop-yellow'>RED</p>", "response": "y", "stimulus-type": "incongruent", "word": "red", "color": "yellow", "correct_response": "y", "trial_id": "stroop-trial-1-incongruent-1", "trial_type": "html-keyboard-response", "trial_index": 73, "time_elapsed": 217059, "internal_node_id": "0.0-4.0-69.0"}}, {"uniqueid": "w99438415:a78502938", "current_trial": 74, "dateTime": 1664873495874, "trialdata": {"rt": 1053, "stimulus": "<p id='stroop-text' class='stroop-blue'>BLUE</p>", "response": "b", "stimulus-type": "congruent", "word": "blue", "color": "blue", "correct_response": "b", "trial_id": "stroop-trial-1-congruent-15", "trial_type": "html-keyboard-response", "trial_index": 74, "time_elapsed": 218616, "internal_node_id": "0.0-4.0-70.0"}}, {"uniqueid": "w99438415:a78502938", "current_trial": 75, "dateTime": 1664873496953, "trialdata": {"rt": 573, "stimulus": "<p id='stroop-text' class='stroop-blue'>BLUE</p>", "response": "b", "stimulus-type": "congruent", "word": "blue", "color": "blue", "correct_response": "b", "trial_id": "stroop-trial-1-congruent-20", "trial_type": "html-keyboard-response", "trial_index": 75, "time_elapsed": 219696, "internal_node_id": "0.0-4.0-71.0"}}, {"uniqueid": "w99438415:a78502938", "current_trial": 76, "dateTime": 1664873498096, "trialdata": {"rt": 639, "stimulus": "<p id='stroop-text' class='stroop-red'>BRAIN</p>", "response": "r", "stimulus-type": "unrelated", "word": "BRAIN", "color": "red", "correct_response": "r", "trial_id": "stroop-trial-1-unrelated-13", "trial_type": "html-keyboard-response", "trial_index": 76, "time_elapsed": 220838, "internal_node_id": "0.0-4.0-72.0"}}, {"uniqueid": "w99438415:a78502938", "current_trial": 77, "dateTime": 1664873499476, "trialdata": {"rt": 876, "stimulus": "<p id='stroop-text' class='stroop-green'>BOTTLE</p>", "response": "g", "stimulus-type": "unrelated", "word": "BOTTLE", "color": "green", "correct_response": "g", "trial_id": "stroop-trial-1-unrelated-17", "trial_type": "html-keyboard-response", "trial_index": 77, "time_elapsed": 222218, "internal_node_id": "0.0-4.0-73.0"}}, {"uniqueid": "w99438415:a78502938", "current_trial": 78, "dateTime": 1664873501135, "trialdata": {"rt": 1153, "stimulus": "<p id='stroop-text' class='stroop-green'>GREEN</p>", "response": "g", "stimulus-type": "congruent", "word": "green", "color": "green", "correct_response": "g", "trial_id": "stroop-trial-1-congruent-24", "trial_type": "html-keyboard-response", "trial_index": 78, "time_elapsed": 223877, "internal_node_id": "0.0-4.0-74.0"}}, {"uniqueid": "w99438415:a78502938", "current_trial": 79, "dateTime": 1664873503173, "trialdata": {"rt": 1534, "stimulus": "<p id='stroop-text' class='stroop-yellow'>RED</p>", "response": "y", "stimulus-type": "incongruent", "word": "red", "color": "yellow", "correct_response": "y", "trial_id": "stroop-trial-1-incongruent-25", "trial_type": "html-keyboard-response", "trial_index": 79, "time_elapsed": 225915, "internal_node_id": "0.0-4.0-75.0"}}, {"uniqueid": "w99438415:a78502938", "current_trial": 80, "dateTime": 1664873504743, "trialdata": {"rt": 1067, "stimulus": "<p id='stroop-text' class='stroop-green'>BRAIN</p>", "response": "g", "stimulus-type": "unrelated", "word": "BRAIN", "color": "green", "correct_response": "g", "trial_id": "stroop-trial-1-unrelated-24", "trial_type": "html-keyboard-response", "trial_index": 80, "time_elapsed": 227486, "internal_node_id": "0.0-4.0-76.0"}}, {"uniqueid": "w99438415:a78502938", "current_trial": 81, "dateTime": 1664873506249, "trialdata": {"rt": 1001, "stimulus": "<p id='stroop-text' class='stroop-red'>STONE</p>", "response": "r", "stimulus-type": "unrelated", "word": "STONE", "color": "red", "correct_response": "r", "trial_id": "stroop-trial-1-unrelated-14", "trial_type": "html-keyboard-response", "trial_index": 81, "time_elapsed": 228992, "internal_node_id": "0.0-4.0-77.0"}}, {"uniqueid": "w99438415:a78502938", "current_trial": 82, "dateTime": 1664873507479, "trialdata": {"rt": 726, "stimulus": "<p id='stroop-text' class='stroop-yellow'>RED</p>", "response": "y", "stimulus-type": "incongruent", "word": "red", "color": "yellow", "correct_response": "y", "trial_id": "stroop-trial-1-incongruent-12", "trial_type": "html-keyboard-response", "trial_index": 82, "time_elapsed": 230222, "internal_node_id": "0.0-4.0-78.0"}}, {"uniqueid": "w99438415:a78502938", "current_trial": 83, "dateTime": 1664873508871, "trialdata": {"rt": 889, "stimulus": "<p id='stroop-text' class='stroop-green'>GREEN</p>", "response": "g", "stimulus-type": "congruent", "word": "green", "color": "green", "correct_response": "g", "trial_id": "stroop-trial-1-congruent-3", "trial_type": "html-keyboard-response", "trial_index": 83, "time_elapsed": 231614, "internal_node_id": "0.0-4.0-79.0"}}, {"uniqueid": "w99438415:a78502938", "current_trial": 84, "dateTime": 1664873509995, "trialdata": {"rt": 616, "stimulus": "<p id='stroop-text' class='stroop-green'>GREEN</p>", "response": "g", "stimulus-type": "congruent", "word": "green", "color": "green", "correct_response": "g", "trial_id": "stroop-trial-1-congruent-22", "trial_type": "html-keyboard-response", "trial_index": 84, "time_elapsed": 232737, "internal_node_id": "0.0-4.0-80.0"}}, {"uniqueid": "w99438415:a78502938", "current_trial": 85, "dateTime": 1664873511152, "trialdata": {"rt": 654, "stimulus": "<p id='stroop-text' class='stroop-yellow'>YELLOW</p>", "response": "y", "stimulus-type": "congruent", "word": "yellow", "color": "yellow", "correct_response": "y", "trial_id": "stroop-trial-1-congruent-2", "trial_type": "html-keyboard-response", "trial_index": 85, "time_elapsed": 233895, "internal_node_id": "0.0-4.0-81.0"}}, {"uniqueid": "w99438415:a78502938", "current_trial": 86, "dateTime": 1664873512353, "trialdata": {"rt": 696, "stimulus": "<p id='stroop-text' class='stroop-red'>YELLOW</p>", "response": "r", "stimulus-type": "incongruent", "word": "yellow", "color": "red", "correct_response": "r", "trial_id": "stroop-trial-1-incongruent-2", "trial_type": "html-keyboard-response", "trial_index": 86, "time_elapsed": 235096, "internal_node_id": "0.0-4.0-82.0"}}, {"uniqueid": "w99438415:a78502938", "current_trial": 87, "dateTime": 1664873513712, "trialdata": {"rt": 854, "stimulus": "<p id='stroop-text' class='stroop-blue'>STONE</p>", "response": "b", "stimulus-type": "unrelated", "word": "STONE", "color": "blue", "correct_response": "b", "trial_id": "stroop-trial-1-unrelated-6", "trial_type": "html-keyboard-response", "trial_index": 87, "time_elapsed": 236454, "internal_node_id": "0.0-4.0-83.0"}}, {"uniqueid": "w99438415:a78502938", "current_trial": 88, "dateTime": 1664873514616, "trialdata": {"rt": 399, "stimulus": "<p id='stroop-text' class='stroop-blue'>RED</p>", "response": "b", "stimulus-type": "incongruent", "word": "red", "color": "blue", "correct_response": "b", "trial_id": "stroop-trial-1-incongruent-16", "trial_type": "html-keyboard-response", "trial_index": 88, "time_elapsed": 237359, "internal_node_id": "0.0-4.0-84.0"}}, {"uniqueid": "w99438415:a78502938", "current_trial": 89, "dateTime": 1664873515851, "trialdata": {"rt": 729, "stimulus": "<p id='stroop-text' class='stroop-yellow'>RED</p>", "response": "y", "stimulus-type": "incongruent", "word": "red", "color": "yellow", "correct_response": "y", "trial_id": "stroop-trial-1-incongruent-29", "trial_type": "html-keyboard-response", "trial_index": 89, "time_elapsed": 238594, "internal_node_id": "0.0-4.0-85.0"}}, {"uniqueid": "w99438415:a78502938", "current_trial": 90, "dateTime": 1664873517137, "trialdata": {"rt": 783, "stimulus": "<p id='stroop-text' class='stroop-green'>YELLOW</p>", "response": "g", "stimulus-type": "incongruent", "word": "yellow", "color": "green", "correct_response": "g", "trial_id": "stroop-trial-1-incongruent-18", "trial_type": "html-keyboard-response", "trial_index": 90, "time_elapsed": 239880, "internal_node_id": "0.0-4.0-86.0"}}, {"uniqueid": "w99438415:a78502938", "current_trial": 91, "dateTime": 1664873518370, "trialdata": {"rt": 728, "stimulus": "<p id='stroop-text' class='stroop-blue'>BLUE</p>", "response": "b", "stimulus-type": "congruent", "word": "blue", "color": "blue", "correct_response": "b", "trial_id": "stroop-trial-1-congruent-8", "trial_type": "html-keyboard-response", "trial_index": 91, "time_elapsed": 241112, "internal_node_id": "0.0-4.0-87.0"}}, {"uniqueid": "w99438415:a78502938", "current_trial": 92, "dateTime": 1664873519968, "trialdata": {"rt": 1092, "stimulus": "<p id='stroop-text' class='stroop-red'>BRIDGE</p>", "response": "r", "stimulus-type": "unrelated", "word": "BRIDGE", "color": "red", "correct_response": "r", "trial_id": "stroop-trial-1-unrelated-7", "trial_type": "html-keyboard-response", "trial_index": 92, "time_elapsed": 242711, "internal_node_id": "0.0-4.0-88.0"}}, {"uniqueid": "w99438415:a78502938", "current_trial": 93, "dateTime": 1664873521156, "trialdata": {"rt": 683, "stimulus": "<p id='stroop-text' class='stroop-red'>YELLOW</p>", "response": "r", "stimulus-type": "incongruent", "word": "yellow", "color": "red", "correct_response": "r", "trial_id": "stroop-trial-1-incongruent-15", "trial_type": "html-keyboard-response", "trial_index": 93, "time_elapsed": 243899, "internal_node_id": "0.0-4.0-89.0"}}, {"uniqueid": "w99438415:a78502938", "current_trial": 94, "dateTime": 1664873527364, "trialdata": {"rt": 5702, "stimulus": "  <h1> End of block! </h1>\n\n  You have reached the end of the block 1/5. If you need a short break, feel free to take one now before moving on.\n\n  <br><br>\n  In the next block, you will complete another 90 rounds of this game.\n\n  <br><br>\n  <div style='text-align: center;'>Press <code>space</code> to begin.</div>\n  <br><br>\n<div style='text-align: center;'>(If the experiment doesn't continue, try clicking on the text and then pressing <code>space</code>.)</div>", "response": " ", "trial_id": "stroop_1_ready_2", "trial_type": "html-keyboard-response", "trial_index": 94, "time_elapsed": 250107, "internal_node_id": "0.0-5.0"}}, {"uniqueid": "w99438415:a78502938", "current_trial": 95, "dateTime": 1664873528497, "trialdata": {"rt": 1127, "stimulus": "<p id='stroop-text' class='stroop-yellow'>BOAT</p>", "response": "y", "stimulus-type": "unrelated", "word": "BOAT", "color": "yellow", "correct_response": "y", "trial_id": "stroop-trial-1-unrelated-29", "trial_type": "html-keyboard-response", "trial_index": 95, "time_elapsed": 251239, "internal_node_id": "0.0-6.0-0.0"}}, {"uniqueid": "w99438415:a78502938", "current_trial": 96, "dateTime": 1664873529483, "trialdata": {"rt": 482, "stimulus": "<p id='stroop-text' class='stroop-yellow'>BOAT</p>", "response": "y", "stimulus-type": "unrelated", "word": "BOAT", "color": "yellow", "correct_response": "y", "trial_id": "stroop-trial-1-unrelated-18", "trial_type": "html-keyboard-response", "trial_index": 96, "time_elapsed": 252226, "internal_node_id": "0.0-6.0-1.0"}}, {"uniqueid": "w99438415:a78502938", "current_trial": 97, "dateTime": 1664873530764, "trialdata": {"rt": 774, "stimulus": "<p id='stroop-text' class='stroop-yellow'>YELLOW</p>", "response": "y", "stimulus-type": "congruent", "word": "yellow", "color": "yellow", "correct_response": "y", "trial_id": "stroop-trial-1-congruent-9", "trial_type": "html-keyboard-response", "trial_index": 97, "time_elapsed": 253506, "internal_node_id": "0.0-6.0-2.0"}}, {"uniqueid": "w99438415:a78502938", "current_trial": 98, "dateTime": 1664873532170, "trialdata": {"rt": 900, "stimulus": "<p id='stroop-text' class='stroop-red'>BLUE</p>", "response": "r", "stimulus-type": "incongruent", "word": "blue", "color": "red", "correct_response": "r", "trial_id": "stroop-trial-1-incongruent-24", "trial_type": "html-keyboard-response", "trial_index": 98, "time_elapsed": 254912, "internal_node_id": "0.0-6.0-3.0"}}, {"uniqueid": "w99438415:a78502938", "current_trial": 99, "dateTime": 1664873533933, "trialdata": {"rt": 1260, "stimulus": "<p id='stroop-text' class='stroop-blue'>YELLOW</p>", "response": "b", "stimulus-type": "incongruent", "word": "yellow", "color": "blue", "correct_response": "b", "trial_id": "stroop-trial-1-incongruent-27", "trial_type": "html-keyboard-response", "trial_index": 99, "time_elapsed": 256676, "internal_node_id": "0.0-6.0-4.0"}}, {"uniqueid": "w99438415:a78502938", "current_trial": 100, "dateTime": 1664873535172, "trialdata": {"rt": 733, "stimulus": "<p id='stroop-text' class='stroop-red'>WINDOW</p>", "response": "r", "stimulus-type": "unrelated", "word": "WINDOW", "color": "red", "correct_response": "r", "trial_id": "stroop-trial-1-unrelated-5", "trial_type": "html-keyboard-response", "trial_index": 100, "time_elapsed": 257914, "internal_node_id": "0.0-6.0-5.0"}}, {"uniqueid": "w99438415:a78502938", "current_trial": 101, "dateTime": 1664873536097, "trialdata": {"rt": 421, "stimulus": "<p id='stroop-text' class='stroop-blue'>BLUE</p>", "response": "b", "stimulus-type": "congruent", "word": "blue", "color": "blue", "correct_response": "b", "trial_id": "stroop-trial-1-congruent-6", "trial_type": "html-keyboard-response", "trial_index": 101, "time_elapsed": 258839, "internal_node_id": "0.0-6.0-6.0"}}, {"uniqueid": "w99438415:a78502938", "current_trial": 102, "dateTime": 1664873537306, "trialdata": {"rt": 703, "stimulus": "<p id='stroop-text' class='stroop-yellow'>BLUE</p>", "response": "y", "stimulus-type": "incongruent", "word": "blue", "color": "yellow", "correct_response": "y", "trial_id": "stroop-trial-1-incongruent-12", "trial_type": "html-keyboard-response", "trial_index": 102, "time_elapsed": 260048, "internal_node_id": "0.0-6.0-7.0"}}, {"uniqueid": "w99438415:a78502938", "current_trial": 103, "dateTime": 1664873538364, "trialdata": {"rt": 554, "stimulus": "<p id='stroop-text' class='stroop-yellow'>GREEN</p>", "response": "y", "stimulus-type": "incongruent", "word": "green", "color": "yellow", "correct_response": "y", "trial_id": "stroop-trial-1-incongruent-20", "trial_type": "html-keyboard-response", "trial_index": 103, "time_elapsed": 261107, "internal_node_id": "0.0-6.0-8.0"}}, {"uniqueid": "w99438415:a78502938", "current_trial": 104, "dateTime": 1664873539716, "trialdata": {"rt": 846, "stimulus": "<p id='stroop-text' class='stroop-red'>RED</p>", "response": "r", "stimulus-type": "congruent", "word": "red", "color": "red", "correct_response": "r", "trial_id": "stroop-trial-1-congruent-13", "trial_type": "html-keyboard-response", "trial_index": 104, "time_elapsed": 262458, "internal_node_id": "0.0-6.0-9.0"}}, {"uniqueid": "w99438415:a78502938", "current_trial": 105, "dateTime": 1664873540738, "trialdata": {"rt": 515, "stimulus": "<p id='stroop-text' class='stroop-red'>BRAIN</p>", "response": "r", "stimulus-type": "unrelated", "word": "BRAIN", "color": "red", "correct_response": "r", "trial_id": "stroop-trial-1-unrelated-11", "trial_type": "html-keyboard-response", "trial_index": 105, "time_elapsed": 263481, "internal_node_id": "0.0-6.0-10.0"}}, {"uniqueid": "w99438415:a78502938", "current_trial": 106, "dateTime": 1664873541778, "trialdata": {"rt": 534, "stimulus": "<p id='stroop-text' class='stroop-red'>RED</p>", "response": "r", "stimulus-type": "congruent", "word": "red", "color": "red", "correct_response": "r", "trial_id": "stroop-trial-1-congruent-23", "trial_type": "html-keyboard-response", "trial_index": 106, "time_elapsed": 264520, "internal_node_id": "0.0-6.0-11.0"}}, {"uniqueid": "w99438415:a78502938", "current_trial": 107, "dateTime": 1664873542999, "trialdata": {"rt": 714, "stimulus": "<p id='stroop-text' class='stroop-blue'>FORK</p>", "response": "b", "stimulus-type": "unrelated", "word": "FORK", "color": "blue", "correct_response": "b", "trial_id": "stroop-trial-1-unrelated-20", "trial_type": "html-keyboard-response", "trial_index": 107, "time_elapsed": 265741, "internal_node_id": "0.0-6.0-12.0"}}, {"uniqueid": "w99438415:a78502938", "current_trial": 108, "dateTime": 1664873543916, "trialdata": {"rt": 412, "stimulus": "<p id='stroop-text' class='stroop-blue'>BLUE</p>", "response": "b", "stimulus-type": "congruent", "word": "blue", "color": "blue", "correct_response": "b", "trial_id": "stroop-trial-1-congruent-19", "trial_type": "html-keyboard-response", "trial_index": 108, "time_elapsed": 266659, "internal_node_id": "0.0-6.0-13.0"}}, {"uniqueid": "w99438415:a78502938", "current_trial": 109, "dateTime": 1664873544931, "trialdata": {"rt": 510, "stimulus": "<p id='stroop-text' class='stroop-blue'>SHIP</p>", "response": "b", "stimulus-type": "unrelated", "word": "SHIP", "color": "blue", "correct_response": "b", "trial_id": "stroop-trial-1-unrelated-3", "trial_type": "html-keyboard-response", "trial_index": 109, "time_elapsed": 267674, "internal_node_id": "0.0-6.0-14.0"}}, {"uniqueid": "w99438415:a78502938", "current_trial": 110, "dateTime": 1664873546076, "trialdata": {"rt": 638, "stimulus": "<p id='stroop-text' class='stroop-red'>RED</p>", "response": "r", "stimulus-type": "congruent", "word": "red", "color": "red", "correct_response": "r", "trial_id": "stroop-trial-1-congruent-29", "trial_type": "html-keyboard-response", "trial_index": 110, "time_elapsed": 268818, "internal_node_id": "0.0-6.0-15.0"}}, {"uniqueid": "w99438415:a78502938", "current_trial": 111, "dateTime": 1664873547281, "trialdata": {"rt": 701, "stimulus": "<p id='stroop-text' class='stroop-blue'>BLUE</p>", "response": "b", "stimulus-type": "congruent", "word": "blue", "color": "blue", "correct_response": "b", "trial_id": "stroop-trial-1-congruent-20", "trial_type": "html-keyboard-response", "trial_index": 111, "time_elapsed": 270024, "internal_node_id": "0.0-6.0-16.0"}}, {"uniqueid": "w99438415:a78502938", "current_trial": 112, "dateTime": 1664873548423, "trialdata": {"rt": 635, "stimulus": "<p id='stroop-text' class='stroop-blue'>GREEN</p>", "response": "b", "stimulus-type": "incongruent", "word": "green", "color": "blue", "correct_response": "b", "trial_id": "stroop-trial-1-incongruent-3", "trial_type": "html-keyboard-response", "trial_index": 112, "time_elapsed": 271165, "internal_node_id": "0.0-6.0-17.0"}}, {"uniqueid": "w99438415:a78502938", "current_trial": 113, "dateTime": 1664873549621, "trialdata": {"rt": 693, "stimulus": "<p id='stroop-text' class='stroop-red'>RED</p>", "response": "r", "stimulus-type": "congruent", "word": "red", "color": "red", "correct_response": "r", "trial_id": "stroop-trial-1-congruent-7", "trial_type": "html-keyboard-response", "trial_index": 113, "time_elapsed": 272364, "internal_node_id": "0.0-6.0-18.0"}}, {"uniqueid": "w99438415:a78502938", "current_trial": 114, "dateTime": 1664873550772, "trialdata": {"rt": 645, "stimulus": "<p id='stroop-text' class='stroop-yellow'>YELLOW</p>", "response": "y", "stimulus-type": "congruent", "word": "yellow", "color": "yellow", "correct_response": "y", "trial_id": "stroop-trial-1-congruent-27", "trial_type": "html-keyboard-response", "trial_index": 114, "time_elapsed": 273515, "internal_node_id": "0.0-6.0-19.0"}}, {"uniqueid": "w99438415:a78502938", "current_trial": 115, "dateTime": 1664873552473, "trialdata": {"rt": 1196, "stimulus": "<p id='stroop-text' class='stroop-red'>BLUE</p>", "response": "r", "stimulus-type": "incongruent", "word": "blue", "color": "red", "correct_response": "r", "trial_id": "stroop-trial-1-incongruent-16", "trial_type": "html-keyboard-response", "trial_index": 115, "time_elapsed": 275215, "internal_node_id": "0.0-6.0-20.0"}}, {"uniqueid": "w99438415:a78502938", "current_trial": 116, "dateTime": 1664873553657, "trialdata": {"rt": 680, "stimulus": "<p id='stroop-text' class='stroop-yellow'>RED</p>", "response": "y", "stimulus-type": "incongruent", "word": "red", "color": "yellow", "correct_response": "y", "trial_id": "stroop-trial-1-incongruent-7", "trial_type": "html-keyboard-response", "trial_index": 116, "time_elapsed": 276400, "internal_node_id": "0.0-6.0-21.0"}}, {"uniqueid": "w99438415:a78502938", "current_trial": 117, "dateTime": 1664873554853, "trialdata": {"rt": 690, "stimulus": "<p id='stroop-text' class='stroop-red'>BLUE</p>", "response": "r", "stimulus-type": "incongruent", "word": "blue", "color": "red", "correct_response": "r", "trial_id": "stroop-trial-1-incongruent-30", "trial_type": "html-keyboard-response", "trial_index": 117, "time_elapsed": 277595, "internal_node_id": "0.0-6.0-22.0"}}, {"uniqueid": "w99438415:a78502938", "current_trial": 118, "dateTime": 1664873556056, "trialdata": {"rt": 699, "stimulus": "<p id='stroop-text' class='stroop-blue'>WINDOW</p>", "response": "b", "stimulus-type": "unrelated", "word": "WINDOW", "color": "blue", "correct_response": "b", "trial_id": "stroop-trial-1-unrelated-30", "trial_type": "html-keyboard-response", "trial_index": 118, "time_elapsed": 278799, "internal_node_id": "0.0-6.0-23.0"}}, {"uniqueid": "w99438415:a78502938", "current_trial": 119, "dateTime": 1664873557289, "trialdata": {"rt": 727, "stimulus": "<p id='stroop-text' class='stroop-green'>YELLOW</p>", "response": "g", "stimulus-type": "incongruent", "word": "yellow", "color": "green", "correct_response": "g", "trial_id": "stroop-trial-1-incongruent-5", "trial_type": "html-keyboard-response", "trial_index": 119, "time_elapsed": 280031, "internal_node_id": "0.0-6.0-24.0"}}, {"uniqueid": "w99438415:a78502938", "current_trial": 120, "dateTime": 1664873558221, "trialdata": {"rt": 427, "stimulus": "<p id='stroop-text' class='stroop-green'>GREEN</p>", "response": "g", "stimulus-type": "congruent", "word": "green", "color": "green", "correct_response": "g", "trial_id": "stroop-trial-1-congruent-22", "trial_type": "html-keyboard-response", "trial_index": 120, "time_elapsed": 280964, "internal_node_id": "0.0-6.0-25.0"}}, {"uniqueid": "w99438415:a78502938", "current_trial": 121, "dateTime": 1664873559582, "trialdata": {"rt": 856, "stimulus": "<p id='stroop-text' class='stroop-blue'>RED</p>", "response": "b", "stimulus-type": "incongruent", "word": "red", "color": "blue", "correct_response": "b", "trial_id": "stroop-trial-1-incongruent-25", "trial_type": "html-keyboard-response", "trial_index": 121, "time_elapsed": 282325, "internal_node_id": "0.0-6.0-26.0"}}, {"uniqueid": "w99438415:a78502938", "current_trial": 122, "dateTime": 1664873560759, "trialdata": {"rt": 672, "stimulus": "<p id='stroop-text' class='stroop-blue'>BLUE</p>", "response": "b", "stimulus-type": "congruent", "word": "blue", "color": "blue", "correct_response": "b", "trial_id": "stroop-trial-1-congruent-25", "trial_type": "html-keyboard-response", "trial_index": 122, "time_elapsed": 283501, "internal_node_id": "0.0-6.0-27.0"}}, {"uniqueid": "w99438415:a78502938", "current_trial": 123, "dateTime": 1664873562161, "trialdata": {"rt": 898, "stimulus": "<p id='stroop-text' class='stroop-yellow'>BRIDGE</p>", "response": "y", "stimulus-type": "unrelated", "word": "BRIDGE", "color": "yellow", "correct_response": "y", "trial_id": "stroop-trial-1-unrelated-28", "trial_type": "html-keyboard-response", "trial_index": 123, "time_elapsed": 284904, "internal_node_id": "0.0-6.0-28.0"}}, {"uniqueid": "w99438415:a78502938", "current_trial": 124, "dateTime": 1664873563278, "trialdata": {"rt": 611, "stimulus": "<p id='stroop-text' class='stroop-red'>RED</p>", "response": "r", "stimulus-type": "congruent", "word": "red", "color": "red", "correct_response": "r", "trial_id": "stroop-trial-1-congruent-18", "trial_type": "html-keyboard-response", "trial_index": 124, "time_elapsed": 286020, "internal_node_id": "0.0-6.0-29.0"}}, {"uniqueid": "w99438415:a78502938", "current_trial": 125, "dateTime": 1664873564665, "trialdata": {"rt": 884, "stimulus": "<p id='stroop-text' class='stroop-yellow'>SHIP</p>", "response": "y", "stimulus-type": "unrelated", "word": "SHIP", "color": "yellow", "correct_response": "y", "trial_id": "stroop-trial-1-unrelated-15", "trial_type": "html-keyboard-response", "trial_index": 125, "time_elapsed": 287408, "internal_node_id": "0.0-6.0-30.0"}}, {"uniqueid": "w99438415:a78502938", "current_trial": 126, "dateTime": 1664873565710, "trialdata": {"rt": 539, "stimulus": "<p id='stroop-text' class='stroop-yellow'>YELLOW</p>", "response": "y", "stimulus-type": "congruent", "word": "yellow", "color": "yellow", "correct_response": "y", "trial_id": "stroop-trial-1-congruent-8", "trial_type": "html-keyboard-response", "trial_index": 126, "time_elapsed": 288452, "internal_node_id": "0.0-6.0-31.0"}}, {"uniqueid": "w99438415:a78502938", "current_trial": 127, "dateTime": 1664873567296, "trialdata": {"rt": 1081, "stimulus": "<p id='stroop-text' class='stroop-blue'>STONE</p>", "response": "b", "stimulus-type": "unrelated", "word": "STONE", "color": "blue", "correct_response": "b", "trial_id": "stroop-trial-1-unrelated-4", "trial_type": "html-keyboard-response", "trial_index": 127, "time_elapsed": 290039, "internal_node_id": "0.0-6.0-32.0"}}, {"uniqueid": "w99438415:a78502938", "current_trial": 128, "dateTime": 1664873568418, "trialdata": {"rt": 617, "stimulus": "<p id='stroop-text' class='stroop-red'>RED</p>", "response": "r", "stimulus-type": "congruent", "word": "red", "color": "red", "correct_response": "r", "trial_id": "stroop-trial-1-congruent-24", "trial_type": "html-keyboard-response", "trial_index": 128, "time_elapsed": 291161, "internal_node_id": "0.0-6.0-33.0"}}, {"uniqueid": "w99438415:a78502938", "current_trial": 129, "dateTime": 1664873569752, "trialdata": {"rt": 829, "stimulus": "<p id='stroop-text' class='stroop-yellow'>FORK</p>", "response": "y", "stimulus-type": "unrelated", "word": "FORK", "color": "yellow", "correct_response": "y", "trial_id": "stroop-trial-1-unrelated-27", "trial_type": "html-keyboard-response", "trial_index": 129, "time_elapsed": 292494, "internal_node_id": "0.0-6.0-34.0"}}, {"uniqueid": "w99438415:a78502938", "current_trial": 130, "dateTime": 1664873570791, "trialdata": {"rt": 533, "stimulus": "<p id='stroop-text' class='stroop-green'>GREEN</p>", "response": "g", "stimulus-type": "congruent", "word": "green", "color": "green", "correct_response": "g", "trial_id": "stroop-trial-1-congruent-28", "trial_type": "html-keyboard-response", "trial_index": 130, "time_elapsed": 293533, "internal_node_id": "0.0-6.0-35.0"}}, {"uniqueid": "w99438415:a78502938", "current_trial": 131, "dateTime": 1664873571851, "trialdata": {"rt": 556, "stimulus": "<p id='stroop-text' class='stroop-red'>RED</p>", "response": "r", "stimulus-type": "congruent", "word": "red", "color": "red", "correct_response": "r", "trial_id": "stroop-trial-1-congruent-11", "trial_type": "html-keyboard-response", "trial_index": 131, "time_elapsed": 294594, "internal_node_id": "0.0-6.0-36.0"}}, {"uniqueid": "w99438415:a78502938", "current_trial": 132, "dateTime": 1664873573141, "trialdata": {"rt": 785, "stimulus": "<p id='stroop-text' class='stroop-yellow'>WINDOW</p>", "response": "y", "stimulus-type": "unrelated", "word": "WINDOW", "color": "yellow", "correct_response": "y", "trial_id": "stroop-trial-1-unrelated-6", "trial_type": "html-keyboard-response", "trial_index": 132, "time_elapsed": 295884, "internal_node_id": "0.0-6.0-37.0"}}, {"uniqueid": "w99438415:a78502938", "current_trial": 133, "dateTime": 1664873574225, "trialdata": {"rt": 578, "stimulus": "<p id='stroop-text' class='stroop-green'>GREEN</p>", "response": "g", "stimulus-type": "congruent", "word": "green", "color": "green", "correct_response": "g", "trial_id": "stroop-trial-1-congruent-2", "trial_type": "html-keyboard-response", "trial_index": 133, "time_elapsed": 296967, "internal_node_id": "0.0-6.0-38.0"}}, {"uniqueid": "w99438415:a78502938", "current_trial": 134, "dateTime": 1664873575718, "trialdata": {"rt": 989, "stimulus": "<p id='stroop-text' class='stroop-red'>RED</p>", "response": "r", "stimulus-type": "congruent", "word": "red", "color": "red", "correct_response": "r", "trial_id": "stroop-trial-1-congruent-21", "trial_type": "html-keyboard-response", "trial_index": 134, "time_elapsed": 298461, "internal_node_id": "0.0-6.0-39.0"}}, {"uniqueid": "w99438415:a78502938", "current_trial": 135, "dateTime": 1664873576996, "trialdata": {"rt": 771, "stimulus": "<p id='stroop-text' class='stroop-blue'>BLUE</p>", "response": "b", "stimulus-type": "congruent", "word": "blue", "color": "blue", "correct_response": "b", "trial_id": "stroop-trial-1-congruent-1", "trial_type": "html-keyboard-response", "trial_index": 135, "time_elapsed": 299739, "internal_node_id": "0.0-6.0-40.0"}}, {"uniqueid": "w99438415:a78502938", "current_trial": 136, "dateTime": 1664873578829, "trialdata": {"rt": 1327, "stimulus": "<p id='stroop-text' class='stroop-red'>STONE</p>", "response": "r", "stimulus-type": "unrelated", "word": "STONE", "color": "red", "correct_response": "r", "trial_id": "stroop-trial-1-unrelated-25", "trial_type": "html-keyboard-response", "trial_index": 136, "time_elapsed": 301571, "internal_node_id": "0.0-6.0-41.0"}}, {"uniqueid": "w99438415:a78502938", "current_trial": 137, "dateTime": 1664873579770, "trialdata": {"rt": 434, "stimulus": "<p id='stroop-text' class='stroop-yellow'>STONE</p>", "response": "y", "stimulus-type": "unrelated", "word": "STONE", "color": "yellow", "correct_response": "y", "trial_id": "stroop-trial-1-unrelated-23", "trial_type": "html-keyboard-response", "trial_index": 137, "time_elapsed": 302512, "internal_node_id": "0.0-6.0-42.0"}}, {"uniqueid": "w99438415:a78502938", "current_trial": 138, "dateTime": 1664873580734, "trialdata": {"rt": 458, "stimulus": "<p id='stroop-text' class='stroop-yellow'>YELLOW</p>", "response": "y", "stimulus-type": "congruent", "word": "yellow", "color": "yellow", "correct_response": "y", "trial_id": "stroop-trial-1-congruent-12", "trial_type": "html-keyboard-response", "trial_index": 138, "time_elapsed": 303477, "internal_node_id": "0.0-6.0-43.0"}}, {"uniqueid": "w99438415:a78502938", "current_trial": 139, "dateTime": 1664873582034, "trialdata": {"rt": 792, "stimulus": "<p id='stroop-text' class='stroop-blue'>SHIP</p>", "response": "b", "stimulus-type": "unrelated", "word": "SHIP", "color": "blue", "correct_response": "b", "trial_id": "stroop-trial-1-unrelated-8", "trial_type": "html-keyboard-response", "trial_index": 139, "time_elapsed": 304777, "internal_node_id": "0.0-6.0-44.0"}}, {"uniqueid": "w99438415:a78502938", "current_trial": 140, "dateTime": 1664873583532, "trialdata": {"rt": 993, "stimulus": "<p id='stroop-text' class='stroop-yellow'>BLUE</p>", "response": "y", "stimulus-type": "incongruent", "word": "blue", "color": "yellow", "correct_response": "y", "trial_id": "stroop-trial-1-incongruent-22", "trial_type": "html-keyboard-response", "trial_index": 140, "time_elapsed": 306275, "internal_node_id": "0.0-6.0-45.0"}}, {"uniqueid": "w99438415:a78502938", "current_trial": 141, "dateTime": 1664873584530, "trialdata": {"rt": 491, "stimulus": "<p id='stroop-text' class='stroop-yellow'>RED</p>", "response": "y", "stimulus-type": "incongruent", "word": "red", "color": "yellow", "correct_response": "y", "trial_id": "stroop-trial-1-incongruent-26", "trial_type": "html-keyboard-response", "trial_index": 141, "time_elapsed": 307273, "internal_node_id": "0.0-6.0-46.0"}}, {"uniqueid": "w99438415:a78502938", "current_trial": 142, "dateTime": 1664873586773, "trialdata": {"rt": 1738, "stimulus": "<p id='stroop-text' class='stroop-green'>RED</p>", "response": "g", "stimulus-type": "incongruent", "word": "red", "color": "green", "correct_response": "g", "trial_id": "stroop-trial-1-incongruent-17", "trial_type": "html-keyboard-response", "trial_index": 142, "time_elapsed": 309516, "internal_node_id": "0.0-6.0-47.0"}}, {"uniqueid": "w99438415:a78502938", "current_trial": 143, "dateTime": 1664873587758, "trialdata": {"rt": 478, "stimulus": "<p id='stroop-text' class='stroop-green'>RED</p>", "response": "g", "stimulus-type": "incongruent", "word": "red", "color": "green", "correct_response": "g", "trial_id": "stroop-trial-1-incongruent-19", "trial_type": "html-keyboard-response", "trial_index": 143, "time_elapsed": 310501, "internal_node_id": "0.0-6.0-48.0"}}, {"uniqueid": "w99438415:a78502938", "current_trial": 144, "dateTime": 1664873588875, "trialdata": {"rt": 612, "stimulus": "<p id='stroop-text' class='stroop-red'>SHIP</p>", "response": "r", "stimulus-type": "unrelated", "word": "SHIP", "color": "red", "correct_response": "r", "trial_id": "stroop-trial-1-unrelated-1", "trial_type": "html-keyboard-response", "trial_index": 144, "time_elapsed": 311617, "internal_node_id": "0.0-6.0-49.0"}}, {"uniqueid": "w99438415:a78502938", "current_trial": 145, "dateTime": 1664873590478, "trialdata": {"rt": 1096, "stimulus": "<p id='stroop-text' class='stroop-blue'>YELLOW</p>", "response": "b", "stimulus-type": "incongruent", "word": "yellow", "color": "blue", "correct_response": "b", "trial_id": "stroop-trial-1-incongruent-4", "trial_type": "html-keyboard-response", "trial_index": 145, "time_elapsed": 313220, "internal_node_id": "0.0-6.0-50.0"}}, {"uniqueid": "w99438415:a78502938", "current_trial": 146, "dateTime": 1664873591878, "trialdata": {"rt": 895, "stimulus": "<p id='stroop-text' class='stroop-yellow'>RED</p>", "response": "y", "stimulus-type": "incongruent", "word": "red", "color": "yellow", "correct_response": "y", "trial_id": "stroop-trial-1-incongruent-8", "trial_type": "html-keyboard-response", "trial_index": 146, "time_elapsed": 314620, "internal_node_id": "0.0-6.0-51.0"}}, {"uniqueid": "w99438415:a78502938", "current_trial": 147, "dateTime": 1664873592792, "trialdata": {"rt": 409, "stimulus": "<p id='stroop-text' class='stroop-yellow'>BRIDGE</p>", "response": "y", "stimulus-type": "unrelated", "word": "BRIDGE", "color": "yellow", "correct_response": "y", "trial_id": "stroop-trial-1-unrelated-13", "trial_type": "html-keyboard-response", "trial_index": 147, "time_elapsed": 315534, "internal_node_id": "0.0-6.0-52.0"}}, {"uniqueid": "w99438415:a78502938", "current_trial": 148, "dateTime": 1664873594312, "trialdata": {"rt": 1014, "stimulus": "<p id='stroop-text' class='stroop-blue'>GREEN</p>", "response": "b", "stimulus-type": "incongruent", "word": "green", "color": "blue", "correct_response": "b", "trial_id": "stroop-trial-1-incongruent-23", "trial_type": "html-keyboard-response", "trial_index": 148, "time_elapsed": 317054, "internal_node_id": "0.0-6.0-53.0"}}, {"uniqueid": "w99438415:a78502938", "current_trial": 149, "dateTime": 1664873595633, "trialdata": {"rt": 814, "stimulus": "<p id='stroop-text' class='stroop-green'>RED</p>", "response": "g", "stimulus-type": "incongruent", "word": "red", "color": "green", "correct_response": "g", "trial_id": "stroop-trial-1-incongruent-21", "trial_type": "html-keyboard-response", "trial_index": 149, "time_elapsed": 318375, "internal_node_id": "0.0-6.0-54.0"}}, {"uniqueid": "w99438415:a78502938", "current_trial": 150, "dateTime": 1664873596713, "trialdata": {"rt": 574, "stimulus": "<p id='stroop-text' class='stroop-red'>STONE</p>", "response": "r", "stimulus-type": "unrelated", "word": "STONE", "color": "red", "correct_response": "r", "trial_id": "stroop-trial-1-unrelated-17", "trial_type": "html-keyboard-response", "trial_index": 150, "time_elapsed": 319456, "internal_node_id": "0.0-6.0-55.0"}}, {"uniqueid": "w99438415:a78502938", "current_trial": 151, "dateTime": 1664873597718, "trialdata": {"rt": 499, "stimulus": "<p id='stroop-text' class='stroop-red'>RED</p>", "response": "r", "stimulus-type": "congruent", "word": "red", "color": "red", "correct_response": "r", "trial_id": "stroop-trial-1-congruent-26", "trial_type": "html-keyboard-response", "trial_index": 151, "time_elapsed": 320460, "internal_node_id": "0.0-6.0-56.0"}}, {"uniqueid": "w99438415:a78502938", "current_trial": 152, "dateTime": 1664873599205, "trialdata": {"rt": 981, "stimulus": "<p id='stroop-text' class='stroop-green'>GREEN</p>", "response": "g", "stimulus-type": "congruent", "word": "green", "color": "green", "correct_response": "g", "trial_id": "stroop-trial-1-congruent-16", "trial_type": "html-keyboard-response", "trial_index": 152, "time_elapsed": 321947, "internal_node_id": "0.0-6.0-57.0"}}, {"uniqueid": "w99438415:a78502938", "current_trial": 153, "dateTime": 1664873600334, "trialdata": {"rt": 625, "stimulus": "<p id='stroop-text' class='stroop-red'>RED</p>", "response": "r", "stimulus-type": "congruent", "word": "red", "color": "red", "correct_response": "r", "trial_id": "stroop-trial-1-congruent-4", "trial_type": "html-keyboard-response", "trial_index": 153, "time_elapsed": 323076, "internal_node_id": "0.0-6.0-58.0"}}, {"uniqueid": "w99438415:a78502938", "current_trial": 154, "dateTime": 1664873602148, "trialdata": {"rt": 1306, "stimulus": "<p id='stroop-text' class='stroop-blue'>YELLOW</p>", "response": "b", "stimulus-type": "incongruent", "word": "yellow", "color": "blue", "correct_response": "b", "trial_id": "stroop-trial-1-incongruent-13", "trial_type": "html-keyboard-response", "trial_index": 154, "time_elapsed": 324890, "internal_node_id": "0.0-6.0-59.0"}}, {"uniqueid": "w99438415:a78502938", "current_trial": 155, "dateTime": 1664873603344, "trialdata": {"rt": 689, "stimulus": "<p id='stroop-text' class='stroop-yellow'>YELLOW</p>", "response": "y", "stimulus-type": "congruent", "word": "yellow", "color": "yellow", "correct_response": "y", "trial_id": "stroop-trial-1-congruent-14", "trial_type": "html-keyboard-response", "trial_index": 155, "time_elapsed": 326086, "internal_node_id": "0.0-6.0-60.0"}}, {"uniqueid": "w99438415:a78502938", "current_trial": 156, "dateTime": 1664873604481, "trialdata": {"rt": 632, "stimulus": "<p id='stroop-text' class='stroop-yellow'>GREEN</p>", "response": "y", "stimulus-type": "incongruent", "word": "green", "color": "yellow", "correct_response": "y", "trial_id": "stroop-trial-1-incongruent-18", "trial_type": "html-keyboard-response", "trial_index": 156, "time_elapsed": 327224, "internal_node_id": "0.0-6.0-61.0"}}, {"uniqueid": "w99438415:a78502938", "current_trial": 157, "dateTime": 1664873605539, "trialdata": {"rt": 553, "stimulus": "<p id='stroop-text' class='stroop-blue'>YELLOW</p>", "response": "b", "stimulus-type": "incongruent", "word": "yellow", "color": "blue", "correct_response": "b", "trial_id": "stroop-trial-1-incongruent-9", "trial_type": "html-keyboard-response", "trial_index": 157, "time_elapsed": 328282, "internal_node_id": "0.0-6.0-62.0"}}, {"uniqueid": "w99438415:a78502938", "current_trial": 158, "dateTime": 1664873606650, "trialdata": {"rt": 605, "stimulus": "<p id='stroop-text' class='stroop-yellow'>BOTTLE</p>", "response": "y", "stimulus-type": "unrelated", "word": "BOTTLE", "color": "yellow", "correct_response": "y", "trial_id": "stroop-trial-1-unrelated-2", "trial_type": "html-keyboard-response", "trial_index": 158, "time_elapsed": 329392, "internal_node_id": "0.0-6.0-63.0"}}, {"uniqueid": "w99438415:a78502938", "current_trial": 159, "dateTime": 1664873607708, "trialdata": {"rt": 551, "stimulus": "<p id='stroop-text' class='stroop-green'>DOG</p>", "response": "g", "stimulus-type": "unrelated", "word": "DOG", "color": "green", "correct_response": "g", "trial_id": "stroop-trial-1-unrelated-12", "trial_type": "html-keyboard-response", "trial_index": 159, "time_elapsed": 330451, "internal_node_id": "0.0-6.0-64.0"}}, {"uniqueid": "w99438415:a78502938", "current_trial": 160, "dateTime": 1664873608586, "trialdata": {"rt": 371, "stimulus": "<p id='stroop-text' class='stroop-green'>BRAIN</p>", "response": "g", "stimulus-type": "unrelated", "word": "BRAIN", "color": "green", "correct_response": "g", "trial_id": "stroop-trial-1-unrelated-19", "trial_type": "html-keyboard-response", "trial_index": 160, "time_elapsed": 331329, "internal_node_id": "0.0-6.0-65.0"}}, {"uniqueid": "w99438415:a78502938", "current_trial": 161, "dateTime": 1664873609616, "trialdata": {"rt": 524, "stimulus": "<p id='stroop-text' class='stroop-red'>RED</p>", "response": "r", "stimulus-type": "congruent", "word": "red", "color": "red", "correct_response": "r", "trial_id": "stroop-trial-1-congruent-30", "trial_type": "html-keyboard-response", "trial_index": 161, "time_elapsed": 332358, "internal_node_id": "0.0-6.0-66.0"}}, {"uniqueid": "w99438415:a78502938", "current_trial": 162, "dateTime": 1664873610998, "trialdata": {"rt": 877, "stimulus": "<p id='stroop-text' class='stroop-blue'>BOTTLE</p>", "response": "b", "stimulus-type": "unrelated", "word": "BOTTLE", "color": "blue", "correct_response": "b", "trial_id": "stroop-trial-1-unrelated-26", "trial_type": "html-keyboard-response", "trial_index": 162, "time_elapsed": 333741, "internal_node_id": "0.0-6.0-67.0"}}, {"uniqueid": "w99438415:a78502938", "current_trial": 163, "dateTime": 1664873611980, "trialdata": {"rt": 476, "stimulus": "<p id='stroop-text' class='stroop-blue'>YELLOW</p>", "response": "b", "stimulus-type": "incongruent", "word": "yellow", "color": "blue", "correct_response": "b", "trial_id": "stroop-trial-1-incongruent-10", "trial_type": "html-keyboard-response", "trial_index": 163, "time_elapsed": 334723, "internal_node_id": "0.0-6.0-68.0"}}, {"uniqueid": "w99438415:a78502938", "current_trial": 164, "dateTime": 1664873613317, "trialdata": {"rt": 831, "stimulus": "<p id='stroop-text' class='stroop-red'>RED</p>", "response": "r", "stimulus-type": "congruent", "word": "red", "color": "red", "correct_response": "r", "trial_id": "stroop-trial-1-congruent-3", "trial_type": "html-keyboard-response", "trial_index": 164, "time_elapsed": 336060, "internal_node_id": "0.0-6.0-69.0"}}, {"uniqueid": "w99438415:a78502938", "current_trial": 165, "dateTime": 1664873614548, "trialdata": {"rt": 725, "stimulus": "<p id='stroop-text' class='stroop-blue'>RED</p>", "response": "b", "stimulus-type": "incongruent", "word": "red", "color": "blue", "correct_response": "b", "trial_id": "stroop-trial-1-incongruent-1", "trial_type": "html-keyboard-response", "trial_index": 165, "time_elapsed": 337291, "internal_node_id": "0.0-6.0-70.0"}}, {"uniqueid": "w99438415:a78502938", "current_trial": 166, "dateTime": 1664873616247, "trialdata": {"rt": 1192, "stimulus": "<p id='stroop-text' class='stroop-yellow'>GREEN</p>", "response": "y", "stimulus-type": "incongruent", "word": "green", "color": "yellow", "correct_response": "y", "trial_id": "stroop-trial-1-incongruent-28", "trial_type": "html-keyboard-response", "trial_index": 166, "time_elapsed": 338990, "internal_node_id": "0.0-6.0-71.0"}}, {"uniqueid": "w99438415:a78502938", "current_trial": 167, "dateTime": 1664873617559, "trialdata": {"rt": 806, "stimulus": "<p id='stroop-text' class='stroop-green'>GREEN</p>", "response": "g", "stimulus-type": "congruent", "word": "green", "color": "green", "correct_response": "g", "trial_id": "stroop-trial-1-congruent-17", "trial_type": "html-keyboard-response", "trial_index": 167, "time_elapsed": 340301, "internal_node_id": "0.0-6.0-72.0"}}, {"uniqueid": "w99438415:a78502938", "current_trial": 168, "dateTime": 1664873619523, "trialdata": {"rt": 1456, "stimulus": "<p id='stroop-text' class='stroop-blue'>GREEN</p>", "response": "b", "stimulus-type": "incongruent", "word": "green", "color": "blue", "correct_response": "b", "trial_id": "stroop-trial-1-incongruent-2", "trial_type": "html-keyboard-response", "trial_index": 168, "time_elapsed": 342265, "internal_node_id": "0.0-6.0-73.0"}}, {"uniqueid": "w99438415:a78502938", "current_trial": 169, "dateTime": 1664873620646, "trialdata": {"rt": 617, "stimulus": "<p id='stroop-text' class='stroop-red'>GREEN</p>", "response": "r", "stimulus-type": "incongruent", "word": "green", "color": "red", "correct_response": "r", "trial_id": "stroop-trial-1-incongruent-14", "trial_type": "html-keyboard-response", "trial_index": 169, "time_elapsed": 343388, "internal_node_id": "0.0-6.0-74.0"}}, {"uniqueid": "w99438415:a78502938", "current_trial": 170, "dateTime": 1664873621690, "trialdata": {"rt": 535, "stimulus": "<p id='stroop-text' class='stroop-blue'>BLUE</p>", "response": "b", "stimulus-type": "congruent", "word": "blue", "color": "blue", "correct_response": "b", "trial_id": "stroop-trial-1-congruent-10", "trial_type": "html-keyboard-response", "trial_index": 170, "time_elapsed": 344432, "internal_node_id": "0.0-6.0-75.0"}}, {"uniqueid": "w99438415:a78502938", "current_trial": 171, "dateTime": 1664873623044, "trialdata": {"rt": 848, "stimulus": "<p id='stroop-text' class='stroop-yellow'>STONE</p>", "response": "y", "stimulus-type": "unrelated", "word": "STONE", "color": "yellow", "correct_response": "y", "trial_id": "stroop-trial-1-unrelated-21", "trial_type": "html-keyboard-response", "trial_index": 171, "time_elapsed": 345787, "internal_node_id": "0.0-6.0-76.0"}}, {"uniqueid": "w99438415:a78502938", "current_trial": 172, "dateTime": 1664873624166, "trialdata": {"rt": 617, "stimulus": "<p id='stroop-text' class='stroop-yellow'>BLUE</p>", "response": "y", "stimulus-type": "incongruent", "word": "blue", "color": "yellow", "correct_response": "y", "trial_id": "stroop-trial-1-incongruent-6", "trial_type": "html-keyboard-response", "trial_index": 172, "time_elapsed": 346909, "internal_node_id": "0.0-6.0-77.0"}}, {"uniqueid": "w99438415:a78502938", "current_trial": 173, "dateTime": 1664873625665, "trialdata": {"rt": 991, "stimulus": "<p id='stroop-text' class='stroop-green'>BRAIN</p>", "response": "g", "stimulus-type": "unrelated", "word": "BRAIN", "color": "green", "correct_response": "g", "trial_id": "stroop-trial-1-unrelated-9", "trial_type": "html-keyboard-response", "trial_index": 173, "time_elapsed": 348407, "internal_node_id": "0.0-6.0-78.0"}}, {"uniqueid": "w99438415:a78502938", "current_trial": 174, "dateTime": 1664873627292, "trialdata": {"rt": 1122, "stimulus": "<p id='stroop-text' class='stroop-yellow'>BOTTLE</p>", "response": "y", "stimulus-type": "unrelated", "word": "BOTTLE", "color": "yellow", "correct_response": "y", "trial_id": "stroop-trial-1-unrelated-10", "trial_type": "html-keyboard-response", "trial_index": 174, "time_elapsed": 350034, "internal_node_id": "0.0-6.0-79.0"}}, {"uniqueid": "w99438415:a78502938", "current_trial": 175, "dateTime": 1664873628493, "trialdata": {"rt": 693, "stimulus": "<p id='stroop-text' class='stroop-green'>BLUE</p>", "response": "g", "stimulus-type": "incongruent", "word": "blue", "color": "green", "correct_response": "g", "trial_id": "stroop-trial-1-incongruent-29", "trial_type": "html-keyboard-response", "trial_index": 175, "time_elapsed": 351236, "internal_node_id": "0.0-6.0-80.0"}}, {"uniqueid": "w99438415:a78502938", "current_trial": 176, "dateTime": 1664873629460, "trialdata": {"rt": 461, "stimulus": "<p id='stroop-text' class='stroop-green'>BLUE</p>", "response": "g", "stimulus-type": "incongruent", "word": "blue", "color": "green", "correct_response": "g", "trial_id": "stroop-trial-1-incongruent-11", "trial_type": "html-keyboard-response", "trial_index": 176, "time_elapsed": 352202, "internal_node_id": "0.0-6.0-81.0"}}, {"uniqueid": "w99438415:a78502938", "current_trial": 177, "dateTime": 1664873631872, "trialdata": {"rt": 1906, "stimulus": "<p id='stroop-text' class='stroop-red'>BRIDGE</p>", "response": "r", "stimulus-type": "unrelated", "word": "BRIDGE", "color": "red", "correct_response": "r", "trial_id": "stroop-trial-1-unrelated-24", "trial_type": "html-keyboard-response", "trial_index": 177, "time_elapsed": 354615, "internal_node_id": "0.0-6.0-82.0"}}, {"uniqueid": "w99438415:a78502938", "current_trial": 178, "dateTime": 1664873634743, "trialdata": {"rt": 2366, "stimulus": "<p id='stroop-text' class='stroop-blue'>SHIP</p>", "response": "b", "stimulus-type": "unrelated", "word": "SHIP", "color": "blue", "correct_response": "b", "trial_id": "stroop-trial-1-unrelated-7", "trial_type": "html-keyboard-response", "trial_index": 178, "time_elapsed": 357486, "internal_node_id": "0.0-6.0-83.0"}}, {"uniqueid": "w99438415:a78502938", "current_trial": 179, "dateTime": 1664873635952, "trialdata": {"rt": 703, "stimulus": "<p id='stroop-text' class='stroop-yellow'>STONE</p>", "response": "y", "stimulus-type": "unrelated", "word": "STONE", "color": "yellow", "correct_response": "y", "trial_id": "stroop-trial-1-unrelated-16", "trial_type": "html-keyboard-response", "trial_index": 179, "time_elapsed": 358695, "internal_node_id": "0.0-6.0-84.0"}}, {"uniqueid": "w99438415:a78502938", "current_trial": 180, "dateTime": 1664873637141, "trialdata": {"rt": 682, "stimulus": "<p id='stroop-text' class='stroop-yellow'>DOG</p>", "response": "y", "stimulus-type": "unrelated", "word": "DOG", "color": "yellow", "correct_response": "y", "trial_id": "stroop-trial-1-unrelated-22", "trial_type": "html-keyboard-response", "trial_index": 180, "time_elapsed": 359884, "internal_node_id": "0.0-6.0-85.0"}}, {"uniqueid": "w99438415:a78502938", "current_trial": 181, "dateTime": 1664873638306, "trialdata": {"rt": 659, "stimulus": "<p id='stroop-text' class='stroop-red'>BOTTLE</p>", "response": "r", "stimulus-type": "unrelated", "word": "BOTTLE", "color": "red", "correct_response": "r", "trial_id": "stroop-trial-1-unrelated-14", "trial_type": "html-keyboard-response", "trial_index": 181, "time_elapsed": 361049, "internal_node_id": "0.0-6.0-86.0"}}, {"uniqueid": "w99438415:a78502938", "current_trial": 182, "dateTime": 1664873639685, "trialdata": {"rt": 872, "stimulus": "<p id='stroop-text' class='stroop-blue'>BLUE</p>", "response": "b", "stimulus-type": "congruent", "word": "blue", "color": "blue", "correct_response": "b", "trial_id": "stroop-trial-1-congruent-5", "trial_type": "html-keyboard-response", "trial_index": 182, "time_elapsed": 362427, "internal_node_id": "0.0-6.0-87.0"}}, {"uniqueid": "w99438415:a78502938", "current_trial": 183, "dateTime": 1664873640609, "trialdata": {"rt": 418, "stimulus": "<p id='stroop-text' class='stroop-blue'>GREEN</p>", "response": "b", "stimulus-type": "incongruent", "word": "green", "color": "blue", "correct_response": "b", "trial_id": "stroop-trial-1-incongruent-15", "trial_type": "html-keyboard-response", "trial_index": 183, "time_elapsed": 363351, "internal_node_id": "0.0-6.0-88.0"}}, {"uniqueid": "w99438415:a78502938", "current_trial": 184, "dateTime": 1664873641659, "trialdata": {"rt": 544, "stimulus": "<p id='stroop-text' class='stroop-red'>RED</p>", "response": "r", "stimulus-type": "congruent", "word": "red", "color": "red", "correct_response": "r", "trial_id": "stroop-trial-1-congruent-15", "trial_type": "html-keyboard-response", "trial_index": 184, "time_elapsed": 364401, "internal_node_id": "0.0-6.0-89.0"}}, {"uniqueid": "w99438415:a78502938", "current_trial": 185, "dateTime": 1664873644179, "trialdata": {"rt": 2013, "stimulus": "  <h1> End of block! </h1>\n\n  You have reached the end of the block 2/5. If you need a short break, feel free to take one now before moving on.\n\n  <br><br>\n  In the next block, you will complete another 90 rounds of this game.\n\n  <br><br>\n  <div style='text-align: center;'>Press <code>space</code> to begin.</div>\n  <br><br>\n<div style='text-align: center;'>(If the experiment doesn't continue, try clicking on the text and then pressing <code>space</code>.)</div>", "response": " ", "trial_id": "stroop_1_ready_3", "trial_type": "html-keyboard-response", "trial_index": 185, "time_elapsed": 366922, "internal_node_id": "0.0-7.0"}}, {"uniqueid": "w99438415:a78502938", "current_trial": 186, "dateTime": 1664873645386, "trialdata": {"rt": 1200, "stimulus": "<p id='stroop-text' class='stroop-blue'>DOG</p>", "response": "b", "stimulus-type": "unrelated", "word": "DOG", "color": "blue", "correct_response": "b", "trial_id": "stroop-trial-1-unrelated-4", "trial_type": "html-keyboard-response", "trial_index": 186, "time_elapsed": 368129, "internal_node_id": "0.0-8.0-0.0"}}, {"uniqueid": "w99438415:a78502938", "current_trial": 187, "dateTime": 1664873646504, "trialdata": {"rt": 612, "stimulus": "<p id='stroop-text' class='stroop-red'>RED</p>", "response": "r", "stimulus-type": "congruent", "word": "red", "color": "red", "correct_response": "r", "trial_id": "stroop-trial-1-congruent-26", "trial_type": "html-keyboard-response", "trial_index": 187, "time_elapsed": 369246, "internal_node_id": "0.0-8.0-1.0"}}, {"uniqueid": "w99438415:a78502938", "current_trial": 188, "dateTime": 1664873647586, "trialdata": {"rt": 575, "stimulus": "<p id='stroop-text' class='stroop-yellow'>YELLOW</p>", "response": "y", "stimulus-type": "congruent", "word": "yellow", "color": "yellow", "correct_response": "y", "trial_id": "stroop-trial-1-congruent-22", "trial_type": "html-keyboard-response", "trial_index": 188, "time_elapsed": 370328, "internal_node_id": "0.0-8.0-2.0"}}, {"uniqueid": "w99438415:a78502938", "current_trial": 189, "dateTime": 1664873648711, "trialdata": {"rt": 618, "stimulus": "<p id='stroop-text' class='stroop-yellow'>FORK</p>", "response": "y", "stimulus-type": "unrelated", "word": "FORK", "color": "yellow", "correct_response": "y", "trial_id": "stroop-trial-1-unrelated-21", "trial_type": "html-keyboard-response", "trial_index": 189, "time_elapsed": 371454, "internal_node_id": "0.0-8.0-3.0"}}, {"uniqueid": "w99438415:a78502938", "current_trial": 190, "dateTime": 1664873649687, "trialdata": {"rt": 469, "stimulus": "<p id='stroop-text' class='stroop-yellow'>RED</p>", "response": "y", "stimulus-type": "incongruent", "word": "red", "color": "yellow", "correct_response": "y", "trial_id": "stroop-trial-1-incongruent-19", "trial_type": "html-keyboard-response", "trial_index": 190, "time_elapsed": 372429, "internal_node_id": "0.0-8.0-4.0"}}, {"uniqueid": "w99438415:a78502938", "current_trial": 191, "dateTime": 1664873650631, "trialdata": {"rt": 438, "stimulus": "<p id='stroop-text' class='stroop-yellow'>YELLOW</p>", "response": "y", "stimulus-type": "congruent", "word": "yellow", "color": "yellow", "correct_response": "y", "trial_id": "stroop-trial-1-congruent-30", "trial_type": "html-keyboard-response", "trial_index": 191, "time_elapsed": 373373, "internal_node_id": "0.0-8.0-5.0"}}, {"uniqueid": "w99438415:a78502938", "current_trial": 192, "dateTime": 1664873651771, "trialdata": {"rt": 634, "stimulus": "<p id='stroop-text' class='stroop-red'>YELLOW</p>", "response": "r", "stimulus-type": "incongruent", "word": "yellow", "color": "red", "correct_response": "r", "trial_id": "stroop-trial-1-incongruent-23", "trial_type": "html-keyboard-response", "trial_index": 192, "time_elapsed": 374513, "internal_node_id": "0.0-8.0-6.0"}}, {"uniqueid": "w99438415:a78502938", "current_trial": 193, "dateTime": 1664873652879, "trialdata": {"rt": 602, "stimulus": "<p id='stroop-text' class='stroop-yellow'>STONE</p>", "response": "y", "stimulus-type": "unrelated", "word": "STONE", "color": "yellow", "correct_response": "y", "trial_id": "stroop-trial-1-unrelated-10", "trial_type": "html-keyboard-response", "trial_index": 193, "time_elapsed": 375621, "internal_node_id": "0.0-8.0-7.0"}}, {"uniqueid": "w99438415:a78502938", "current_trial": 194, "dateTime": 1664873653922, "trialdata": {"rt": 536, "stimulus": "<p id='stroop-text' class='stroop-red'>RED</p>", "response": "r", "stimulus-type": "congruent", "word": "red", "color": "red", "correct_response": "r", "trial_id": "stroop-trial-1-congruent-8", "trial_type": "html-keyboard-response", "trial_index": 194, "time_elapsed": 376665, "internal_node_id": "0.0-8.0-8.0"}}, {"uniqueid": "w99438415:a78502938", "current_trial": 195, "dateTime": 1664873655789, "trialdata": {"rt": 1360, "stimulus": "<p id='stroop-text' class='stroop-green'>BLUE</p>", "response": "g", "stimulus-type": "incongruent", "word": "blue", "color": "green", "correct_response": "g", "trial_id": "stroop-trial-1-incongruent-7", "trial_type": "html-keyboard-response", "trial_index": 195, "time_elapsed": 378531, "internal_node_id": "0.0-8.0-9.0"}}, {"uniqueid": "w99438415:a78502938", "current_trial": 196, "dateTime": 1664873656876, "trialdata": {"rt": 581, "stimulus": "<p id='stroop-text' class='stroop-red'>WINDOW</p>", "response": "r", "stimulus-type": "unrelated", "word": "WINDOW", "color": "red", "correct_response": "r", "trial_id": "stroop-trial-1-unrelated-15", "trial_type": "html-keyboard-response", "trial_index": 196, "time_elapsed": 379618, "internal_node_id": "0.0-8.0-10.0"}}, {"uniqueid": "w99438415:a78502938", "current_trial": 197, "dateTime": 1664873658735, "trialdata": {"rt": 1352, "stimulus": "<p id='stroop-text' class='stroop-red'>YELLOW</p>", "response": "r", "stimulus-type": "incongruent", "word": "yellow", "color": "red", "correct_response": "r", "trial_id": "stroop-trial-1-incongruent-8", "trial_type": "html-keyboard-response", "trial_index": 197, "time_elapsed": 381478, "internal_node_id": "0.0-8.0-11.0"}}, {"uniqueid": "w99438415:a78502938", "current_trial": 198, "dateTime": 1664873660362, "trialdata": {"rt": 1121, "stimulus": "<p id='stroop-text' class='stroop-yellow'>SHIP</p>", "response": "y", "stimulus-type": "unrelated", "word": "SHIP", "color": "yellow", "correct_response": "y", "trial_id": "stroop-trial-1-unrelated-13", "trial_type": "html-keyboard-response", "trial_index": 198, "time_elapsed": 383105, "internal_node_id": "0.0-8.0-12.0"}}, {"uniqueid": "w99438415:a78502938", "current_trial": 199, "dateTime": 1664873662433, "trialdata": {"rt": 1565, "stimulus": "<p id='stroop-text' class='stroop-green'>GREEN</p>", "response": "g", "stimulus-type": "congruent", "word": "green", "color": "green", "correct_response": "g", "trial_id": "stroop-trial-1-congruent-9", "trial_type": "html-keyboard-response", "trial_index": 199, "time_elapsed": 385175, "internal_node_id": "0.0-8.0-13.0"}}, {"uniqueid": "w99438415:a78502938", "current_trial": 200, "dateTime": 1664873663754, "trialdata": {"rt": 815, "stimulus": "<p id='stroop-text' class='stroop-blue'>GREEN</p>", "response": "b", "stimulus-type": "incongruent", "word": "green", "color": "blue", "correct_response": "b", "trial_id": "stroop-trial-1-incongruent-26", "trial_type": "html-keyboard-response", "trial_index": 200, "time_elapsed": 386497, "internal_node_id": "0.0-8.0-14.0"}}, {"uniqueid": "w99438415:a78502938", "current_trial": 201, "dateTime": 1664873665267, "trialdata": {"rt": 1008, "stimulus": "<p id='stroop-text' class='stroop-red'>SHIP</p>", "response": "r", "stimulus-type": "unrelated", "word": "SHIP", "color": "red", "correct_response": "r", "trial_id": "stroop-trial-1-unrelated-12", "trial_type": "html-keyboard-response", "trial_index": 201, "time_elapsed": 388010, "internal_node_id": "0.0-8.0-15.0"}}, {"uniqueid": "w99438415:a78502938", "current_trial": 202, "dateTime": 1664873666568, "trialdata": {"rt": 792, "stimulus": "<p id='stroop-text' class='stroop-green'>GREEN</p>", "response": "g", "stimulus-type": "congruent", "word": "green", "color": "green", "correct_response": "g", "trial_id": "stroop-trial-1-congruent-10", "trial_type": "html-keyboard-response", "trial_index": 202, "time_elapsed": 389310, "internal_node_id": "0.0-8.0-16.0"}}, {"uniqueid": "w99438415:a78502938", "current_trial": 203, "dateTime": 1664873667476, "trialdata": {"rt": 402, "stimulus": "<p id='stroop-text' class='stroop-green'>WINDOW</p>", "response": "g", "stimulus-type": "unrelated", "word": "WINDOW", "color": "green", "correct_response": "g", "trial_id": "stroop-trial-1-unrelated-7", "trial_type": "html-keyboard-response", "trial_index": 203, "time_elapsed": 390218, "internal_node_id": "0.0-8.0-17.0"}}, {"uniqueid": "w99438415:a78502938", "current_trial": 204, "dateTime": 1664873668714, "trialdata": {"rt": 732, "stimulus": "<p id='stroop-text' class='stroop-red'>BOAT</p>", "response": "r", "stimulus-type": "unrelated", "word": "BOAT", "color": "red", "correct_response": "r", "trial_id": "stroop-trial-1-unrelated-11", "trial_type": "html-keyboard-response", "trial_index": 204, "time_elapsed": 391457, "internal_node_id": "0.0-8.0-18.0"}}, {"uniqueid": "w99438415:a78502938", "current_trial": 205, "dateTime": 1664873669855, "trialdata": {"rt": 635, "stimulus": "<p id='stroop-text' class='stroop-yellow'>GREEN</p>", "response": "y", "stimulus-type": "incongruent", "word": "green", "color": "yellow", "correct_response": "y", "trial_id": "stroop-trial-1-incongruent-30", "trial_type": "html-keyboard-response", "trial_index": 205, "time_elapsed": 392597, "internal_node_id": "0.0-8.0-19.0"}}, {"uniqueid": "w99438415:a78502938", "current_trial": 206, "dateTime": 1664873671423, "trialdata": {"rt": 1062, "stimulus": "<p id='stroop-text' class='stroop-blue'>BLUE</p>", "response": "b", "stimulus-type": "congruent", "word": "blue", "color": "blue", "correct_response": "b", "trial_id": "stroop-trial-1-congruent-1", "trial_type": "html-keyboard-response", "trial_index": 206, "time_elapsed": 394165, "internal_node_id": "0.0-8.0-20.0"}}, {"uniqueid": "w99438415:a78502938", "current_trial": 207, "dateTime": 1664873672413, "trialdata": {"rt": 484, "stimulus": "<p id='stroop-text' class='stroop-blue'>GREEN</p>", "response": "b", "stimulus-type": "incongruent", "word": "green", "color": "blue", "correct_response": "b", "trial_id": "stroop-trial-1-incongruent-10", "trial_type": "html-keyboard-response", "trial_index": 207, "time_elapsed": 395156, "internal_node_id": "0.0-8.0-21.0"}}, {"uniqueid": "w99438415:a78502938", "current_trial": 208, "dateTime": 1664873673326, "trialdata": {"rt": 406, "stimulus": "<p id='stroop-text' class='stroop-blue'>RED</p>", "response": "b", "stimulus-type": "incongruent", "word": "red", "color": "blue", "correct_response": "b", "trial_id": "stroop-trial-1-incongruent-28", "trial_type": "html-keyboard-response", "trial_index": 208, "time_elapsed": 396068, "internal_node_id": "0.0-8.0-22.0"}}, {"uniqueid": "w99438415:a78502938", "current_trial": 209, "dateTime": 1664873674485, "trialdata": {"rt": 652, "stimulus": "<p id='stroop-text' class='stroop-green'>WINDOW</p>", "response": "r", "stimulus-type": "unrelated", "word": "WINDOW", "color": "green", "correct_response": "g", "trial_id": "stroop-trial-1-unrelated-18", "trial_type": "html-keyboard-response", "trial_index": 209, "time_elapsed": 397227, "internal_node_id": "0.0-8.0-23.0"}}, {"uniqueid": "w99438415:a78502938", "current_trial": 210, "dateTime": 1664873675712, "trialdata": {"rt": 721, "stimulus": "<p id='stroop-text' class='stroop-yellow'>YELLOW</p>", "response": "y", "stimulus-type": "congruent", "word": "yellow", "color": "yellow", "correct_response": "y", "trial_id": "stroop-trial-1-congruent-27", "trial_type": "html-keyboard-response", "trial_index": 210, "time_elapsed": 398454, "internal_node_id": "0.0-8.0-24.0"}}, {"uniqueid": "w99438415:a78502938", "current_trial": 211, "dateTime": 1664873676821, "trialdata": {"rt": 602, "stimulus": "<p id='stroop-text' class='stroop-yellow'>CHAIR</p>", "response": "y", "stimulus-type": "unrelated", "word": "CHAIR", "color": "yellow", "correct_response": "y", "trial_id": "stroop-trial-1-unrelated-23", "trial_type": "html-keyboard-response", "trial_index": 211, "time_elapsed": 399564, "internal_node_id": "0.0-8.0-25.0"}}, {"uniqueid": "w99438415:a78502938", "current_trial": 212, "dateTime": 1664873679157, "trialdata": {"rt": 1830, "stimulus": "<p id='stroop-text' class='stroop-yellow'>RED</p>", "response": "y", "stimulus-type": "incongruent", "word": "red", "color": "yellow", "correct_response": "y", "trial_id": "stroop-trial-1-incongruent-3", "trial_type": "html-keyboard-response", "trial_index": 212, "time_elapsed": 401900, "internal_node_id": "0.0-8.0-26.0"}}, {"uniqueid": "w99438415:a78502938", "current_trial": 213, "dateTime": 1664873680498, "trialdata": {"rt": 834, "stimulus": "<p id='stroop-text' class='stroop-blue'>BLUE</p>", "response": "b", "stimulus-type": "congruent", "word": "blue", "color": "blue", "correct_response": "b", "trial_id": "stroop-trial-1-congruent-24", "trial_type": "html-keyboard-response", "trial_index": 213, "time_elapsed": 403241, "internal_node_id": "0.0-8.0-27.0"}}, {"uniqueid": "w99438415:a78502938", "current_trial": 214, "dateTime": 1664873681828, "trialdata": {"rt": 823, "stimulus": "<p id='stroop-text' class='stroop-green'>MONKEY</p>", "response": "g", "stimulus-type": "unrelated", "word": "MONKEY", "color": "green", "correct_response": "g", "trial_id": "stroop-trial-1-unrelated-1", "trial_type": "html-keyboard-response", "trial_index": 214, "time_elapsed": 404571, "internal_node_id": "0.0-8.0-28.0"}}, {"uniqueid": "w99438415:a78502938", "current_trial": 215, "dateTime": 1664873682870, "trialdata": {"rt": 535, "stimulus": "<p id='stroop-text' class='stroop-green'>BRIDGE</p>", "response": "g", "stimulus-type": "unrelated", "word": "BRIDGE", "color": "green", "correct_response": "g", "trial_id": "stroop-trial-1-unrelated-14", "trial_type": "html-keyboard-response", "trial_index": 215, "time_elapsed": 405613, "internal_node_id": "0.0-8.0-29.0"}}, {"uniqueid": "w99438415:a78502938", "current_trial": 216, "dateTime": 1664873683955, "trialdata": {"rt": 577, "stimulus": "<p id='stroop-text' class='stroop-green'>DOG</p>", "response": "g", "stimulus-type": "unrelated", "word": "DOG", "color": "green", "correct_response": "g", "trial_id": "stroop-trial-1-unrelated-24", "trial_type": "html-keyboard-response", "trial_index": 216, "time_elapsed": 406698, "internal_node_id": "0.0-8.0-30.0"}}, {"uniqueid": "w99438415:a78502938", "current_trial": 217, "dateTime": 1664873685115, "trialdata": {"rt": 655, "stimulus": "<p id='stroop-text' class='stroop-red'>RED</p>", "response": "r", "stimulus-type": "congruent", "word": "red", "color": "red", "correct_response": "r", "trial_id": "stroop-trial-1-congruent-14", "trial_type": "html-keyboard-response", "trial_index": 217, "time_elapsed": 407858, "internal_node_id": "0.0-8.0-31.0"}}, {"uniqueid": "w99438415:a78502938", "current_trial": 218, "dateTime": 1664873686269, "trialdata": {"rt": 647, "stimulus": "<p id='stroop-text' class='stroop-red'>RED</p>", "response": "r", "stimulus-type": "congruent", "word": "red", "color": "red", "correct_response": "r", "trial_id": "stroop-trial-1-congruent-19", "trial_type": "html-keyboard-response", "trial_index": 218, "time_elapsed": 409011, "internal_node_id": "0.0-8.0-32.0"}}, {"uniqueid": "w99438415:a78502938", "current_trial": 219, "dateTime": 1664873688069, "trialdata": {"rt": 1293, "stimulus": "<p id='stroop-text' class='stroop-green'>BLUE</p>", "response": "g", "stimulus-type": "incongruent", "word": "blue", "color": "green", "correct_response": "g", "trial_id": "stroop-trial-1-incongruent-25", "trial_type": "html-keyboard-response", "trial_index": 219, "time_elapsed": 410812, "internal_node_id": "0.0-8.0-33.0"}}, {"uniqueid": "w99438415:a78502938", "current_trial": 220, "dateTime": 1664873689191, "trialdata": {"rt": 614, "stimulus": "<p id='stroop-text' class='stroop-yellow'>YELLOW</p>", "response": "y", "stimulus-type": "congruent", "word": "yellow", "color": "yellow", "correct_response": "y", "trial_id": "stroop-trial-1-congruent-5", "trial_type": "html-keyboard-response", "trial_index": 220, "time_elapsed": 411934, "internal_node_id": "0.0-8.0-34.0"}}, {"uniqueid": "w99438415:a78502938", "current_trial": 221, "dateTime": 1664873690829, "trialdata": {"rt": 1131, "stimulus": "<p id='stroop-text' class='stroop-yellow'>BLUE</p>", "response": "y", "stimulus-type": "incongruent", "word": "blue", "color": "yellow", "correct_response": "y", "trial_id": "stroop-trial-1-incongruent-6", "trial_type": "html-keyboard-response", "trial_index": 221, "time_elapsed": 413571, "internal_node_id": "0.0-8.0-35.0"}}, {"uniqueid": "w99438415:a78502938", "current_trial": 222, "dateTime": 1664873691841, "trialdata": {"rt": 507, "stimulus": "<p id='stroop-text' class='stroop-yellow'>YELLOW</p>", "response": "y", "stimulus-type": "congruent", "word": "yellow", "color": "yellow", "correct_response": "y", "trial_id": "stroop-trial-1-congruent-4", "tri