{"condition": 0, "counterbalance": 0, "assignmentId": "a14824264", "workerId": "w71977323", "hitId": "h84471236", "currenttrial": 959, "bonus": 0, "data": [{"uniqueid": "w71977323:a14824264", "current_trial": 0, "dateTime": 1664874720527, "trialdata": {"success": true, "trial_type": "fullscreen", "trial_index": 0, "time_elapsed": 5061, "internal_node_id": "0.0-0.0"}}, {"uniqueid": "w71977323:a14824264", "current_trial": 1, "dateTime": 1664874722880, "trialdata": {"view_history": [{"page_index": 0, "viewing_time": 2348}], "rt": 2349, "trial_id": "exp_instructions_distractor", "trial_type": "instructions", "trial_index": 1, "time_elapsed": 7414, "internal_node_id": "0.0-1.0"}}, {"uniqueid": "w71977323:a14824264", "current_trial": 2, "dateTime": 1664874749927, "trialdata": {"view_history": [{"page_index": 0, "viewing_time": 27044}], "rt": 27044, "trial_id": "color_game_instructions", "trial_type": "instructions", "trial_index": 2, "time_elapsed": 34461, "internal_node_id": "0.0-2.0"}}, {"uniqueid": "w71977323:a14824264", "current_trial": 3, "dateTime": 1664874768916, "trialdata": {"rt": 18986, "stimulus": "<h1> Get ready to start the game! </h1>\n\nThank you for reading the instructions. Get ready start with the first of 5 block(s) of this game.\n<br><br>\nIn this first block, you will complete 90 rounds of this game before moving on.\n<br><br>\nRemember, the better you perform, the bigger your bonus will be!\n<br><br>\n<div style='text-align: center;'>Press <code>space</code> to begin.</div>", "response": " ", "trial_id": "stroop_1_ready_1", "trial_type": "html-keyboard-response", "trial_index": 3, "time_elapsed": 53450, "internal_node_id": "0.0-3.0"}}, {"uniqueid": "w71977323:a14824264", "current_trial": 4, "dateTime": 1664874772942, "trialdata": {"rt": 4023, "stimulus": "<p id='stroop-text' class='stroop-yellow'>RED</p>", "response": "g", "stimulus-type": "incongruent", "word": "red", "color": "yellow", "correct_response": "y", "trial_id": "stroop-trial-1-incongruent-29", "trial_type": "html-keyboard-response", "trial_index": 4, "time_elapsed": 57476, "internal_node_id": "0.0-4.0-0.0"}}, {"uniqueid": "w71977323:a14824264", "current_trial": 5, "dateTime": 1664874775722, "trialdata": {"rt": 2276, "stimulus": "<p id='stroop-text' class='stroop-blue'>RED</p>", "response": "b", "stimulus-type": "incongruent", "word": "red", "color": "blue", "correct_response": "b", "trial_id": "stroop-trial-1-incongruent-15", "trial_type": "html-keyboard-response", "trial_index": 5, "time_elapsed": 60256, "internal_node_id": "0.0-4.0-1.0"}}, {"uniqueid": "w71977323:a14824264", "current_trial": 6, "dateTime": 1664874778861, "trialdata": {"rt": 2632, "stimulus": "<p id='stroop-text' class='stroop-red'>BOTTLE</p>", "response": "r", "stimulus-type": "unrelated", "word": "BOTTLE", "color": "red", "correct_response": "r", "trial_id": "stroop-trial-1-unrelated-9", "trial_type": "html-keyboard-response", "trial_index": 6, "time_elapsed": 63394, "internal_node_id": "0.0-4.0-2.0"}}, {"uniqueid": "w71977323:a14824264", "current_trial": 7, "dateTime": 1664874780754, "trialdata": {"rt": 1386, "stimulus": "<p id='stroop-text' class='stroop-blue'>BOAT</p>", "response": "b", "stimulus-type": "unrelated", "word": "BOAT", "color": "blue", "correct_response": "b", "trial_id": "stroop-trial-1-unrelated-5", "trial_type": "html-keyboard-response", "trial_index": 7, "time_elapsed": 65287, "internal_node_id": "0.0-4.0-3.0"}}, {"uniqueid": "w71977323:a14824264", "current_trial": 8, "dateTime": 1664874783397, "trialdata": {"rt": 2137, "stimulus": "<p id='stroop-text' class='stroop-yellow'>YELLOW</p>", "response": "g", "stimulus-type": "congruent", "word": "yellow", "color": "yellow", "correct_response": "y", "trial_id": "stroop-trial-1-congruent-24", "trial_type": "html-keyboard-response", "trial_index": 8, "time_elapsed": 67931, "internal_node_id": "0.0-4.0-4.0"}}, {"uniqueid": "w71977323:a14824264", "current_trial": 9, "dateTime": 1664874785980, "trialdata": {"rt": 2078, "stimulus": "<p id='stroop-text' class='stroop-green'>GREEN</p>", "response": "g", "stimulus-type": "congruent", "word": "green", "color": "green", "correct_response": "g", "trial_id": "stroop-trial-1-congruent-12", "trial_type": "html-keyboard-response", "trial_index": 9, "time_elapsed": 70514, "internal_node_id": "0.0-4.0-5.0"}}, {"uniqueid": "w71977323:a14824264", "current_trial": 10, "dateTime": 1664874789353, "trialdata": {"rt": 2866, "stimulus": "<p id='stroop-text' class='stroop-red'>MONKEY</p>", "response": "r", "stimulus-type": "unrelated", "word": "MONKEY", "color": "red", "correct_response": "r", "trial_id": "stroop-trial-1-unrelated-21", "trial_type": "html-keyboard-response", "trial_index": 10, "time_elapsed": 73887, "internal_node_id": "0.0-4.0-6.0"}}, {"uniqueid": "w71977323:a14824264", "current_trial": 11, "dateTime": 1664874793330, "trialdata": {"rt": 3472, "stimulus": "<p id='stroop-text' class='stroop-green'>BLUE</p>", "response": "g", "stimulus-type": "incongruent", "word": "blue", "color": "green", "correct_response": "g", "trial_id": "stroop-trial-1-incongruent-16", "trial_type": "html-keyboard-response", "trial_index": 11, "time_elapsed": 77864, "internal_node_id": "0.0-4.0-7.0"}}, {"uniqueid": "w71977323:a14824264", "current_trial": 12, "dateTime": 1664874794972, "trialdata": {"rt": 1135, "stimulus": "<p id='stroop-text' class='stroop-red'>YELLOW</p>", "response": "r", "stimulus-type": "incongruent", "word": "yellow", "color": "red", "correct_response": "r", "trial_id": "stroop-trial-1-incongruent-24", "trial_type": "html-keyboard-response", "trial_index": 12, "time_elapsed": 79506, "internal_node_id": "0.0-4.0-8.0"}}, {"uniqueid": "w71977323:a14824264", "current_trial": 13, "dateTime": 1664874796822, "trialdata": {"rt": 1343, "stimulus": "<p id='stroop-text' class='stroop-green'>BLUE</p>", "response": "g", "stimulus-type": "incongruent", "word": "blue", "color": "green", "correct_response": "g", "trial_id": "stroop-trial-1-incongruent-20", "trial_type": "html-keyboard-response", "trial_index": 13, "time_elapsed": 81356, "internal_node_id": "0.0-4.0-9.0"}}, {"uniqueid": "w71977323:a14824264", "current_trial": 14, "dateTime": 1664874799099, "trialdata": {"rt": 1771, "stimulus": "<p id='stroop-text' class='stroop-blue'>BLUE</p>", "response": "r", "stimulus-type": "congruent", "word": "blue", "color": "blue", "correct_response": "b", "trial_id": "stroop-trial-1-congruent-5", "trial_type": "html-keyboard-response", "trial_index": 14, "time_elapsed": 83633, "internal_node_id": "0.0-4.0-10.0"}}, {"uniqueid": "w71977323:a14824264", "current_trial": 15, "dateTime": 1664874800766, "trialdata": {"rt": 1165, "stimulus": "<p id='stroop-text' class='stroop-green'>BRAIN</p>", "response": "r", "stimulus-type": "unrelated", "word": "BRAIN", "color": "green", "correct_response": "g", "trial_id": "stroop-trial-1-unrelated-29", "trial_type": "html-keyboard-response", "trial_index": 15, "time_elapsed": 85300, "internal_node_id": "0.0-4.0-11.0"}}, {"uniqueid": "w71977323:a14824264", "current_trial": 16, "dateTime": 1664874803419, "trialdata": {"rt": 2148, "stimulus": "<p id='stroop-text' class='stroop-blue'>GREEN</p>", "response": "b", "stimulus-type": "incongruent", "word": "green", "color": "blue", "correct_response": "b", "trial_id": "stroop-trial-1-incongruent-3", "trial_type": "html-keyboard-response", "trial_index": 16, "time_elapsed": 87953, "internal_node_id": "0.0-4.0-12.0"}}, {"uniqueid": "w71977323:a14824264", "current_trial": 17, "dateTime": 1664874804477, "trialdata": {"rt": 555, "stimulus": "<p id='stroop-text' class='stroop-yellow'>BRAIN</p>", "response": "b", "stimulus-type": "unrelated", "word": "BRAIN", "color": "yellow", "correct_response": "y", "trial_id": "stroop-trial-1-unrelated-22", "trial_type": "html-keyboard-response", "trial_index": 17, "time_elapsed": 89011, "internal_node_id": "0.0-4.0-13.0"}}, {"uniqueid": "w71977323:a14824264", "current_trial": 18, "dateTime": 1664874805771, "trialdata": {"rt": 787, "stimulus": "<p id='stroop-text' class='stroop-yellow'>BOTTLE</p>", "response": "y", "stimulus-type": "unrelated", "word": "BOTTLE", "color": "yellow", "correct_response": "y", "trial_id": "stroop-trial-1-unrelated-28", "trial_type": "html-keyboard-response", "trial_index": 18, "time_elapsed": 90305, "internal_node_id": "0.0-4.0-14.0"}}, {"uniqueid": "w71977323:a14824264", "current_trial": 19, "dateTime": 1664874808771, "trialdata": {"rt": 2497, "stimulus": "<p id='stroop-text' class='stroop-red'>YELLOW</p>", "response": "r", "stimulus-type": "incongruent", "word": "yellow", "color": "red", "correct_response": "r", "trial_id": "stroop-trial-1-incongruent-28", "trial_type": "html-keyboard-response", "trial_index": 19, "time_elapsed": 93305, "internal_node_id": "0.0-4.0-15.0"}}, {"uniqueid": "w71977323:a14824264", "current_trial": 20, "dateTime": 1664874810565, "trialdata": {"rt": 1288, "stimulus": "<p id='stroop-text' class='stroop-blue'>RED</p>", "response": "b", "stimulus-type": "incongruent", "word": "red", "color": "blue", "correct_response": "b", "trial_id": "stroop-trial-1-incongruent-4", "trial_type": "html-keyboard-response", "trial_index": 20, "time_elapsed": 95099, "internal_node_id": "0.0-4.0-16.0"}}, {"uniqueid": "w71977323:a14824264", "current_trial": 21, "dateTime": 1664874812434, "trialdata": {"rt": 1367, "stimulus": "<p id='stroop-text' class='stroop-yellow'>YELLOW</p>", "response": "g", "stimulus-type": "congruent", "word": "yellow", "color": "yellow", "correct_response": "y", "trial_id": "stroop-trial-1-congruent-15", "trial_type": "html-keyboard-response", "trial_index": 21, "time_elapsed": 96967, "internal_node_id": "0.0-4.0-17.0"}}, {"uniqueid": "w71977323:a14824264", "current_trial": 22, "dateTime": 1664874814152, "trialdata": {"rt": 1212, "stimulus": "<p id='stroop-text' class='stroop-yellow'>BOTTLE</p>", "response": "y", "stimulus-type": "unrelated", "word": "BOTTLE", "color": "yellow", "correct_response": "y", "trial_id": "stroop-trial-1-unrelated-16", "trial_type": "html-keyboard-response", "trial_index": 22, "time_elapsed": 98686, "internal_node_id": "0.0-4.0-18.0"}}, {"uniqueid": "w71977323:a14824264", "current_trial": 23, "dateTime": 1664874815661, "trialdata": {"rt": 1004, "stimulus": "<p id='stroop-text' class='stroop-yellow'>GREEN</p>", "response": "y", "stimulus-type": "incongruent", "word": "green", "color": "yellow", "correct_response": "y", "trial_id": "stroop-trial-1-incongruent-2", "trial_type": "html-keyboard-response", "trial_index": 23, "time_elapsed": 100194, "internal_node_id": "0.0-4.0-19.0"}}, {"uniqueid": "w71977323:a14824264", "current_trial": 24, "dateTime": 1664874816930, "trialdata": {"rt": 763, "stimulus": "<p id='stroop-text' class='stroop-yellow'>WINDOW</p>", "response": "y", "stimulus-type": "unrelated", "word": "WINDOW", "color": "yellow", "correct_response": "y", "trial_id": "stroop-trial-1-unrelated-26", "trial_type": "html-keyboard-response", "trial_index": 24, "time_elapsed": 101463, "internal_node_id": "0.0-4.0-20.0"}}, {"uniqueid": "w71977323:a14824264", "current_trial": 25, "dateTime": 1664874819261, "trialdata": {"rt": 1829, "stimulus": "<p id='stroop-text' class='stroop-blue'>BLUE</p>", "response": "b", "stimulus-type": "congruent", "word": "blue", "color": "blue", "correct_response": "b", "trial_id": "stroop-trial-1-congruent-28", "trial_type": "html-keyboard-response", "trial_index": 25, "time_elapsed": 103794, "internal_node_id": "0.0-4.0-21.0"}}, {"uniqueid": "w71977323:a14824264", "current_trial": 26, "dateTime": 1664874820895, "trialdata": {"rt": 1128, "stimulus": "<p id='stroop-text' class='stroop-blue'>RED</p>", "response": "b", "stimulus-type": "incongruent", "word": "red", "color": "blue", "correct_response": "b", "trial_id": "stroop-trial-1-incongruent-14", "trial_type": "html-keyboard-response", "trial_index": 26, "time_elapsed": 105429, "internal_node_id": "0.0-4.0-22.0"}}, {"uniqueid": "w71977323:a14824264", "current_trial": 27, "dateTime": 1664874823388, "trialdata": {"rt": 1988, "stimulus": "<p id='stroop-text' class='stroop-green'>GREEN</p>", "response": "g", "stimulus-type": "congruent", "word": "green", "color": "green", "correct_response": "g", "trial_id": "stroop-trial-1-congruent-11", "trial_type": "html-keyboard-response", "trial_index": 27, "time_elapsed": 107921, "internal_node_id": "0.0-4.0-23.0"}}, {"uniqueid": "w71977323:a14824264", "current_trial": 28, "dateTime": 1664874825536, "trialdata": {"rt": 1646, "stimulus": "<p id='stroop-text' class='stroop-blue'>BLUE</p>", "response": "b", "stimulus-type": "congruent", "word": "blue", "color": "blue", "correct_response": "b", "trial_id": "stroop-trial-1-congruent-9", "trial_type": "html-keyboard-response", "trial_index": 28, "time_elapsed": 110070, "internal_node_id": "0.0-4.0-24.0"}}, {"uniqueid": "w71977323:a14824264", "current_trial": 29, "dateTime": 1664874827047, "trialdata": {"rt": 1008, "stimulus": "<p id='stroop-text' class='stroop-yellow'>DOG</p>", "response": "y", "stimulus-type": "unrelated", "word": "DOG", "color": "yellow", "correct_response": "y", "trial_id": "stroop-trial-1-unrelated-7", "trial_type": "html-keyboard-response", "trial_index": 29, "time_elapsed": 111581, "internal_node_id": "0.0-4.0-25.0"}}, {"uniqueid": "w71977323:a14824264", "current_trial": 30, "dateTime": 1664874828606, "trialdata": {"rt": 1055, "stimulus": "<p id='stroop-text' class='stroop-red'>DOG</p>", "response": "r", "stimulus-type": "unrelated", "word": "DOG", "color": "red", "correct_response": "r", "trial_id": "stroop-trial-1-unrelated-12", "trial_type": "html-keyboard-response", "trial_index": 30, "time_elapsed": 113139, "internal_node_id": "0.0-4.0-26.0"}}, {"uniqueid": "w71977323:a14824264", "current_trial": 31, "dateTime": 1664874829772, "trialdata": {"rt": 664, "stimulus": "<p id='stroop-text' class='stroop-red'>RED</p>", "response": "r", "stimulus-type": "congruent", "word": "red", "color": "red", "correct_response": "r", "trial_id": "stroop-trial-1-congruent-26", "trial_type": "html-keyboard-response", "trial_index": 31, "time_elapsed": 114306, "internal_node_id": "0.0-4.0-27.0"}}, {"uniqueid": "w71977323:a14824264", "current_trial": 32, "dateTime": 1664874831820, "trialdata": {"rt": 1544, "stimulus": "<p id='stroop-text' class='stroop-green'>STONE</p>", "response": "g", "stimulus-type": "unrelated", "word": "STONE", "color": "green", "correct_response": "g", "trial_id": "stroop-trial-1-unrelated-18", "trial_type": "html-keyboard-response", "trial_index": 32, "time_elapsed": 116354, "internal_node_id": "0.0-4.0-28.0"}}, {"uniqueid": "w71977323:a14824264", "current_trial": 33, "dateTime": 1664874833304, "trialdata": {"rt": 982, "stimulus": "<p id='stroop-text' class='stroop-red'>RED</p>", "response": "y", "stimulus-type": "congruent", "word": "red", "color": "red", "correct_response": "r", "trial_id": "stroop-trial-1-congruent-14", "trial_type": "html-keyboard-response", "trial_index": 33, "time_elapsed": 117838, "internal_node_id": "0.0-4.0-29.0"}}, {"uniqueid": "w71977323:a14824264", "current_trial": 34, "dateTime": 1664874834634, "trialdata": {"rt": 827, "stimulus": "<p id='stroop-text' class='stroop-yellow'>YELLOW</p>", "response": "y", "stimulus-type": "congruent", "word": "yellow", "color": "yellow", "correct_response": "y", "trial_id": "stroop-trial-1-congruent-16", "trial_type": "html-keyboard-response", "trial_index": 34, "time_elapsed": 119168, "internal_node_id": "0.0-4.0-30.0"}}, {"uniqueid": "w71977323:a14824264", "current_trial": 35, "dateTime": 1664874836433, "trialdata": {"rt": 1297, "stimulus": "<p id='stroop-text' class='stroop-green'>BLUE</p>", "response": "b", "stimulus-type": "incongruent", "word": "blue", "color": "green", "correct_response": "g", "trial_id": "stroop-trial-1-incongruent-12", "trial_type": "html-keyboard-response", "trial_index": 35, "time_elapsed": 120966, "internal_node_id": "0.0-4.0-31.0"}}, {"uniqueid": "w71977323:a14824264", "current_trial": 36, "dateTime": 1664874839046, "trialdata": {"rt": 2110, "stimulus": "<p id='stroop-text' class='stroop-yellow'>RED</p>", "response": "y", "stimulus-type": "incongruent", "word": "red", "color": "yellow", "correct_response": "y", "trial_id": "stroop-trial-1-incongruent-5", "trial_type": "html-keyboard-response", "trial_index": 36, "time_elapsed": 123580, "internal_node_id": "0.0-4.0-32.0"}}, {"uniqueid": "w71977323:a14824264", "current_trial": 37, "dateTime": 1664874841274, "trialdata": {"rt": 1727, "stimulus": "<p id='stroop-text' class='stroop-green'>GREEN</p>", "response": "g", "stimulus-type": "congruent", "word": "green", "color": "green", "correct_response": "g", "trial_id": "stroop-trial-1-congruent-29", "trial_type": "html-keyboard-response", "trial_index": 37, "time_elapsed": 125808, "internal_node_id": "0.0-4.0-33.0"}}, {"uniqueid": "w71977323:a14824264", "current_trial": 38, "dateTime": 1664874843372, "trialdata": {"rt": 1593, "stimulus": "<p id='stroop-text' class='stroop-yellow'>GREEN</p>", "response": "y", "stimulus-type": "incongruent", "word": "green", "color": "yellow", "correct_response": "y", "trial_id": "stroop-trial-1-incongruent-11", "trial_type": "html-keyboard-response", "trial_index": 38, "time_elapsed": 127905, "internal_node_id": "0.0-4.0-34.0"}}, {"uniqueid": "w71977323:a14824264", "current_trial": 39, "dateTime": 1664874844847, "trialdata": {"rt": 970, "stimulus": "<p id='stroop-text' class='stroop-green'>BOAT</p>", "response": "g", "stimulus-type": "unrelated", "word": "BOAT", "color": "green", "correct_response": "g", "trial_id": "stroop-trial-1-unrelated-23", "trial_type": "html-keyboard-response", "trial_index": 39, "time_elapsed": 129381, "internal_node_id": "0.0-4.0-35.0"}}, {"uniqueid": "w71977323:a14824264", "current_trial": 40, "dateTime": 1664874845991, "trialdata": {"rt": 640, "stimulus": "<p id='stroop-text' class='stroop-green'>GREEN</p>", "response": "g", "stimulus-type": "congruent", "word": "green", "color": "green", "correct_response": "g", "trial_id": "stroop-trial-1-congruent-20", "trial_type": "html-keyboard-response", "trial_index": 40, "time_elapsed": 130525, "internal_node_id": "0.0-4.0-36.0"}}, {"uniqueid": "w71977323:a14824264", "current_trial": 41, "dateTime": 1664874847438, "trialdata": {"rt": 940, "stimulus": "<p id='stroop-text' class='stroop-green'>CHAIR</p>", "response": "g", "stimulus-type": "unrelated", "word": "CHAIR", "color": "green", "correct_response": "g", "trial_id": "stroop-trial-1-unrelated-14", "trial_type": "html-keyboard-response", "trial_index": 41, "time_elapsed": 131971, "internal_node_id": "0.0-4.0-37.0"}}, {"uniqueid": "w71977323:a14824264", "current_trial": 42, "dateTime": 1664874848457, "trialdata": {"rt": 515, "stimulus": "<p id='stroop-text' class='stroop-green'>GREEN</p>", "response": "g", "stimulus-type": "congruent", "word": "green", "color": "green", "correct_response": "g", "trial_id": "stroop-trial-1-congruent-4", "trial_type": "html-keyboard-response", "trial_index": 42, "time_elapsed": 132991, "internal_node_id": "0.0-4.0-38.0"}}, {"uniqueid": "w71977323:a14824264", "current_trial": 43, "dateTime": 1664874849853, "trialdata": {"rt": 893, "stimulus": "<p id='stroop-text' class='stroop-red'>RED</p>", "response": "r", "stimulus-type": "congruent", "word": "red", "color": "red", "correct_response": "r", "trial_id": "stroop-trial-1-congruent-22", "trial_type": "html-keyboard-response", "trial_index": 43, "time_elapsed": 134387, "internal_node_id": "0.0-4.0-39.0"}}, {"uniqueid": "w71977323:a14824264", "current_trial": 44, "dateTime": 1664874851458, "trialdata": {"rt": 1097, "stimulus": "<p id='stroop-text' class='stroop-red'>BLUE</p>", "response": "r", "stimulus-type": "incongruent", "word": "blue", "color": "red", "correct_response": "r", "trial_id": "stroop-trial-1-incongruent-26", "trial_type": "html-keyboard-response", "trial_index": 44, "time_elapsed": 135991, "internal_node_id": "0.0-4.0-40.0"}}, {"uniqueid": "w71977323:a14824264", "current_trial": 45, "dateTime": 1664874853007, "trialdata": {"rt": 1047, "stimulus": "<p id='stroop-text' class='stroop-red'>STONE</p>", "response": "r", "stimulus-type": "unrelated", "word": "STONE", "color": "red", "correct_response": "r", "trial_id": "stroop-trial-1-unrelated-13", "trial_type": "html-keyboard-response", "trial_index": 45, "time_elapsed": 137541, "internal_node_id": "0.0-4.0-41.0"}}, {"uniqueid": "w71977323:a14824264", "current_trial": 46, "dateTime": 1664874854493, "trialdata": {"rt": 980, "stimulus": "<p id='stroop-text' class='stroop-red'>GREEN</p>", "response": "r", "stimulus-type": "incongruent", "word": "green", "color": "red", "correct_response": "r", "trial_id": "stroop-trial-1-incongruent-13", "trial_type": "html-keyboard-response", "trial_index": 46, "time_elapsed": 139026, "internal_node_id": "0.0-4.0-42.0"}}, {"uniqueid": "w71977323:a14824264", "current_trial": 47, "dateTime": 1664874857270, "trialdata": {"rt": 2274, "stimulus": "<p id='stroop-text' class='stroop-yellow'>YELLOW</p>", "response": "y", "stimulus-type": "congruent", "word": "yellow", "color": "yellow", "correct_response": "y", "trial_id": "stroop-trial-1-congruent-8", "trial_type": "html-keyboard-response", "trial_index": 47, "time_elapsed": 141804, "internal_node_id": "0.0-4.0-43.0"}}, {"uniqueid": "w71977323:a14824264", "current_trial": 48, "dateTime": 1664874859860, "trialdata": {"rt": 2082, "stimulus": "<p id='stroop-text' class='stroop-blue'>RED</p>", "response": "b", "stimulus-type": "incongruent", "word": "red", "color": "blue", "correct_response": "b", "trial_id": "stroop-trial-1-incongruent-18", "trial_type": "html-keyboard-response", "trial_index": 48, "time_elapsed": 144393, "internal_node_id": "0.0-4.0-44.0"}}, {"uniqueid": "w71977323:a14824264", "current_trial": 49, "dateTime": 1664874862704, "trialdata": {"rt": 2342, "stimulus": "<p id='stroop-text' class='stroop-yellow'>BLUE</p>", "response": "y", "stimulus-type": "incongruent", "word": "blue", "color": "yellow", "correct_response": "y", "trial_id": "stroop-trial-1-incongruent-21", "trial_type": "html-keyboard-response", "trial_index": 49, "time_elapsed": 147238, "internal_node_id": "0.0-4.0-45.0"}}, {"uniqueid": "w71977323:a14824264", "current_trial": 50, "dateTime": 1664874864079, "trialdata": {"rt": 871, "stimulus": "<p id='stroop-text' class='stroop-green'>BOAT</p>", "response": "g", "stimulus-type": "unrelated", "word": "BOAT", "color": "green", "correct_response": "g", "trial_id": "stroop-trial-1-unrelated-8", "trial_type": "html-keyboard-response", "trial_index": 50, "time_elapsed": 148613, "internal_node_id": "0.0-4.0-46.0"}}, {"uniqueid": "w71977323:a14824264", "current_trial": 51, "dateTime": 1664874865201, "trialdata": {"rt": 615, "stimulus": "<p id='stroop-text' class='stroop-green'>GREEN</p>", "response": "g", "stimulus-type": "congruent", "word": "green", "color": "green", "correct_response": "g", "trial_id": "stroop-trial-1-congruent-6", "trial_type": "html-keyboard-response", "trial_index": 51, "time_elapsed": 149734, "internal_node_id": "0.0-4.0-47.0"}}, {"uniqueid": "w71977323:a14824264", "current_trial": 52, "dateTime": 1664874866897, "trialdata": {"rt": 1193, "stimulus": "<p id='stroop-text' class='stroop-red'>BOTTLE</p>", "response": "r", "stimulus-type": "unrelated", "word": "BOTTLE", "color": "red", "correct_response": "r", "trial_id": "stroop-trial-1-unrelated-4", "trial_type": "html-keyboard-response", "trial_index": 52, "time_elapsed": 151430, "internal_node_id": "0.0-4.0-48.0"}}, {"uniqueid": "w71977323:a14824264", "current_trial": 53, "dateTime": 1664874868466, "trialdata": {"rt": 1068, "stimulus": "<p id='stroop-text' class='stroop-blue'>RED</p>", "response": "b", "stimulus-type": "incongruent", "word": "red", "color": "blue", "correct_response": "b", "trial_id": "stroop-trial-1-incongruent-19", "trial_type": "html-keyboard-response", "trial_index": 53, "time_elapsed": 152999, "internal_node_id": "0.0-4.0-49.0"}}, {"uniqueid": "w71977323:a14824264", "current_trial": 54, "dateTime": 1664874870419, "trialdata": {"rt": 1451, "stimulus": "<p id='stroop-text' class='stroop-yellow'>BLUE</p>", "response": "y", "stimulus-type": "incongruent", "word": "blue", "color": "yellow", "correct_response": "y", "trial_id": "stroop-trial-1-incongruent-10", "trial_type": "html-keyboard-response", "trial_index": 54, "time_elapsed": 154953, "internal_node_id": "0.0-4.0-50.0"}}, {"uniqueid": "w71977323:a14824264", "current_trial": 55, "dateTime": 1664874871527, "trialdata": {"rt": 605, "stimulus": "<p id='stroop-text' class='stroop-yellow'>GREEN</p>", "response": "y", "stimulus-type": "incongruent", "word": "green", "color": "yellow", "correct_response": "y", "trial_id": "stroop-trial-1-incongruent-6", "trial_type": "html-keyboard-response", "trial_index": 55, "time_elapsed": 156061, "internal_node_id": "0.0-4.0-51.0"}}, {"uniqueid": "w71977323:a14824264", "current_trial": 56, "dateTime": 1664874873144, "trialdata": {"rt": 1111, "stimulus": "<p id='stroop-text' class='stroop-green'>GREEN</p>", "response": "g", "stimulus-type": "congruent", "word": "green", "color": "green", "correct_response": "g", "trial_id": "stroop-trial-1-congruent-2", "trial_type": "html-keyboard-response", "trial_index": 56, "time_elapsed": 157678, "internal_node_id": "0.0-4.0-52.0"}}, {"uniqueid": "w71977323:a14824264", "current_trial": 57, "dateTime": 1664874875045, "trialdata": {"rt": 1399, "stimulus": "<p id='stroop-text' class='stroop-blue'>BOTTLE</p>", "response": "b", "stimulus-type": "unrelated", "word": "BOTTLE", "color": "blue", "correct_response": "b", "trial_id": "stroop-trial-1-unrelated-19", "trial_type": "html-keyboard-response", "trial_index": 57, "time_elapsed": 159579, "internal_node_id": "0.0-4.0-53.0"}}, {"uniqueid": "w71977323:a14824264", "current_trial": 58, "dateTime": 1664874876159, "trialdata": {"rt": 606, "stimulus": "<p id='stroop-text' class='stroop-blue'>BOAT</p>", "response": "b", "stimulus-type": "unrelated", "word": "BOAT", "color": "blue", "correct_response": "b", "trial_id": "stroop-trial-1-unrelated-10", "trial_type": "html-keyboard-response", "trial_index": 58, "time_elapsed": 160693, "internal_node_id": "0.0-4.0-54.0"}}, {"uniqueid": "w71977323:a14824264", "current_trial": 59, "dateTime": 1664874877350, "trialdata": {"rt": 688, "stimulus": "<p id='stroop-text' class='stroop-yellow'>YELLOW</p>", "response": "y", "stimulus-type": "congruent", "word": "yellow", "color": "yellow", "correct_response": "y", "trial_id": "stroop-trial-1-congruent-7", "trial_type": "html-keyboard-response", "trial_index": 59, "time_elapsed": 161883, "internal_node_id": "0.0-4.0-55.0"}}, {"uniqueid": "w71977323:a14824264", "current_trial": 60, "dateTime": 1664874878432, "trialdata": {"rt": 579, "stimulus": "<p id='stroop-text' class='stroop-yellow'>YELLOW</p>", "response": "y", "stimulus-type": "congruent", "word": "yellow", "color": "yellow", "correct_response": "y", "trial_id": "stroop-trial-1-congruent-21", "trial_type": "html-keyboard-response", "trial_index": 60, "time_elapsed": 162966, "internal_node_id": "0.0-4.0-56.0"}}, {"uniqueid": "w71977323:a14824264", "current_trial": 61, "dateTime": 1664874879483, "trialdata": {"rt": 546, "stimulus": "<p id='stroop-text' class='stroop-yellow'>RED</p>", "response": "y", "stimulus-type": "incongruent", "word": "red", "color": "yellow", "correct_response": "y", "trial_id": "stroop-trial-1-incongruent-7", "trial_type": "html-keyboard-response", "trial_index": 61, "time_elapsed": 164016, "internal_node_id": "0.0-4.0-57.0"}}, {"uniqueid": "w71977323:a14824264", "current_trial": 62, "dateTime": 1664874880766, "trialdata": {"rt": 780, "stimulus": "<p id='stroop-text' class='stroop-green'>GREEN</p>", "response": "g", "stimulus-type": "congruent", "word": "green", "color": "green", "correct_response": "g", "trial_id": "stroop-trial-1-congruent-30", "trial_type": "html-keyboard-response", "trial_index": 62, "time_elapsed": 165300, "internal_node_id": "0.0-4.0-58.0"}}, {"uniqueid": "w71977323:a14824264", "current_trial": 63, "dateTime": 1664874882365, "trialdata": {"rt": 1093, "stimulus": "<p id='stroop-text' class='stroop-red'>YELLOW</p>", "response": "r", "stimulus-type": "incongruent", "word": "yellow", "color": "red", "correct_response": "r", "trial_id": "stroop-trial-1-incongruent-23", "trial_type": "html-keyboard-response", "trial_index": 63, "time_elapsed": 166898, "internal_node_id": "0.0-4.0-59.0"}}, {"uniqueid": "w71977323:a14824264", "current_trial": 64, "dateTime": 1664874883864, "trialdata": {"rt": 995, "stimulus": "<p id='stroop-text' class='stroop-green'>SHIP</p>", "response": "g", "stimulus-type": "unrelated", "word": "SHIP", "color": "green", "correct_response": "g", "trial_id": "stroop-trial-1-unrelated-20", "trial_type": "html-keyboard-response", "trial_index": 64, "time_elapsed": 168398, "internal_node_id": "0.0-4.0-60.0"}}, {"uniqueid": "w71977323:a14824264", "current_trial": 65, "dateTime": 1664874885207, "trialdata": {"rt": 838, "stimulus": "<p id='stroop-text' class='stroop-blue'>BLUE</p>", "response": "b", "stimulus-type": "congruent", "word": "blue", "color": "blue", "correct_response": "b", "trial_id": "stroop-trial-1-congruent-1", "trial_type": "html-keyboard-response", "trial_index": 65, "time_elapsed": 169741, "internal_node_id": "0.0-4.0-61.0"}}, {"uniqueid": "w71977323:a14824264", "current_trial": 66, "dateTime": 1664874886220, "trialdata": {"rt": 506, "stimulus": "<p id='stroop-text' class='stroop-blue'>BLUE</p>", "response": "b", "stimulus-type": "congruent", "word": "blue", "color": "blue", "correct_response": "b", "trial_id": "stroop-trial-1-congruent-25", "trial_type": "html-keyboard-response", "trial_index": 66, "time_elapsed": 170754, "internal_node_id": "0.0-4.0-62.0"}}, {"uniqueid": "w71977323:a14824264", "current_trial": 67, "dateTime": 1664874887304, "trialdata": {"rt": 577, "stimulus": "<p id='stroop-text' class='stroop-blue'>BLUE</p>", "response": "b", "stimulus-type": "congruent", "word": "blue", "color": "blue", "correct_response": "b", "trial_id": "stroop-trial-1-congruent-13", "trial_type": "html-keyboard-response", "trial_index": 67, "time_elapsed": 171838, "internal_node_id": "0.0-4.0-63.0"}}, {"uniqueid": "w71977323:a14824264", "current_trial": 68, "dateTime": 1664874888754, "trialdata": {"rt": 943, "stimulus": "<p id='stroop-text' class='stroop-yellow'>MONKEY</p>", "response": "y", "stimulus-type": "unrelated", "word": "MONKEY", "color": "yellow", "correct_response": "y", "trial_id": "stroop-trial-1-unrelated-1", "trial_type": "html-keyboard-response", "trial_index": 68, "time_elapsed": 173288, "internal_node_id": "0.0-4.0-64.0"}}, {"uniqueid": "w71977323:a14824264", "current_trial": 69, "dateTime": 1664874890222, "trialdata": {"rt": 963, "stimulus": "<p id='stroop-text' class='stroop-blue'>GREEN</p>", "response": "b", "stimulus-type": "incongruent", "word": "green", "color": "blue", "correct_response": "b", "trial_id": "stroop-trial-1-incongruent-8", "trial_type": "html-keyboard-response", "trial_index": 69, "time_elapsed": 174755, "internal_node_id": "0.0-4.0-65.0"}}, {"uniqueid": "w71977323:a14824264", "current_trial": 70, "dateTime": 1664874891454, "trialdata": {"rt": 729, "stimulus": "<p id='stroop-text' class='stroop-green'>GREEN</p>", "response": "g", "stimulus-type": "congruent", "word": "green", "color": "green", "correct_response": "g", "trial_id": "stroop-trial-1-congruent-23", "trial_type": "html-keyboard-response", "trial_index": 70, "time_elapsed": 175987, "internal_node_id": "0.0-4.0-66.0"}}, {"uniqueid": "w71977323:a14824264", "current_trial": 71, "dateTime": 1664874893095, "trialdata": {"rt": 1137, "stimulus": "<p id='stroop-text' class='stroop-yellow'>MONKEY</p>", "response": "y", "stimulus-type": "unrelated", "word": "MONKEY", "color": "yellow", "correct_response": "y", "trial_id": "stroop-trial-1-unrelated-27", "trial_type": "html-keyboard-response", "trial_index": 71, "time_elapsed": 177629, "internal_node_id": "0.0-4.0-67.0"}}, {"uniqueid": "w71977323:a14824264", "current_trial": 72, "dateTime": 1664874894734, "trialdata": {"rt": 1136, "stimulus": "<p id='stroop-text' class='stroop-red'>GREEN</p>", "response": "r", "stimulus-type": "incongruent", "word": "green", "color": "red", "correct_response": "r", "trial_id": "stroop-trial-1-incongruent-1", "trial_type": "html-keyboard-response", "trial_index": 72, "time_elapsed": 179268, "internal_node_id": "0.0-4.0-68.0"}}, {"uniqueid": "w71977323:a14824264", "current_trial": 73, "dateTime": 1664874896139, "trialdata": {"rt": 903, "stimulus": "<p id='stroop-text' class='stroop-green'>GREEN</p>", "response": "g", "stimulus-type": "congruent", "word": "green", "color": "green", "correct_response": "g", "trial_id": "stroop-trial-1-congruent-18", "trial_type": "html-keyboard-response", "trial_index": 73, "time_elapsed": 180672, "internal_node_id": "0.0-4.0-69.0"}}, {"uniqueid": "w71977323:a14824264", "current_trial": 74, "dateTime": 1664874897207, "trialdata": {"rt": 567, "stimulus": "<p id='stroop-text' class='stroop-green'>GREEN</p>", "response": "g", "stimulus-type": "congruent", "word": "green", "color": "green", "correct_response": "g", "trial_id": "stroop-trial-1-congruent-27", "trial_type": "html-keyboard-response", "trial_index": 74, "time_elapsed": 181741, "internal_node_id": "0.0-4.0-70.0"}}, {"uniqueid": "w71977323:a14824264", "current_trial": 75, "dateTime": 1664874898699, "trialdata": {"rt": 991, "stimulus": "<p id='stroop-text' class='stroop-blue'>MONKEY</p>", "response": "b", "stimulus-type": "unrelated", "word": "MONKEY", "color": "blue", "correct_response": "b", "trial_id": "stroop-trial-1-unrelated-11", "trial_type": "html-keyboard-response", "trial_index": 75, "time_elapsed": 183233, "internal_node_id": "0.0-4.0-71.0"}}, {"uniqueid": "w71977323:a14824264", "current_trial": 76, "dateTime": 1664874900006, "trialdata": {"rt": 804, "stimulus": "<p id='stroop-text' class='stroop-green'>GREEN</p>", "response": "g", "stimulus-type": "congruent", "word": "green", "color": "green", "correct_response": "g", "trial_id": "stroop-trial-1-congruent-10", "trial_type": "html-keyboard-response", "trial_index": 76, "time_elapsed": 184540, "internal_node_id": "0.0-4.0-72.0"}}, {"uniqueid": "w71977323:a14824264", "current_trial": 77, "dateTime": 1664874901423, "trialdata": {"rt": 914, "stimulus": "<p id='stroop-text' class='stroop-red'>DOG</p>", "response": "r", "stimulus-type": "unrelated", "word": "DOG", "color": "red", "correct_response": "r", "trial_id": "stroop-trial-1-unrelated-2", "trial_type": "html-keyboard-response", "trial_index": 77, "time_elapsed": 185957, "internal_node_id": "0.0-4.0-73.0"}}, {"uniqueid": "w71977323:a14824264", "current_trial": 78, "dateTime": 1664874902902, "trialdata": {"rt": 976, "stimulus": "<p id='stroop-text' class='stroop-yellow'>WINDOW</p>", "response": "y", "stimulus-type": "unrelated", "word": "WINDOW", "color": "yellow", "correct_response": "y", "trial_id": "stroop-trial-1-unrelated-6", "trial_type": "html-keyboard-response", "trial_index": 78, "time_elapsed": 187436, "internal_node_id": "0.0-4.0-74.0"}}, {"uniqueid": "w71977323:a14824264", "current_trial": 79, "dateTime": 1664874904274, "trialdata": {"rt": 868, "stimulus": "<p id='stroop-text' class='stroop-green'>SHIP</p>", "response": "g", "stimulus-type": "unrelated", "word": "SHIP", "color": "green", "correct_response": "g", "trial_id": "stroop-trial-1-unrelated-24", "trial_type": "html-keyboard-response", "trial_index": 79, "time_elapsed": 188808, "internal_node_id": "0.0-4.0-75.0"}}, {"uniqueid": "w71977323:a14824264", "current_trial": 80, "dateTime": 1664874906241, "trialdata": {"rt": 1460, "stimulus": "<p id='stroop-text' class='stroop-yellow'>GREEN</p>", "response": "y", "stimulus-type": "incongruent", "word": "green", "color": "yellow", "correct_response": "y", "trial_id": "stroop-trial-1-incongruent-25", "trial_type": "html-keyboard-response", "trial_index": 80, "time_elapsed": 190774, "internal_node_id": "0.0-4.0-76.0"}}, {"uniqueid": "w71977323:a14824264", "current_trial": 81, "dateTime": 1664874908090, "trialdata": {"rt": 1343, "stimulus": "<p id='stroop-text' class='stroop-green'>YELLOW</p>", "response": "r", "stimulus-type": "incongruent", "word": "yellow", "color": "green", "correct_response": "g", "trial_id": "stroop-trial-1-incongruent-17", "trial_type": "html-keyboard-response", "trial_index": 81, "time_elapsed": 192624, "internal_node_id": "0.0-4.0-77.0"}}, {"uniqueid": "w71977323:a14824264", "current_trial": 82, "dateTime": 1664874910403, "trialdata": {"rt": 1811, "stimulus": "<p id='stroop-text' class='stroop-blue'>BOAT</p>", "response": "b", "stimulus-type": "unrelated", "word": "BOAT", "color": "blue", "correct_response": "b", "trial_id": "stroop-trial-1-unrelated-3", "trial_type": "html-keyboard-response", "trial_index": 82, "time_elapsed": 194937, "internal_node_id": "0.0-4.0-78.0"}}, {"uniqueid": "w71977323:a14824264", "current_trial": 83, "dateTime": 1664874912864, "trialdata": {"rt": 1956, "stimulus": "<p id='stroop-text' class='stroop-yellow'>BLUE</p>", "response": "y", "stimulus-type": "incongruent", "word": "blue", "color": "yellow", "correct_response": "y", "trial_id": "stroop-trial-1-incongruent-27", "trial_type": "html-keyboard-response", "trial_index": 83, "time_elapsed": 197397, "internal_node_id": "0.0-4.0-79.0"}}, {"uniqueid": "w71977323:a14824264", "current_trial": 84, "dateTime": 1664874914727, "trialdata": {"rt": 1360, "stimulus": "<p id='stroop-text' class='stroop-green'>MONKEY</p>", "response": "g", "stimulus-type": "unrelated", "word": "MONKEY", "color": "green", "correct_response": "g", "trial_id": "stroop-trial-1-unrelated-30", "trial_type": "html-keyboard-response", "trial_index": 84, "time_elapsed": 199260, "internal_node_id": "0.0-4.0-80.0"}}, {"uniqueid": "w71977323:a14824264", "current_trial": 85, "dateTime": 1664874915957, "trialdata": {"rt": 728, "stimulus": "<p id='stroop-text' class='stroop-blue'>BLUE</p>", "response": "b", "stimulus-type": "congruent", "word": "blue", "color": "blue", "correct_response": "b", "trial_id": "stroop-trial-1-congruent-3", "trial_type": "html-keyboard-response", "trial_index": 85, "time_elapsed": 200491, "internal_node_id": "0.0-4.0-81.0"}}, {"uniqueid": "w71977323:a14824264", "current_trial": 86, "dateTime": 1664874917675, "trialdata": {"rt": 1216, "stimulus": "<p id='stroop-text' class='stroop-yellow'>RED</p>", "response": "y", "stimulus-type": "incongruent", "word": "red", "color": "yellow", "correct_response": "y", "trial_id": "stroop-trial-1-incongruent-30", "trial_type": "html-keyboard-response", "trial_index": 86, "time_elapsed": 202209, "internal_node_id": "0.0-4.0-82.0"}}, {"uniqueid": "w71977323:a14824264", "current_trial": 87, "dateTime": 1664874919274, "trialdata": {"rt": 1098, "stimulus": "<p id='stroop-text' class='stroop-red'>BRIDGE</p>", "response": "r", "stimulus-type": "unrelated", "word": "BRIDGE", "color": "red", "correct_response": "r", "trial_id": "stroop-trial-1-unrelated-15", "trial_type": "html-keyboard-response", "trial_index": 87, "time_elapsed": 203808, "internal_node_id": "0.0-4.0-83.0"}}, {"uniqueid": "w71977323:a14824264", "current_trial": 88, "dateTime": 1664874920514, "trialdata": {"rt": 733, "stimulus": "<p id='stroop-text' class='stroop-red'>RED</p>", "response": "r", "stimulus-type": "congruent", "word": "red", "color": "red", "correct_response": "r", "trial_id": "stroop-trial-1-congruent-19", "trial_type": "html-keyboard-response", "trial_index": 88, "time_elapsed": 205048, "internal_node_id": "0.0-4.0-84.0"}}, {"uniqueid": "w71977323:a14824264", "current_trial": 89, "dateTime": 1664874922112, "trialdata": {"rt": 1093, "stimulus": "<p id='stroop-text' class='stroop-red'>GREEN</p>", "response": "r", "stimulus-type": "incongruent", "word": "green", "color": "red", "correct_response": "r", "trial_id": "stroop-trial-1-incongruent-9", "trial_type": "html-keyboard-response", "trial_index": 89, "time_elapsed": 206646, "internal_node_id": "0.0-4.0-85.0"}}, {"uniqueid": "w71977323:a14824264", "current_trial": 90, "dateTime": 1664874923527, "trialdata": {"rt": 908, "stimulus": "<p id='stroop-text' class='stroop-blue'>BLUE</p>", "response": "b", "stimulus-type": "congruent", "word": "blue", "color": "blue", "correct_response": "b", "trial_id": "stroop-trial-1-congruent-17", "trial_type": "html-keyboard-response", "trial_index": 90, "time_elapsed": 208060, "internal_node_id": "0.0-4.0-86.0"}}, {"uniqueid": "w71977323:a14824264", "current_trial": 91, "dateTime": 1664874924601, "trialdata": {"rt": 572, "stimulus": "<p id='stroop-text' class='stroop-blue'>DOG</p>", "response": "b", "stimulus-type": "unrelated", "word": "DOG", "color": "blue", "correct_response": "b", "trial_id": "stroop-trial-1-unrelated-17", "trial_type": "html-keyboard-response", "trial_index": 91, "time_elapsed": 209134, "internal_node_id": "0.0-4.0-87.0"}}, {"uniqueid": "w71977323:a14824264", "current_trial": 92, "dateTime": 1664874925880, "trialdata": {"rt": 772, "stimulus": "<p id='stroop-text' class='stroop-green'>DOG</p>", "response": "g", "stimulus-type": "unrelated", "word": "DOG", "color": "green", "correct_response": "g", "trial_id": "stroop-trial-1-unrelated-25", "trial_type": "html-keyboard-response", "trial_index": 92, "time_elapsed": 210414, "internal_node_id": "0.0-4.0-88.0"}}, {"uniqueid": "w71977323:a14824264", "current_trial": 93, "dateTime": 1664874927886, "trialdata": {"rt": 1503, "stimulus": "<p id='stroop-text' class='stroop-yellow'>BLUE</p>", "response": "y", "stimulus-type": "incongruent", "word": "blue", "color": "yellow", "correct_response": "y", "trial_id": "stroop-trial-1-incongruent-22", "trial_type": "html-keyboard-response", "trial_index": 93, "time_elapsed": 212420, "internal_node_id": "0.0-4.0-89.0"}}, {"uniqueid": "w71977323:a14824264", "current_trial": 94, "dateTime": 1664874972711, "trialdata": {"rt": 44317, "stimulus": "  <h1> End of block! </h1>\n\n  You have reached the end of the block 1/5. If you need a short break, feel free to take one now before moving on.\n\n  <br><br>\n  In the next block, you will complete another 90 rounds of this game.\n\n  <br><br>\n  <div style='text-align: center;'>Press <code>space</code> to begin.</div>\n  <br><br>\n<div style='text-align: center;'>(If the experiment doesn't continue, try clicking on the text and then pressing <code>space</code>.)</div>", "response": " ", "trial_id": "stroop_1_ready_2", "trial_type": "html-keyboard-response", "trial_index": 94, "time_elapsed": 257245, "internal_node_id": "0.0-5.0"}}, {"uniqueid": "w71977323:a14824264", "current_trial": 95, "dateTime": 1664874974088, "trialdata": {"rt": 1374, "stimulus": "<p id='stroop-text' class='stroop-green'>YELLOW</p>", "response": "g", "stimulus-type": "incongruent", "word": "yellow", "color": "green", "correct_response": "g", "trial_id": "stroop-trial-1-incongruent-8", "trial_type": "html-keyboard-response", "trial_index": 95, "time_elapsed": 258622, "internal_node_id": "0.0-6.0-0.0"}}, {"uniqueid": "w71977323:a14824264", "current_trial": 96, "dateTime": 1664874975455, "trialdata": {"rt": 865, "stimulus": "<p id='stroop-text' class='stroop-yellow'>GREEN</p>", "response": "y", "stimulus-type": "incongruent", "word": "green", "color": "yellow", "correct_response": "y", "trial_id": "stroop-trial-1-incongruent-6", "trial_type": "html-keyboard-response", "trial_index": 96, "time_elapsed": 259989, "internal_node_id": "0.0-6.0-1.0"}}, {"uniqueid": "w71977323:a14824264", "current_trial": 97, "dateTime": 1664874977341, "trialdata": {"rt": 1381, "stimulus": "<p id='stroop-text' class='stroop-green'>RED</p>", "response": "g", "stimulus-type": "incongruent", "word": "red", "color": "green", "correct_response": "g", "trial_id": "stroop-trial-1-incongruent-30", "trial_type": "html-keyboard-response", "trial_index": 97, "time_elapsed": 261875, "internal_node_id": "0.0-6.0-2.0"}}, {"uniqueid": "w71977323:a14824264", "current_trial": 98, "dateTime": 1664874978706, "trialdata": {"rt": 862, "stimulus": "<p id='stroop-text' class='stroop-red'>BRAIN</p>", "response": "r", "stimulus-type": "unrelated", "word": "BRAIN", "color": "red", "correct_response": "r", "trial_id": "stroop-trial-1-unrelated-2", "trial_type": "html-keyboard-response", "trial_index": 98, "time_elapsed": 263240, "internal_node_id": "0.0-6.0-3.0"}}, {"uniqueid": "w71977323:a14824264", "current_trial": 99, "dateTime": 1664874980093, "trialdata": {"rt": 884, "stimulus": "<p id='stroop-text' class='stroop-yellow'>YELLOW</p>", "response": "y", "stimulus-type": "congruent", "word": "yellow", "color": "yellow", "correct_response": "y", "trial_id": "stroop-trial-1-congruent-28", "trial_type": "html-keyboard-response", "trial_index": 99, "time_elapsed": 264627, "internal_node_id": "0.0-6.0-4.0"}}, {"uniqueid": "w71977323:a14824264", "current_trial": 100, "dateTime": 1664874981227, "trialdata": {"rt": 629, "stimulus": "<p id='stroop-text' class='stroop-yellow'>STONE</p>", "response": "y", "stimulus-type": "unrelated", "word": "STONE", "color": "yellow", "correct_response": "y", "trial_id": "stroop-trial-1-unrelated-28", "trial_type": "html-keyboard-response", "trial_index": 100, "time_elapsed": 265761, "internal_node_id": "0.0-6.0-5.0"}}, {"uniqueid": "w71977323:a14824264", "current_trial": 101, "dateTime": 1664874982305, "trialdata": {"rt": 572, "stimulus": "<p id='stroop-text' class='stroop-yellow'>YELLOW</p>", "response": "y", "stimulus-type": "congruent", "word": "yellow", "color": "yellow", "correct_response": "y", "trial_id": "stroop-trial-1-congruent-10", "trial_type": "html-keyboard-response", "trial_index": 101, "time_elapsed": 266839, "internal_node_id": "0.0-6.0-6.0"}}, {"uniqueid": "w71977323:a14824264", "current_trial": 102, "dateTime": 1664874984277, "trialdata": {"rt": 1469, "stimulus": "<p id='stroop-text' class='stroop-blue'>RED</p>", "response": "b", "stimulus-type": "incongruent", "word": "red", "color": "blue", "correct_response": "b", "trial_id": "stroop-trial-1-incongruent-2", "trial_type": "html-keyboard-response", "trial_index": 102, "time_elapsed": 268811, "internal_node_id": "0.0-6.0-7.0"}}, {"uniqueid": "w71977323:a14824264", "current_trial": 103, "dateTime": 1664874985481, "trialdata": {"rt": 698, "stimulus": "<p id='stroop-text' class='stroop-red'>BRAIN</p>", "response": "r", "stimulus-type": "unrelated", "word": "BRAIN", "color": "red", "correct_response": "r", "trial_id": "stroop-trial-1-unrelated-10", "trial_type": "html-keyboard-response", "trial_index": 103, "time_elapsed": 270015, "internal_node_id": "0.0-6.0-8.0"}}, {"uniqueid": "w71977323:a14824264", "current_trial": 104, "dateTime": 1664874986900, "trialdata": {"rt": 914, "stimulus": "<p id='stroop-text' class='stroop-green'>GREEN</p>", "response": "g", "stimulus-type": "congruent", "word": "green", "color": "green", "correct_response": "g", "trial_id": "stroop-trial-1-congruent-22", "trial_type": "html-keyboard-response", "trial_index": 104, "time_elapsed": 271434, "internal_node_id": "0.0-6.0-9.0"}}, {"uniqueid": "w71977323:a14824264", "current_trial": 105, "dateTime": 1664874988193, "trialdata": {"rt": 789, "stimulus": "<p id='stroop-text' class='stroop-red'>WINDOW</p>", "response": "r", "stimulus-type": "unrelated", "word": "WINDOW", "color": "red", "correct_response": "r", "trial_id": "stroop-trial-1-unrelated-30", "trial_type": "html-keyboard-response", "trial_index": 105, "time_elapsed": 272727, "internal_node_id": "0.0-6.0-10.0"}}, {"uniqueid": "w71977323:a14824264", "current_trial": 106, "dateTime": 1664874989716, "trialdata": {"rt": 1016, "stimulus": "<p id='stroop-text' class='stroop-yellow'>DOG</p>", "response": "y", "stimulus-type": "unrelated", "word": "DOG", "color": "yellow", "correct_response": "y", "trial_id": "stroop-trial-1-unrelated-16", "trial_type": "html-keyboard-response", "trial_index": 106, "time_elapsed": 274250, "internal_node_id": "0.0-6.0-11.0"}}, {"uniqueid": "w71977323:a14824264", "current_trial": 107, "dateTime": 1664874991045, "trialdata": {"rt": 827, "stimulus": "<p id='stroop-text' class='stroop-blue'>BOAT</p>", "response": "b", "stimulus-type": "unrelated", "word": "BOAT", "color": "blue", "correct_response": "b", "trial_id": "stroop-trial-1-unrelated-21", "trial_type": "html-keyboard-response", "trial_index": 107, "time_elapsed": 275578, "internal_node_id": "0.0-6.0-12.0"}}, {"uniqueid": "w71977323:a14824264", "current_trial": 108, "dateTime": 1664874992281, "trialdata": {"rt": 734, "stimulus": "<p id='stroop-text' class='stroop-green'>GREEN</p>", "response": "g", "stimulus-type": "congruent", "word": "green", "color": "green", "correct_response": "g", "trial_id": "stroop-trial-1-congruent-18", "trial_type": "html-keyboard-response", "trial_index": 108, "time_elapsed": 276815, "internal_node_id": "0.0-6.0-13.0"}}, {"uniqueid": "w71977323:a14824264", "current_trial": 109, "dateTime": 1664874993502, "trialdata": {"rt": 717, "stimulus": "<p id='stroop-text' class='stroop-yellow'>BRAIN</p>", "response": "y", "stimulus-type": "unrelated", "word": "BRAIN", "color": "yellow", "correct_response": "y", "trial_id": "stroop-trial-1-unrelated-4", "trial_type": "html-keyboard-response", "trial_index": 109, "time_elapsed": 278036, "internal_node_id": "0.0-6.0-14.0"}}, {"uniqueid": "w71977323:a14824264", "current_trial": 110, "dateTime": 1664874994816, "trialdata": {"rt": 808, "stimulus": "<p id='stroop-text' class='stroop-red'>RED</p>", "response": "r", "stimulus-type": "congruent", "word": "red", "color": "red", "correct_response": "r", "trial_id": "stroop-trial-1-congruent-29", "trial_type": "html-keyboard-response", "trial_index": 110, "time_elapsed": 279350, "internal_node_id": "0.0-6.0-15.0"}}, {"uniqueid": "w71977323:a14824264", "current_trial": 111, "dateTime": 1664874996175, "trialdata": {"rt": 857, "stimulus": "<p id='stroop-text' class='stroop-green'>GREEN</p>", "response": "g", "stimulus-type": "congruent", "word": "green", "color": "green", "correct_response": "g", "trial_id": "stroop-trial-1-congruent-17", "trial_type": "html-keyboard-response", "trial_index": 111, "time_elapsed": 280709, "internal_node_id": "0.0-6.0-16.0"}}, {"uniqueid": "w71977323:a14824264", "current_trial": 112, "dateTime": 1664874997351, "trialdata": {"rt": 672, "stimulus": "<p id='stroop-text' class='stroop-green'>SHIP</p>", "response": "r", "stimulus-type": "unrelated", "word": "SHIP", "color": "green", "correct_response": "g", "trial_id": "stroop-trial-1-unrelated-8", "trial_type": "html-keyboard-response", "trial_index": 112, "time_elapsed": 281885, "internal_node_id": "0.0-6.0-17.0"}}, {"uniqueid": "w71977323:a14824264", "current_trial": 113, "dateTime": 1664874999231, "trialdata": {"rt": 1376, "stimulus": "<p id='stroop-text' class='stroop-yellow'>RED</p>", "response": "y", "stimulus-type": "incongruent", "word": "red", "color": "yellow", "correct_response": "y", "trial_id": "stroop-trial-1-incongruent-16", "trial_type": "html-keyboard-response", "trial_index": 113, "time_elapsed": 283764, "internal_node_id": "0.0-6.0-18.0"}}, {"uniqueid": "w71977323:a14824264", "current_trial": 114, "dateTime": 1664875001170, "trialdata": {"rt": 1437, "stimulus": "<p id='stroop-text' class='stroop-green'>BLUE</p>", "response": "g", "stimulus-type": "incongruent", "word": "blue", "color": "green", "correct_response": "g", "trial_id": "stroop-trial-1-incongruent-10", "trial_type": "html-keyboard-response", "trial_index": 114, "time_elapsed": 285704, "internal_node_id": "0.0-6.0-19.0"}}, {"uniqueid": "w71977323:a14824264", "current_trial": 115, "dateTime": 1664875002470, "trialdata": {"rt": 793, "stimulus": "<p id='stroop-text' class='stroop-green'>RED</p>", "response": "g", "stimulus-type": "incongruent", "word": "red", "color": "green", "correct_response": "g", "trial_id": "stroop-trial-1-incongruent-28", "trial_type": "html-keyboard-response", "trial_index": 115, "time_elapsed": 287004, "internal_node_id": "0.0-6.0-20.0"}}, {"uniqueid": "w71977323:a14824264", "current_trial": 116, "dateTime": 1664875003854, "trialdata": {"rt": 882, "stimulus": "<p id='stroop-text' class='stroop-yellow'>YELLOW</p>", "response": "y", "stimulus-type": "congruent", "word": "yellow", "color": "yellow", "correct_response": "y", "trial_id": "stroop-trial-1-congruent-4", "trial_type": "html-keyboard-response", "trial_index": 116, "time_elapsed": 288388, "internal_node_id": "0.0-6.0-21.0"}}, {"uniqueid": "w71977323:a14824264", "current_trial": 117, "dateTime": 1664875005482, "trialdata": {"rt": 1123, "stimulus": "<p id='stroop-text' class='stroop-green'>BLUE</p>", "response": "g", "stimulus-type": "incongruent", "word": "blue", "color": "green", "correct_response": "g", "trial_id": "stroop-trial-1-incongruent-25", "trial_type": "html-keyboard-response", "trial_index": 117, "time_elapsed": 290016, "internal_node_id": "0.0-6.0-22.0"}}, {"uniqueid": "w71977323:a14824264", "current_trial": 118, "dateTime": 1664875006876, "trialdata": {"rt": 890, "stimulus": "<p id='stroop-text' class='stroop-yellow'>CHAIR</p>", "response": "b", "stimulus-type": "unrelated", "word": "CHAIR", "color": "yellow", "correct_response": "y", "trial_id": "stroop-trial-1-unrelated-11", "trial_type": "html-keyboard-response", "trial_index": 118, "time_elapsed": 291410, "internal_node_id": "0.0-6.0-23.0"}}, {"uniqueid": "w71977323:a14824264", "current_trial": 119, "dateTime": 1664875008392, "trialdata": {"rt": 1009, "stimulus": "<p id='stroop-text' class='stroop-blue'>GREEN</p>", "response": "b", "stimulus-type": "incongruent", "word": "green", "color": "blue", "correct_response": "b", "trial_id": "stroop-trial-1-incongruent-4", "trial_type": "html-keyboard-response", "trial_index": 119, "time_elapsed": 292926, "internal_node_id": "0.0-6.0-24.0"}}, {"uniqueid": "w71977323:a14824264", "current_trial": 120, "dateTime": 1664875009737, "trialdata": {"rt": 839, "stimulus": "<p id='stroop-text' class='stroop-red'>BRAIN</p>", "response": "r", "stimulus-type": "unrelated", "word": "BRAIN", "color": "red", "correct_response": "r", "trial_id": "stroop-trial-1-unrelated-9", "trial_type": "html-keyboard-response", "trial_index": 120, "time_elapsed": 294271, "internal_node_id": "0.0-6.0-25.0"}}, {"uniqueid": "w71977323:a14824264", "current_trial": 121, "dateTime": 1664875011374, "trialdata": {"rt": 1132, "stimulus": "<p id='stroop-text' class='stroop-blue'>GREEN</p>", "response": "b", "stimulus-type": "incongruent", "word": "green", "color": "blue", "correct_response": "b", "trial_id": "stroop-trial-1-incongruent-14", "trial_type": "html-keyboard-response", "trial_index": 121, "time_elapsed": 295908, "internal_node_id": "0.0-6.0-26.0"}}, {"uniqueid": "w71977323:a14824264", "current_trial": 122, "dateTime": 1664875012655, "trialdata": {"rt": 780, "stimulus": "<p id='stroop-text' class='stroop-red'>YELLOW</p>", "response": "r", "stimulus-type": "incongruent", "word": "yellow", "color": "red", "correct_response": "r", "trial_id": "stroop-trial-1-incongruent-23", "trial_type": "html-keyboard-response", "trial_index": 122, "time_elapsed": 297189, "internal_node_id": "0.0-6.0-27.0"}}, {"uniqueid": "w71977323:a14824264", "current_trial": 123, "dateTime": 1664875013854, "trialdata": {"rt": 695, "stimulus": "<p id='stroop-text' class='stroop-red'>BLUE</p>", "response": "r", "stimulus-type": "incongruent", "word": "blue", "color": "red", "correct_response": "r", "trial_id": "stroop-trial-1-incongruent-21", "trial_type": "html-keyboard-response", "trial_index": 123, "time_elapsed": 298388, "internal_node_id": "0.0-6.0-28.0"}}, {"uniqueid": "w71977323:a14824264", "current_trial": 124, "dateTime": 1664875015310, "trialdata": {"rt": 950, "stimulus": "<p id='stroop-text' class='stroop-blue'>GREEN</p>", "response": "b", "stimulus-type": "incongruent", "word": "green", "color": "blue", "correct_response": "b", "trial_id": "stroop-trial-1-incongruent-24", "trial_type": "html-keyboard-response", "trial_index": 124, "time_elapsed": 299844, "internal_node_id": "0.0-6.0-29.0"}}, {"uniqueid": "w71977323:a14824264", "current_trial": 125, "dateTime": 1664875016591, "trialdata": {"rt": 777, "stimulus": "<p id='stroop-text' class='stroop-green'>GREEN</p>", "response": "g", "stimulus-type": "congruent", "word": "green", "color": "green", "correct_response": "g", "trial_id": "stroop-trial-1-congruent-11", "trial_type": "html-keyboard-response", "trial_index": 125, "time_elapsed": 301125, "internal_node_id": "0.0-6.0-30.0"}}, {"uniqueid": "w71977323:a14824264", "current_trial": 126, "dateTime": 1664875017812, "trialdata": {"rt": 718, "stimulus": "<p id='stroop-text' class='stroop-red'>YELLOW</p>", "response": "r", "stimulus-type": "incongruent", "word": "yellow", "color": "red", "correct_response": "r", "trial_id": "stroop-trial-1-incongruent-12", "trial_type": "html-keyboard-response", "trial_index": 126, "time_elapsed": 302346, "internal_node_id": "0.0-6.0-31.0"}}, {"uniqueid": "w71977323:a14824264", "current_trial": 127, "dateTime": 1664875019711, "trialdata": {"rt": 1397, "stimulus": "<p id='stroop-text' class='stroop-blue'>BLUE</p>", "response": "b", "stimulus-type": "congruent", "word": "blue", "color": "blue", "correct_response": "b", "trial_id": "stroop-trial-1-congruent-16", "trial_type": "html-keyboard-response", "trial_index": 127, "time_elapsed": 304245, "internal_node_id": "0.0-6.0-32.0"}}, {"uniqueid": "w71977323:a14824264", "current_trial": 128, "dateTime": 1664875020749, "trialdata": {"rt": 533, "stimulus": "<p id='stroop-text' class='stroop-blue'>GREEN</p>", "response": "b", "stimulus-type": "incongruent", "word": "green", "color": "blue", "correct_response": "b", "trial_id": "stroop-trial-1-incongruent-3", "trial_type": "html-keyboard-response", "trial_index": 128, "time_elapsed": 305283, "internal_node_id": "0.0-6.0-33.0"}}, {"uniqueid": "w71977323:a14824264", "current_trial": 129, "dateTime": 1664875022014, "trialdata": {"rt": 763, "stimulus": "<p id='stroop-text' class='stroop-yellow'>BLUE</p>", "response": "y", "stimulus-type": "incongruent", "word": "blue", "color": "yellow", "correct_response": "y", "trial_id": "stroop-trial-1-incongruent-11", "trial_type": "html-keyboard-response", "trial_index": 129, "time_elapsed": 306548, "internal_node_id": "0.0-6.0-34.0"}}, {"uniqueid": "w71977323:a14824264", "current_trial": 130, "dateTime": 1664875023250, "trialdata": {"rt": 730, "stimulus": "<p id='stroop-text' class='stroop-green'>BOAT</p>", "response": "g", "stimulus-type": "unrelated", "word": "BOAT", "color": "green", "correct_response": "g", "trial_id": "stroop-trial-1-unrelated-13", "trial_type": "html-keyboard-response", "trial_index": 130, "time_elapsed": 307783, "internal_node_id": "0.0-6.0-35.0"}}, {"uniqueid": "w71977323:a14824264", "current_trial": 131, "dateTime": 1664875024901, "trialdata": {"rt": 1149, "stimulus": "<p id='stroop-text' class='stroop-yellow'>YELLOW</p>", "response": "y", "stimulus-type": "congruent", "word": "yellow", "color": "yellow", "correct_response": "y", "trial_id": "stroop-trial-1-congruent-27", "trial_type": "html-keyboard-response", "trial_index": 131, "time_elapsed": 309434, "internal_node_id": "0.0-6.0-36.0"}}, {"uniqueid": "w71977323:a14824264", "current_trial": 132, "dateTime": 1664875027189, "trialdata": {"rt": 1784, "stimulus": "<p id='stroop-text' class='stroop-green'>DOG</p>", "response": "g", "stimulus-type": "unrelated", "word": "DOG", "color": "green", "correct_response": "g", "trial_id": "stroop-trial-1-unrelated-24", "trial_type": "html-keyboard-response", "trial_index": 132, "time_elapsed": 311723, "internal_node_id": "0.0-6.0-37.0"}}, {"uniqueid": "w71977323:a14824264", "current_trial": 133, "dateTime": 1664875028783, "trialdata": {"rt": 1091, "stimulus": "<p id='stroop-text' class='stroop-yellow'>YELLOW</p>", "response": "y", "stimulus-type": "congruent", "word": "yellow", "color": "yellow", "correct_response": "y", "trial_id": "stroop-trial-1-congruent-20", "trial_type": "html-keyboard-response", "trial_index": 133, "time_elapsed": 313317, "internal_node_id": "0.0-6.0-38.0"}}, {"uniqueid": "w71977323:a14824264", "current_trial": 134, "dateTime": 1664875030652, "trialdata": {"rt": 1364, "stimulus": "<p id='stroop-text' class='stroop-green'>BLUE</p>", "response": "g", "stimulus-type": "incongruent", "word": "blue", "color": "green", "correct_response": "g", "trial_id": "stroop-trial-1-incongruent-5", "trial_type": "html-keyboard-response", "trial_index": 134, "time_elapsed": 315186, "internal_node_id": "0.0-6.0-39.0"}}, {"uniqueid": "w71977323:a14824264", "current_trial": 135, "dateTime": 1664875031966, "trialdata": {"rt": 810, "stimulus": "<p id='stroop-text' class='stroop-yellow'>YELLOW</p>", "response": "y", "stimulus-type": "congruent", "word": "yellow", "color": "yellow", "correct_response": "y", "trial_id": "stroop-trial-1-congruent-14", "trial_type": "html-keyboard-response", "trial_index": 135, "time_elapsed": 316500, "internal_node_id": "0.0-6.0-40.0"}}, {"uniqueid": "w71977323:a14824264", "current_trial": 136, "dateTime": 1664875033295, "trialdata": {"rt": 826, "stimulus": "<p id='stroop-text' class='stroop-red'>FORK</p>", "response": "r", "stimulus-type": "unrelated", "word": "FORK", "color": "red", "correct_response": "r", "trial_id": "stroop-trial-1-unrelated-26", "trial_type": "html-keyboard-response", "trial_index": 136, "time_elapsed": 317829, "internal_node_id": "0.0-6.0-41.0"}}, {"uniqueid": "w71977323:a14824264", "current_trial": 137, "dateTime": 1664875034477, "trialdata": {"rt": 679, "stimulus": "<p id='stroop-text' class='stroop-red'>RED</p>", "response": "r", "stimulus-type": "congruent", "word": "red", "color": "red", "correct_response": "r", "trial_id": "stroop-trial-1-congruent-15", "trial_type": "html-keyboard-response", "trial_index": 137, "time_elapsed": 319011, "internal_node_id": "0.0-6.0-42.0"}}, {"uniqueid": "w71977323:a14824264", "current_trial": 138, "dateTime": 1664875035961, "trialdata": {"rt": 980, "stimulus": "<p id='stroop-text' class='stroop-green'>GREEN</p>", "response": "g", "stimulus-type": "congruent", "word": "green", "color": "green", "correct_response": "g", "trial_id": "stroop-trial-1-congruent-8", "trial_type": "html-keyboard-response", "trial_index": 138, "time_elapsed": 320495, "internal_node_id": "0.0-6.0-43.0"}}, {"uniqueid": "w71977323:a14824264", "current_trial": 139, "dateTime": 1664875037125, "trialdata": {"rt": 662, "stimulus": "<p id='stroop-text' class='stroop-green'>DOG</p>", "response": "r", "stimulus-type": "unrelated", "word": "DOG", "color": "green", "correct_response": "g", "trial_id": "stroop-trial-1-unrelated-20", "trial_type": "html-keyboard-response", "trial_index": 139, "time_elapsed": 321659, "internal_node_id": "0.0-6.0-44.0"}}, {"uniqueid": "w71977323:a14824264", "current_trial": 140, "dateTime": 1664875038284, "trialdata": {"rt": 654, "stimulus": "<p id='stroop-text' class='stroop-green'>YELLOW</p>", "response": "g", "stimulus-type": "incongruent", "word": "yellow", "color": "green", "correct_response": "g", "trial_id": "stroop-trial-1-incongruent-17", "trial_type": "html-keyboard-response", "trial_index": 140, "time_elapsed": 322817, "internal_node_id": "0.0-6.0-45.0"}}, {"uniqueid": "w71977323:a14824264", "current_trial": 141, "dateTime": 1664875039768, "trialdata": {"rt": 981, "stimulus": "<p id='stroop-text' class='stroop-red'>BLUE</p>", "response": "r", "stimulus-type": "incongruent", "word": "blue", "color": "red", "correct_response": "r", "trial_id": "stroop-trial-1-incongruent-20", "trial_type": "html-keyboard-response", "trial_index": 141, "time_elapsed": 324302, "internal_node_id": "0.0-6.0-46.0"}}, {"uniqueid": "w71977323:a14824264", "current_trial": 142, "dateTime": 1664875041024, "trialdata": {"rt": 750, "stimulus": "<p id='stroop-text' class='stroop-green'>GREEN</p>", "response": "g", "stimulus-type": "congruent", "word": "green", "color": "green", "correct_response": "g", "trial_id": "stroop-trial-1-congruent-24", "trial_type": "html-keyboard-response", "trial_index": 142, "time_elapsed": 325557, "internal_node_id": "0.0-6.0-47.0"}}, {"uniqueid": "w71977323:a14824264", "current_trial": 143, "dateTime": 1664875042288, "trialdata": {"rt": 759, "stimulus": "<p id='stroop-text' class='stroop-yellow'>YELLOW</p>", "response": "y", "stimulus-type": "congruent", "word": "yellow", "color": "yellow", "correct_response": "y", "trial_id": "stroop-trial-1-congruent-13", "trial_type": "html-keyboard-response", "trial_index": 143, "time_elapsed": 326822, "internal_node_id": "0.0-6.0-48.0"}}, {"uniqueid": "w71977323:a14824264", "current_trial": 144, "dateTime": 1664875043819, "trialdata": {"rt": 1028, "stimulus": "<p id='stroop-text' class='stroop-red'>RED</p>", "response": "r", "stimulus-type": "congruent", "word": "red", "color": "red", "correct_response": "r", "trial_id": "stroop-trial-1-congruent-26", "trial_type": "html-keyboard-response", "trial_index": 144, "time_elapsed": 328353, "internal_node_id": "0.0-6.0-49.0"}}, {"uniqueid": "w71977323:a14824264", "current_trial": 145, "dateTime": 1664875044898, "trialdata": {"rt": 575, "stimulus": "<p id='stroop-text' class='stroop-red'>BOTTLE</p>", "response": "r", "stimulus-type": "unrelated", "word": "BOTTLE", "color": "red", "correct_response": "r", "trial_id": "stroop-trial-1-unrelated-14", "trial_type": "html-keyboard-response", "trial_index": 145, "time_elapsed": 329431, "internal_node_id": "0.0-6.0-50.0"}}, {"uniqueid": "w71977323:a14824264", "current_trial": 146, "dateTime": 1664875046721, "trialdata": {"rt": 1318, "stimulus": "<p id='stroop-text' class='stroop-yellow'>BOAT</p>", "response": "y", "stimulus-type": "unrelated", "word": "BOAT", "color": "yellow", "correct_response": "y", "trial_id": "stroop-trial-1-unrelated-29", "trial_type": "html-keyboard-response", "trial_index": 146, "time_elapsed": 331255, "internal_node_id": "0.0-6.0-51.0"}}, {"uniqueid": "w71977323:a14824264", "current_trial": 147, "dateTime": 1664875047754, "trialdata": {"rt": 531, "stimulus": "<p id='stroop-text' class='stroop-yellow'>CHAIR</p>", "response": "y", "stimulus-type": "unrelated", "word": "CHAIR", "color": "yellow", "correct_response": "y", "trial_id": "stroop-trial-1-unrelated-15", "trial_type": "html-keyboard-response", "trial_index": 147, "time_elapsed": 332288, "internal_node_id": "0.0-6.0-52.0"}}, {"uniqueid": "w71977323:a14824264", "current_trial": 148, "dateTime": 1664875049117, "trialdata": {"rt": 859, "stimulus": "<p id='stroop-text' class='stroop-blue'>BLUE</p>", "response": "b", "stimulus-type": "congruent", "word": "blue", "color": "blue", "correct_response": "b", "trial_id": "stroop-trial-1-congruent-1", "trial_type": "html-keyboard-response", "trial_index": 148, "time_elapsed": 333651, "internal_node_id": "0.0-6.0-53.0"}}, {"uniqueid": "w71977323:a14824264", "current_trial": 149, "dateTime": 1664875050367, "trialdata": {"rt": 746, "stimulus": "<p id='stroop-text' class='stroop-red'>RED</p>", "response": "g", "stimulus-type": "congruent", "word": "red", "color": "red", "correct_response": "r", "trial_id": "stroop-trial-1-congruent-25", "trial_type": "html-keyboard-response", "trial_index": 149, "time_elapsed": 334901, "internal_node_id": "0.0-6.0-54.0"}}, {"uniqueid": "w71977323:a14824264", "current_trial": 150, "dateTime": 1664875052240, "trialdata": {"rt": 1370, "stimulus": "<p id='stroop-text' class='stroop-blue'>SHIP</p>", "response": "b", "stimulus-type": "unrelated", "word": "SHIP", "color": "blue", "correct_response": "b", "trial_id": "stroop-trial-1-unrelated-17", "trial_type": "html-keyboard-response", "trial_index": 150, "time_elapsed": 336773, "internal_node_id": "0.0-6.0-55.0"}}, {"uniqueid": "w71977323:a14824264", "current_trial": 151, "dateTime": 1664875053581, "trialdata": {"rt": 839, "stimulus": "<p id='stroop-text' class='stroop-blue'>YELLOW</p>", "response": "b", "stimulus-type": "incongruent", "word": "yellow", "color": "blue", "correct_response": "b", "trial_id": "stroop-trial-1-incongruent-7", "trial_type": "html-keyboard-response", "trial_index": 151, "time_elapsed": 338115, "internal_node_id": "0.0-6.0-56.0"}}, {"uniqueid": "w71977323:a14824264", "current_trial": 152, "dateTime": 1664875054681, "trialdata": {"rt": 593, "stimulus": "<p id='stroop-text' class='stroop-blue'>YELLOW</p>", "response": "b", "stimulus-type": "incongruent", "word": "yellow", "color": "blue", "correct_response": "b", "trial_id": "stroop-trial-1-incongruent-29", "trial_type": "html-keyboard-response", "trial_index": 152, "time_elapsed": 339215, "internal_node_id": "0.0-6.0-57.0"}}, {"uniqueid": "w71977323:a14824264", "current_trial": 153, "dateTime": 1664875055771, "trialdata": {"rt": 587, "stimulus": "<p id='stroop-text' class='stroop-blue'>BLUE</p>", "response": "b", "stimulus-type": "congruent", "word": "blue", "color": "blue", "correct_response": "b", "trial_id": "stroop-trial-1-congruent-19", "trial_type": "html-keyboard-response", "trial_index": 153, "time_elapsed": 340304, "internal_node_id": "0.0-6.0-58.0"}}, {"uniqueid": "w71977323:a14824264", "current_trial": 154, "dateTime": 1664875057042, "trialdata": {"rt": 768, "stimulus": "<p id='stroop-text' class='stroop-yellow'>YELLOW</p>", "response": "y", "stimulus-type": "congruent", "word": "yellow", "color": "yellow", "correct_response": "y", "trial_id": "stroop-trial-1-congruent-7", "trial_type": "html-keyboard-response", "trial_index": 154, "time_elapsed": 341576, "internal_node_id": "0.0-6.0-59.0"}}, {"uniqueid": "w71977323:a14824264", "current_trial": 155, "dateTime": 1664875058091, "trialdata": {"rt": 544, "stimulus": "<p id='stroop-text' class='stroop-blue'>BLUE</p>", "response": "y", "stimulus-type": "congruent", "word": "blue", "color": "blue", "correct_response": "b", "trial_id": "stroop-trial-1-congruent-2", "trial_type": "html-keyboard-response", "trial_index": 155, "time_elapsed": 342624, "internal_node_id": "0.0-6.0-60.0"}}, {"uniqueid": "w71977323:a14824264", "current_trial": 156, "dateTime": 1664875060013, "trialdata": {"rt": 1416, "stimulus": "<p id='stroop-text' class='stroop-green'>RED</p>", "response": "g", "stimulus-type": "incongruent", "word": "red", "color": "green", "correct_response": "g", "trial_id": "stroop-trial-1-incongruent-15", "trial_type": "html-keyboard-response", "trial_index": 156, "time_elapsed": 344547, "internal_node_id": "0.0-6.0-61.0"}}, {"uniqueid": "w71977323:a14824264", "current_trial": 157, "dateTime": 1664875061384, "trialdata": {"rt": 865, "stimulus": "<p id='stroop-text' class='stroop-red'>STONE</p>", "response": "r", "stimulus-type": "unrelated", "word": "STONE", "color": "red", "correct_response": "r", "trial_id": "stroop-trial-1-unrelated-5", "trial_type": "html-keyboard-response", "trial_index": 157, "time_elapsed": 345917, "internal_node_id": "0.0-6.0-62.0"}}, {"uniqueid": "w71977323:a14824264", "current_trial": 158, "dateTime": 1664875062436, "trialdata": {"rt": 550, "stimulus": "<p id='stroop-text' class='stroop-red'>GREEN</p>", "response": "r", "stimulus-type": "incongruent", "word": "green", "color": "red", "correct_response": "r", "trial_id": "stroop-trial-1-incongruent-26", "trial_type": "html-keyboard-response", "trial_index": 158, "time_elapsed": 346970, "internal_node_id": "0.0-6.0-63.0"}}, {"uniqueid": "w71977323:a14824264", "current_trial": 159, "dateTime": 1664875064561, "trialdata": {"rt": 1619, "stimulus": "<p id='stroop-text' class='stroop-blue'>BRAIN</p>", "response": "b", "stimulus-type": "unrelated", "word": "BRAIN", "color": "blue", "correct_response": "b", "trial_id": "stroop-trial-1-unrelated-23", "trial_type": "html-keyboard-response", "trial_index": 159, "time_elapsed": 349095, "internal_node_id": "0.0-6.0-64.0"}}, {"uniqueid": "w71977323:a14824264", "current_trial": 160, "dateTime": 1664875065600, "trialdata": {"rt": 536, "stimulus": "<p id='stroop-text' class='stroop-blue'>GREEN</p>", "response": "b", "stimulus-type": "incongruent", "word": "green", "color": "blue", "correct_response": "b", "trial_id": "stroop-trial-1-incongruent-22", "trial_type": "html-keyboard-response", "trial_index": 160, "time_elapsed": 350134, "internal_node_id": "0.0-6.0-65.0"}}, {"uniqueid": "w71977323:a14824264", "current_trial": 161, "dateTime": 1664875066925, "trialdata": {"rt": 821, "stimulus": "<p id='stroop-text' class='stroop-red'>RED</p>", "response": "g", "stimulus-type": "congruent", "word": "red", "color": "red", "correct_response": "r", "trial_id": "stroop-trial-1-congruent-21", "trial_type": "html-keyboard-response", "trial_index": 161, "time_elapsed": 351459, "internal_node_id": "0.0-6.0-66.0"}}, {"uniqueid": "w71977323:a14824264", "current_trial": 162, "dateTime": 1664875068187, "trialdata": {"rt": 754, "stimulus": "<p id='stroop-text' class='stroop-red'>RED</p>", "response": "r", "stimulus-type": "congruent", "word": "red", "color": "red", "correct_response": "r", "trial_id": "stroop-trial-1-congruent-12", "trial_type": "html-keyboard-response", "trial_index": 162, "time_elapsed": 352721, "internal_node_id": "0.0-6.0-67.0"}}, {"uniqueid": "w71977323:a14824264", "current_trial": 163, "dateTime": 1664875069512, "trialdata": {"rt": 822, "stimulus": "<p id='stroop-text' class='stroop-green'>DOG</p>", "response": "g", "stimulus-type": "unrelated", "word": "DOG", "color": "green", "correct_response": "g", "trial_id": "stroop-trial-1-unrelated-19", "trial_type": "html-keyboard-response", "trial_index": 163, "time_elapsed": 354045, "internal_node_id": "0.0-6.0-68.0"}}, {"uniqueid": "w71977323:a14824264", "current_trial": 164, "dateTime": 1664875070777, "trialdata": {"rt": 758, "stimulus": "<p id='stroop-text' class='stroop-red'>WINDOW</p>", "response": "g", "stimulus-type": "unrelated", "word": "WINDOW", "color": "red", "correct_response": "r", "trial_id": "stroop-trial-1-unrelated-25", "trial_type": "html-keyboard-response", "trial_index": 164, "time_elapsed": 355311, "internal_node_id": "0.0-6.0-69.0"}}, {"uniqueid": "w71977323:a14824264", "current_trial": 165, "dateTime": 1664875072254, "trialdata": {"rt": 971, "stimulus": "<p id='stroop-text' class='stroop-yellow'>YELLOW</p>", "response": "y", "stimulus-type": "congruent", "word": "yellow", "color": "yellow", "correct_response": "y", "trial_id": "stroop-trial-1-congruent-6", "trial_type": "html-keyboard-response", "trial_index": 165, "time_elapsed": 356788, "internal_node_id": "0.0-6.0-70.0"}}, {"uniqueid": "w71977323:a14824264", "current_trial": 166, "dateTime": 1664875073734, "trialdata": {"rt": 977, "stimulus": "<p id='stroop-text' class='stroop-red'>BRAIN</p>", "response": "r", "stimulus-type": "unrelated", "word": "BRAIN", "color": "red", "correct_response": "r", "trial_id": "stroop-trial-1-unrelated-3", "trial_type": "html-keyboard-response", "trial_index": 166, "time_elapsed": 358268, "internal_node_id": "0.0-6.0-71.0"}}, {"uniqueid": "w71977323:a14824264", "current_trial": 167, "dateTime": 1664875074941, "trialdata": {"rt": 703, "stimulus": "<p id='stroop-text' class='stroop-red'>RED</p>", "response": "r", "stimulus-type": "congruent", "word": "red", "color": "red", "correct_response": "r", "trial_id": "stroop-trial-1-congruent-9", "trial_type": "html-keyboard-response", "trial_index": 167, "time_elapsed": 359475, "internal_node_id": "0.0-6.0-72.0"}}, {"uniqueid": "w71977323:a14824264", "current_trial": 168, "dateTime": 1664875076678, "trialdata": {"rt": 1234, "stimulus": "<p id='stroop-text' class='stroop-green'>MONKEY</p>", "response": "g", "stimulus-type": "unrelated", "word": "MONKEY", "color": "green", "correct_response": "g", "trial_id": "stroop-trial-1-unrelated-12", "trial_type": "html-keyboard-response", "trial_index": 168, "time_elapsed": 361212, "internal_node_id": "0.0-6.0-73.0"}}, {"uniqueid": "w71977323:a14824264", "current_trial": 169, "dateTime": 1664875078262, "trialdata": {"rt": 1081, "stimulus": "<p id='stroop-text' class='stroop-yellow'>BLUE</p>", "response": "y", "stimulus-type": "incongruent", "word": "blue", "color": "yellow", "correct_response": "y", "trial_id": "stroop-trial-1-incongruent-13", "trial_type": "html-keyboard-response", "trial_index": 169, "time_elapsed": 362796, "internal_node_id": "0.0-6.0-74.0"}}, {"uniqueid": "w71977323:a14824264", "current_trial": 170, "dateTime": 1664875079684, "trialdata": {"rt": 919, "stimulus": "<p id='stroop-text' class='stroop-red'>RED</p>", "response": "r", "stimulus-type": "congruent", "word": "red", "color": "red", "correct_response": "r", "trial_id": "stroop-trial-1-congruent-3", "trial_type": "html-keyboard-response", "trial_index": 170, "time_elapsed": 364218, "internal_node_id": "0.0-6.0-75.0"}}, {"uniqueid": "w71977323:a14824264", "current_trial": 171, "dateTime": 1664875081321, "trialdata": {"rt": 1132, "stimulus": "<p id='stroop-text' class='stroop-yellow'>YELLOW</p>", "response": "g", "stimulus-type": "congruent", "word": "yellow", "color": "yellow", "correct_response": "y", "trial_id": "stroop-trial-1-congruent-23", "trial_type": "html-keyboard-response", "trial_index": 171, "time_elapsed": 365854, "internal_node_id": "0.0-6.0-76.0"}}, {"uniqueid": "w71977323:a14824264", "current_trial": 172, "dateTime": 1664875083641, "trialdata": {"rt": 1817, "stimulus": "<p id='stroop-text' class='stroop-red'>WINDOW</p>", "response": "r", "stimulus-type": "unrelated", "word": "WINDOW", "color": "red", "correct_response": "r", "trial_id": "stroop-trial-1-unrelated-18", "trial_type": "html-keyboard-response", "trial_index": 172, "time_elapsed": 368175, "internal_node_id": "0.0-6.0-77.0"}}, {"uniqueid": "w71977323:a14824264", "current_trial": 173, "dateTime": 1664875085025, "trialdata": {"rt": 877, "stimulus": "<p id='stroop-text' class='stroop-yellow'>DOG</p>", "response": "y", "stimulus-type": "unrelated", "word": "DOG", "color": "yellow", "correct_response": "y", "trial_id": "stroop-trial-1-unrelated-6", "trial_type": "html-keyboard-response", "trial_index": 173, "time_elapsed": 369559, "internal_node_id": "0.0-6.0-78.0"}}, {"uniqueid": "w71977323:a14824264", "current_trial": 174, "dateTime": 1664875086415, "trialdata": {"rt": 886, "stimulus": "<p id='stroop-text' class='stroop-green'>MONKEY</p>", "response": "g", "stimulus-type": "unrelated", "word": "MONKEY", "color": "green", "correct_response": "g", "trial_id": "stroop-trial-1-unrelated-27", "trial_type": "html-keyboard-response", "trial_index": 174, "time_elapsed": 370948, "internal_node_id": "0.0-6.0-79.0"}}, {"uniqueid": "w71977323:a14824264", "current_trial": 175, "dateTime": 1664875088028, "trialdata": {"rt": 1111, "stimulus": "<p id='stroop-text' class='stroop-blue'>RED</p>", "response": "b", "stimulus-type": "incongruent", "word": "red", "color": "blue", "correct_response": "b", "trial_id": "stroop-trial-1-incongruent-9", "trial_type": "html-keyboard-response", "trial_index": 175, "time_elapsed": 372562, "internal_node_id": "0.0-6.0-80.0"}}, {"uniqueid": "w71977323:a14824264", "current_trial": 176, "dateTime": 1664875089121, "trialdata": {"rt": 589, "stimulus": "<p id='stroop-text' class='stroop-blue'>GREEN</p>", "response": "b", "stimulus-type": "incongruent", "word": "green", "color": "blue", "correct_response": "b", "trial_id": "stroop-trial-1-incongruent-18", "trial_type": "html-keyboard-response", "trial_index": 176, "time_elapsed": 373655, "internal_node_id": "0.0-6.0-81.0"}}, {"uniqueid": "w71977323:a14824264", "current_trial": 177, "dateTime": 1664875090136, "trialdata": {"rt": 511, "stimulus": "<p id='stroop-text' class='stroop-blue'>YELLOW</p>", "response": "b", "stimulus-type": "incongruent", "word": "yellow", "color": "blue", "correct_response": "b", "trial_id": "stroop-trial-1-incongruent-19", "trial_type": "html-keyboard-response", "trial_index": 177, "time_elapsed": 374670, "internal_node_id": "0.0-6.0-82.0"}}, {"uniqueid": "w71977323:a14824264", "current_trial": 178, "dateTime": 1664875091351, "trialdata": {"rt": 707, "stimulus": "<p id='stroop-text' class='stroop-red'>RED</p>", "response": "r", "stimulus-type": "congruent", "word": "red", "color": "red", "correct_response": "r", "trial_id": "stroop-trial-1-congruent-5", "trial_type": "html-keyboard-response", "trial_index": 178, "time_elapsed": 375885, "internal_node_id": "0.0-6.0-83.0"}}, {"uniqueid": "w71977323:a14824264", "current_trial": 179, "dateTime": 1664875092548, "trialdata": {"rt": 695, "stimulus": "<p id='stroop-text' class='stroop-red'>YELLOW</p>", "response": "r", "stimulus-type": "incongruent", "word": "yellow", "color": "red", "correct_response": "r", "trial_id": "stroop-trial-1-incongruent-27", "trial_type": "html-keyboard-response", "trial_index": 179, "time_elapsed": 377082, "internal_node_id": "0.0-6.0-84.0"}}, {"uniqueid": "w71977323:a14824264", "current_trial": 180, "dateTime": 1664875094256, "trialdata": {"rt": 1203, "stimulus": "<p id='stroop-text' class='stroop-yellow'>BRAIN</p>", "response": "y", "stimulus-type": "unrelated", "word": "BRAIN", "color": "yellow", "correct_response": "y", "trial_id": "stroop-trial-1-unrelated-22", "trial_type": "html-keyboard-response", "trial_index": 180, "time_elapsed": 378790, "internal_node_id": "0.0-6.0-85.0"}}, {"uniqueid": "w71977323:a14824264", "current_trial": 181, "dateTime": 1664875096710, "trialdata": {"rt": 1953, "stimulus": "<p id='stroop-text' class='stroop-blue'>YELLOW</p>", "response": "b", "stimulus-type": "incongruent", "word": "yellow", "color": "blue", "correct_response": "b", "trial_id": "stroop-trial-1-incongruent-1", "trial_type": "html-keyboard-response", "trial_index": 181, "time_elapsed": 381243, "internal_node_id": "0.0-6.0-86.0"}}, {"uniqueid": "w71977323:a14824264", "current_trial": 182, "dateTime": 1664875098012, "trialdata": {"rt": 795, "stimulus": "<p id='stroop-text' class='stroop-green'>GREEN</p>", "response": "g", "stimulus-type": "congruent", "word": "green", "color": "green", "correct_response": "g", "trial_id": "stroop-trial-1-congruent-30", "trial_type": "html-keyboard-response", "trial_index": 182, "time_elapsed": 382546, "internal_node_id": "0.0-6.0-87.0"}}, {"uniqueid": "w71977323:a14824264", "current_trial": 183, "dateTime": 1664875099438, "trialdata": {"rt": 922, "stimulus": "<p id='stroop-text' class='stroop-yellow'>WINDOW</p>", "response": "y", "stimulus-type": "unrelated", "word": "WINDOW", "color": "yellow", "correct_response": "y", "trial_id": "stroop-trial-1-unrelated-1", "trial_type": "html-keyboard-response", "trial_index": 183, "time_elapsed": 383972, "internal_node_id": "0.0-6.0-88.0"}}, {"uniqueid": "w71977323:a14824264", "current_trial": 184, "dateTime": 1664875100686, "trialdata": {"rt": 744, "stimulus": "<p id='stroop-text' class='stroop-red'>CHAIR</p>", "response": "r", "stimulus-type": "unrelated", "word": "CHAIR", "color": "red", "correct_response": "r", "trial_id": "stroop-trial-1-unrelated-7", "trial_type": "html-keyboard-response", "trial_index": 184, "time_elapsed": 385220, "internal_node_id": "0.0-6.0-89.0"}}, {"uniqueid": "w71977323:a14824264", "current_trial": 185, "dateTime": 1664875104079, "trialdata": {"rt": 2886, "stimulus": "  <h1> End of block! </h1>\n\n  You have reached the end of the block 2/5. If you need a short break, feel free to take one now before moving on.\n\n  <br><br>\n  In the next block, you will complete another 90 rounds of this game.\n\n  <br><br>\n  <div style='text-align: center;'>Press <code>space</code> to begin.</div>\n  <br><br>\n<div style='text-align: center;'>(If the experiment doesn't continue, try clicking on the text and then pressing <code>space</code>.)</div>", "response": " ", "trial_id": "stroop_1_ready_3", "trial_type": "html-keyboard-response", "trial_index": 185, "time_elapsed": 388612, "internal_node_id": "0.0-7.0"}}, {"uniqueid": "w71977323:a14824264", "current_trial": 186, "dateTime": 1664875105090, "trialdata": {"rt": 1008, "stimulus": "<p id='stroop-text' class='stroop-blue'>BLUE</p>", "response": "b", "stimulus-type": "congruent", "word": "blue", "color": "blue", "correct_response": "b", "trial_id": "stroop-trial-1-congruent-27", "trial_type": "html-keyboard-response", "trial_index": 186, "time_elapsed": 389624, "internal_node_id": "0.0-8.0-0.0"}}, {"uniqueid": "w71977323:a14824264", "current_trial": 187, "dateTime": 1664875106420, "trialdata": {"rt": 826, "stimulus": "<p id='stroop-text' class='stroop-yellow'>YELLOW</p>", "response": "y", "stimulus-type": "congruent", "word": "yellow", "color": "yellow", "correct_response": "y", "trial_id": "stroop-trial-1-congruent-19", "trial_type": "html-keyboard-response", "trial_index": 187, "time_elapsed": 390954, "internal_node_id": "0.0-8.0-1.0"}}, {"uniqueid": "w71977323:a14824264", "current_trial": 188, "dateTime": 1664875107633, "trialdata": {"rt": 705, "stimulus": "<p id='stroop-text' class='stroop-yellow'>STONE</p>", "response": "y", "stimulus-type": "unrelated", "word": "STONE", "color": "yellow", "correct_response": "y", "trial_id": "stroop-trial-1-unrelated-24", "trial_type": "html-keyboard-response", "trial_index": 188, "time_elapsed": 392167, "internal_node_id": "0.0-8.0-2.0"}}, {"uniqueid": "w71977323:a14824264", "current_trial": 189, "dateTime": 1664875109754, "trialdata": {"rt": 1619, "stimulus": "<p id='stroop-text' class='stroop-blue'>RED</p>", "response": "b", "stimulus-type": "incongruent", "word": "red", "color": "blue", "correct_response": "b", "trial_id": "stroop-trial-1-incongruent-7", "trial_type": "html-keyboard-response", "trial_index": 189, "time_elapsed": 394288, "internal_node_id": "0.0-8.0-3.0"}}, {"uniqueid": "w71977323:a14824264", "current_trial": 190, "dateTime": 1664875110882, "trialdata": {"rt": 622, "stimulus": "<p id='stroop-text' class='stroop-blue'>RED</p>", "response": "b", "stimulus-type": "incongruent", "word": "red", "color": "blue", "correct_response": "b", "trial_id": "stroop-trial-1-incongruent-6", "trial_type": "html-keyboard-response", "trial_index": 190, "time_elapsed": 395416, "internal_node_id": "0.0-8.0-4.0"}}, {"uniqueid": "w71977323:a14824264", "current_trial": 191, "dateTime": 1664875112129, "trialdata": {"rt": 744, "stimulus": "<p id='stroop-text' class='stroop-green'>GREEN</p>", "response": "g", "stimulus-type": "congruent", "word": "green", "color": "green", "correct_response": "g", "trial_id": "stroop-trial-1-congruent-9", "trial_type": "html-keyboard-response", "trial_index": 191, "time_elapsed": 396663, "internal_node_id": "0.0-8.0-5.0"}}, {"uniqueid": "w71977323:a14824264", "current_trial": 192, "dateTime": 1664875113607, "trialdata": {"rt": 974, "stimulus": "<p id='stroop-text' class='stroop-yellow'>DOG</p>", "response": "y", "stimulus-type": "unrelated", "word": "DOG", "color": "yellow", "correct_response": "y", "trial_id": "stroop-trial-1-unrelated-17", "trial_type": "html-keyboard-response", "trial_index": 192, "time_elapsed": 398141, "internal_node_id": "0.0-8.0-6.0"}}, {"uniqueid": "w71977323:a14824264", "current_trial": 193, "dateTime": 1664875114983, "trialdata": {"rt": 874, "stimulus": "<p id='stroop-text' class='stroop-yellow'>FORK</p>", "response": "y", "stimulus-type": "unrelated", "word": "FORK", "color": "yellow", "correct_response": "y", "trial_id": "stroop-trial-1-unrelated-22", "trial_type": "html-keyboard-response", "trial_index": 193, "time_elapsed": 399516, "internal_node_id": "0.0-8.0-7.0"}}, {"uniqueid": "w71977323:a14824264", "current_trial": 194, "dateTime": 1664875116313, "trialdata": {"rt": 823, "stimulus": "<p id='stroop-text' class='stroop-green'>GREEN</p>", "response": "g", "stimulus-type": "congruent", "word": "green", "color": "green", "correct_response": "g", "trial_id": "stroop-trial-1-congruent-4", "trial_type": "html-keyboard-response", "trial_index": 194, "time_elapsed": 400846, "internal_node_id": "0.0-8.0-8.0"}}, {"uniqueid": "w71977323:a14824264", "current_trial": 195, "dateTime": 1664875117747, "trialdata": {"rt": 928, "stimulus": "<p id='stroop-text' class='stroop-blue'>BOTTLE</p>", "response": "b", "stimulus-type": "unrelated", "word": "BOTTLE", "color": "blue", "correct_response": "b", "trial_id": "stroop-trial-1-unrelated-19", "trial_type": "html-keyboard-response", "trial_index": 195, "time_elapsed": 402279, "internal_node_id": "0.0-8.0-9.0"}}, {"uniqueid": "w71977323:a14824264", "current_trial": 196, "dateTime": 1664875118986, "trialdata": {"rt": 736, "stimulus": "<p id='stroop-text' class='stroop-red'>RED</p>", "response": "r", "stimulus-type": "congruent", "word": "red", "color": "red", "correct_response": "r", "trial_id": "stroop-trial-1-congruent-20", "trial_type": "html-keyboard-response", "trial_index": 196, "time_elapsed": 403520, "internal_node_id": "0.0-8.0-10.0"}}, {"uniqueid": "w71977323:a14824264", "current_trial": 197, "dateTime": 1664875120317, "trialdata": {"rt": 827, "stimulus": "<p id='stroop-text' class='stroop-green'>YELLOW</p>", "response": "g", "stimulus-type": "incongruent", "word": "yellow", "color": "green", "correct_response": "g", "trial_id": "stroop-trial-1-incongruent-14", "trial_type": "html-keyboard-response", "trial_index": 197, "time_elapsed": 404850, "internal_node_id": "0.0-8.0-11.0"}}, {"uniqueid": "w71977323:a14824264", "current_trial": 198, "dateTime": 1664875121780, "trialdata": {"rt": 960, "stimulus": "<p id='stroop-text' class='stroop-blue'>FORK</p>", "response": "b", "stimulus-type": "unrelated", "word": "FORK", "color": "blue", "correct_response": "b", "trial_id": "stroop-trial-1-unrelated-23", "trial_type": "html-keyboard-response", "trial_index": 198, "time_elapsed": 406313, "internal_node_id": "0.0-8.0-12.0"}}, {"uniqueid": "w71977323:a14824264", "current_trial": 199, "dateTime": 1664875122961, "trialdata": {"rt": 678, "stimulus": "<p id='stroop-text' class='stroop-green'>GREEN</p>", "response": "g", "stimulus-type": "congruent", "word": "green", "color": "green", "correct_response": "g", "trial_id": "stroop-trial-1-congruent-14", "trial_type": "html-keyboard-response", "trial_index": 199, "time_elapsed": 407495, "internal_node_id": "0.0-8.0-13.0"}}, {"uniqueid": "w71977323:a14824264", "current_trial": 200, "dateTime": 1664875124054, "trialdata": {"rt": 588, "stimulus": "<p id='stroop-text' class='stroop-green'>GREEN</p>", "response": "g", "stimulus-type": "congruent", "word": "green", "color": "green", "correct_response": "g", "trial_id": "stroop-trial-1-congruent-30", "trial_type": "html-keyboard-response", "trial_index": 200, "time_elapsed": 408587, "internal_node_id": "0.0-8.0-14.0"}}, {"uniqueid": "w71977323:a14824264", "current_trial": 201, "dateTime": 1664875125078, "trialdata": {"rt": 519, "stimulus": "<p id='stroop-text' class='stroop-green'>YELLOW</p>", "response": "g", "stimulus-type": "incongruent", "word": "yellow", "color": "green", "correct_response": "g", "trial_id": "stroop-trial-1-incongruent-25", "trial_type": "html-keyboard-response", "trial_index": 201, "time_elapsed": 409612, "internal_node_id": "0.0-8.0-15.0"}}, {"uniqueid": "w71977323:a14824264", "current_trial": 202, "dateTime": 1664875126554, "trialdata": {"rt": 972, "stimulus": "<p id='stroop-text' class='stroop-blue'>BOAT</p>", "response": "y", "stimulus-type": "unrelated", "word": "BOAT", "color": "blue", "correct_response": "b", "trial_id": "stroop-trial-1-unrelated-8", "trial_type": "html-keyboard-response", "trial_index": 202, "time_elapsed": 411088, "internal_node_id": "0.0-8.0-16.0"}}, {"uniqueid": "w71977323:a14824264", "current_trial": 203, "dateTime": 1664875127959, "trialdata": {"rt": 897, "stimulus": "<p id='stroop-text' class='stroop-red'>WINDOW</p>", "response": "r", "stimulus-type": "unrelated", "word": "WINDOW", "color": "red", "correct_response": "r", "trial_id": "stroop-trial-1-unrelated-12", "trial_type": "html-keyboard-response", "trial_index": 203, "time_elapsed": 412492, "internal_node_id": "0.0-8.0-17.0"}}, {"uniqueid": "w71977323:a14824264", "current_trial": 204, "dateTime": 1664875131197, "trialdata": {"rt": 2733, "stimulus": "<p id='stroop-text' class='stroop-red'>RED</p>", "response": "r", "stimulus-type": "congruent", "word": "red", "color": "red", "correct_response": "r", "trial_id": "stroop-trial-1-congruent-15", "trial_type": "html-keyboard-response", "trial_index": 204, "time_elapsed": 415731, "internal_node_id": "0.0-8.0-18.0"}}, {"uniqueid": "w71977323:a14824264", "current_trial": 205, "dateTime": 1664875132610, "trialdata": {"rt": 908, "stimulus": "<p id='stroop-text' class='stroop-red'>BLUE</p>", "response": "r", "stimulus-type": "incongruent", "word": "blue", "color": "red", "correct_response": "r", "trial_id": "stroop-trial-1-incongruent-9", "trial_type": "html-keyboard-response", "trial_index": 205, "time_elapsed": 417144, "internal_node_id": "0.0-8.0-19.0"}}, {"uniqueid": "w71977323:a14824264", "current_trial": 206, "dateTime": 1664875133805, "trialdata": {"rt": 693, "stimulus": "<p id='stroop-text' class='stroop-red'>WINDOW</p>", "response": "r", "stimulus-type": "unrelated", "word": "WINDOW", "color": "red", "correct_response": "r", "trial_id": "stroop-trial-1-unrelated-18", "trial_type": "html-keyboard-response", "trial_index": 206, "time_elapsed": 418339, "internal_node_id": "0.0-8.0-20.0"}}, {"uniqueid": "w71977323:a14824264", "current_trial": 207, "dateTime": 1664875135073, "trialdata": {"rt": 766, "stimulus": "<p id='stroop-text' class='stroop-green'>GREEN</p>", "response": "g", "stimulus-type": "congruent", "word": "green", "color": "green", "correct_response": "g", "trial_id": "stroop-trial-1-congruent-3", "trial_type": "html-keyboard-response", "trial_index": 207, "time_elapsed": 419607, "internal_node_id": "0.0-8.0-21.0"}}, {"uniqueid": "w71977323:a14824264", "current_trial": 208, "dateTime": 1664875136421, "trialdata": {"rt": 841, "stimulus": "<p id='stroop-text' class='stroop-yellow'>YELLOW</p>", "response": "y", "stimulus-type": "congruent", "word": "yellow", "color": "yellow", "correct_response": "y", "trial_id": "stroop-trial-1-congruent-28", "trial_type": "html-keyboard-response", "trial_index": 208, "time_elapsed": 420955, "internal_node_id": "0.0-8.0-22.0"}}, {"uniqueid": "w71977323:a14824264", "current_trial": 209, "dateTime": 1664875137440, "trialdata": {"rt": 516, "stimulus": "<p id='stroop-text' class='stroop-yellow'>YELLOW</p>", "response": "y", "stimulus-type": "congruent", "word": "yellow", "color": "yellow", "correct_response": "y", "trial_id": "stroop-trial-1-congruent-29", "trial_type": "html-keyboard-response", "trial_index": 209, "time_elapsed": 421974, "internal_node_id": "0.0-8.0-23.0"}}, {"uniqueid": "w71977323:a14824264", "current_trial": 210, "dateTime": 1664875139407, "trialdata": {"rt": 1462, "stimulus": "<p id='stroop-text' class='stroop-red'>RED</p>", "response": "r", "stimulus-type": "congruent", "word": "red", "color": "red", "correct_response": "r", "trial_id": "stroop-trial-1-congruent-25", "trial_type": "html-keyboard-response", "trial_index": 210, "time_elapsed": 423940, "internal_node_id": "0.0-8.0-24.0"}}, {"uniqueid": "w71977323:a14824264", "current_trial": 211, "dateTime": 1664875140593, "trialdata": {"rt": 684, "stimulus": "<p id='stroop-text' class='stroop-blue'>YELLOW</p>", "response": "g", "stimulus-type": "incongruent", "word": "yellow", "color": "blue", "correct_response": "b", "trial_id": "stroop-trial-1-incongruent-17", "trial_type": "html-keyboard-response", "trial_index": 211, "time_elapsed": 425127, "internal_node_id": "0.0-8.0-25.0"}}, {"uniqueid": "w71977323:a14824264", "current_trial": 212, "dateTime": 1664875141741, "trialdata": {"rt": 646, "stimulus": "<p id='stroop-text' class='stroop-blue'>BOAT</p>", "response": "b", "stimulus-type": "unrelated", "word": "BOAT", "color": "blue", "correct_response": "b", "trial_id": "stroop-trial-1-unrelated-16", "trial_type": "html-keyboard-response", "trial_index": 212, "time_elapsed": 426274, "internal_node_id": "0.0-8.0-26.0"}}, {"uniqueid": "w71977323:a14824264", "current_trial": 213, "dateTime": 1664875142801, "trialdata": {"rt": 553, "stimulus": "<p id='stroop-text' class='stroop-blue'>CHAIR</p>", "response": "b", "stimulus-type": "unrelated", "word": "CHAIR", "color": "blue", "correct_response": "b", "trial_id": "stroop-trial-1-unrelated-13", "trial_type": "html-keyboard-response", "trial_index": 213, "time_elapsed": 427335, "internal_node_id": "0.0-8.0-27.0"}}, {"uniqueid": "w71977323:a14824264", "current_trial": 214, "dateTime": 1664875144122, "trialdata": {"rt": 817, "stimulus": "<p id='stroop-text' class='stroop-green'>WINDOW</p>", "response": "g", "stimulus-type": "unrelated", "word": "WINDOW", "color": "green", "correct_response": "g", "trial_id": "stroop-trial-1-unrelated-26", "trial_type": "html-keyboard-response", "trial_index": 214, "time_elapsed": 428656, "internal_node_id": "0.0-8.0-28.0"}}, {"uniqueid": "w71977323:a14824264", "current_trial": 215, "dateTime": 1664875145468, "trialdata": {"rt": 843, "stimulus": "<p id='stroop-text' class='stroop-yellow'>BLUE</p>", "response": "y", "stimulus-type": "incongruent", "word": "blue", "color": "yellow", "correct_response": "y", "trial_id": "stroop-trial-1-incongruent-16", "trial_type": "html-keyboard-response", "trial_index": 215, "time_elapsed": 430001, "internal_node_id": "0.0-8.0-29.0"}}, {"uniqueid": "w71977323:a14824264", "current_trial": 216, "dateTime": 1664875146550, "trialdata": {"rt": 578, "stimulus": "<p id='stroop-text' class='stroop-yellow'>YELLOW</p>", "response": "y", "stimulus-type": "congruent", "word": "yellow", "color": "yellow", "correct_response": "y", "trial_id": "stroop-trial-1-congruent-2", "trial_type": "html-keyboard-response", "trial_index": 216, "time_elapsed": 431084, "internal_node_id": "0.0-8.0-30.0"}}, {"uniqueid": "w71977323:a14824264", "current_trial": 217, "dateTime": 1664875147719, "trialdata": {"rt": 663, "stimulus": "<p id='stroop-text' class='stroop-yellow'>RED</p>", "response": "y", "stimulus-type": "incongruent", "word": "red", "color": "yellow", "correct_response": "y", "trial_id": "stroop-trial-1-incongruent-30", "trial_type": "html-keyboard-response", "trial_index": 217, "time_elapsed": 432253, "internal_node_id": "0.0-8.0-31.0"}}, {"uniqueid": "w71977323:a14824264", "current_trial": 218, "dateTime": 1664875149370, "trialdata": {"rt": 1147, "stimulus": "<p id='stroop-text' class='stroop-green'>BOAT</p>", "response": "g", "stimulus-type": "unrelated", "word": "BOAT", "color": "green", "correct_response": "g", "trial_id": "stroop-trial-1-unrelated-21", "trial_type": "html-keyboard-response", "trial_index": 218, "time_elapsed": 433903, "internal_node_id": "0.0-8.0-32.0"}}, {"uniqueid": "w71977323:a14824264", "current_trial": 219, "dateTime": 1664875151736, "trialdata": {"rt": 1863, "stimulus": "<p id='stroop-text' class='stroop-blue'>BRIDGE</p>", "response": "b", "stimulus-type": "unrelated", "word": "BRIDGE", "color": "blue", "correct_response": "b", "trial_id": "stroop-trial-1-unrelated-5", "trial_type": "html-keyboard-response", "trial_index": 219, "time_elapsed": 436269, "internal_node_id": "0.0-8.0-33.0"}}, {"uniqueid": "w71977323:a14824264", "current_trial": 220, "dateTime": 1664875153205, "trialdata": {"rt": 962, "stimulus": "<p id='stroop-text' class='stroop-green'>YELLOW</p>", "response": "g", "stimulus-type": "incongruent", "word": "yellow", "color": "green", "correct_response": "g", "trial_id": "stroop-trial-1-incongruent-29", "trial_type": "html-keyboard-response", "trial_index": 220, "time_elapsed": 437739, "internal_node_id": "0.0-8.0-34.0"}}, {"uniqueid": "w71977323:a14824264", "current_trial": 221, "dateTime": 1664875154484, "trialdata": {"rt": 774, "stimulus": "<p id='stroop-text' class='stroop-blue'>RED</p>", "response": "g", "stimulus-type": "incongruent", "word": "red", "color": "blue", "correct_response": "b", "trial_id": "stroop-trial-1-incongruent-8", "trial_type": "html-keyboard-response", "trial_index": 221, "time_elapsed": 439018, "internal_node_id": "0.0-8.0-35.0"}}, {"uniqueid": "w71977323:a14824264", "current_trial": 222, "dateTime": 1664875155802, "trialdata": {"rt": 810, "stimulus": "<p id='stroop-text' class='stroop-yellow'>BLUE</p>", "response": "y", "stimulus-type": "incongruent", "word": "blue", "color": "yellow", "correct_response": "y", "trial_id": "stroop-trial-