{"condition": 1, "counterbalance": 0, "assignmentId": "a88558309", "workerId": "w18436043", "hitId": "h83930111", "currenttrial": 137, "bonus": 0, "data": [{"uniqueid": "w18436043:a88558309", "current_trial": 0, "dateTime": 1664873103585, "trialdata": {"success": true, "trial_type": "fullscreen", "trial_index": 0, "time_elapsed": 6410, "internal_node_id": "0.0-0.0"}}, {"uniqueid": "w18436043:a88558309", "current_trial": 1, "dateTime": 1664873117429, "trialdata": {"view_history": [{"page_index": 0, "viewing_time": 13840}], "rt": 13841, "trial_id": "exp_instructions_no_distractor", "trial_type": "instructions", "trial_index": 1, "time_elapsed": 20254, "internal_node_id": "0.0-1.0"}}, {"uniqueid": "w18436043:a88558309", "current_trial": 2, "dateTime": 1664873121377, "trialdata": {"success": true, "trial_type": "fullscreen", "trial_index": 2, "time_elapsed": 24201, "internal_node_id": "0.0-2.0-0.0"}}, {"uniqueid": "w18436043:a88558309", "current_trial": 3, "dateTime": 1664873239290, "trialdata": {"view_history": [{"page_index": 0, "viewing_time": 32915}, {"page_index": 1, "viewing_time": 26748}, {"page_index": 2, "viewing_time": 33452}, {"page_index": 3, "viewing_time": 13472}, {"page_index": 4, "viewing_time": 11325}], "rt": 117912, "trial_id": "mouselab_instructions_1", "trial_type": "instructions", "trial_index": 3, "time_elapsed": 142115, "internal_node_id": "0.0-2.0-1.0"}}, {"uniqueid": "w18436043:a88558309", "current_trial": 4, "dateTime": 1664873264641, "trialdata": {"revealed_states": [], "num_clicks_accrued": [0, 0, 0, 0, 0, 0, 0, 0, 0, 0, 0, 0, 0], "stateRewards": ["", 10, 10, 10, 10, -10, -10, 10, 10, 10, -10, 10, -10], "withholdReward": false, "trial_id": "practice_1", "block": "test", "trialIndex": 0, "score": -8.5, "costs": -0.5, "simulationMode": [null, null, null], "rewards": [10, -10, -10], "path": ["0", "0", "9", "10", "12"], "rt": [11311, 856, 2121], "actions": ["left", "left", "down"], "actionTimes": [17221, 18591, 21222], "queries": {"click": {"state": {"target": ["5", "9"], "time": [9633, 12123]}, "edge": {"target": [], "time": []}}, "mouseover": {"state": {"target": ["5", "9", "8"], "time": [9452, 11452, 15201]}, "edge": {"target": [], "time": []}}, "mouseout": {"state": {"target": ["7", "7", "5", "5", "5", "1", "5", "0", "5", "9", "8", "5"], "time": [703, 1571, 2936, 4002, 4169, 5019, 5586, 6286, 9852, 12288, 15235, 16935]}, "edge": {"target": [], "time": []}}}, "displayed_time": "21.73", "trialTime": 25253, "trial_type": "mouselab-mdp", "trial_index": 4, "time_elapsed": 167465, "internal_node_id": "0.0-2.0-2.0-0.0"}}, {"uniqueid": "w18436043:a88558309", "current_trial": 5, "dateTime": 1664873278428, "trialdata": {"revealed_states": [], "num_clicks_accrued": [0, 0, 0, 0, 0, 0, 0, 0, 0, 0, 0, 0, 0], "stateRewards": ["", -10, 10, -10, -10, -10, -10, -10, 10, 10, 10, -10, 10], "withholdReward": false, "trial_id": "practice_2", "block": "test", "trialIndex": 1, "score": 11.5, "costs": -0.5, "simulationMode": [null, null, null], "rewards": [10, 10, -10], "path": ["0", "0", "9", "10", "11"], "rt": [7647, 167, 451], "actions": ["left", "left", "up"], "actionTimes": [9700, 10375, 11326], "queries": {"click": {"state": {"target": ["9", "10"], "time": [2991, 7709]}, "edge": {"target": [], "time": []}}, "mouseover": {"state": {"target": ["9", "0", "1", "10"], "time": [2758, 4941, 5124, 6757]}, "edge": {"target": [], "time": []}}, "mouseout": {"state": {"target": ["0", "9", "0", "1", "10"], "time": [2425, 3158, 4958, 6607, 7858]}, "edge": {"target": [], "time": []}}}, "displayed_time": "11.82", "trialTime": 13749, "trial_type": "mouselab-mdp", "trial_index": 5, "time_elapsed": 181253, "internal_node_id": "0.0-2.0-2.0-1.0"}}, {"uniqueid": "w18436043:a88558309", "current_trial": 6, "dateTime": 1664873326350, "trialdata": {"view_history": [{"page_index": 0, "viewing_time": 31780}, {"page_index": 1, "viewing_time": 11844}, {"page_index": 2, "viewing_time": 4296}], "rt": 47920, "trial_id": "mouselab_instructions_2_scarce", "trial_type": "instructions", "trial_index": 6, "time_elapsed": 229175, "internal_node_id": "0.0-2.0-3.0"}}, {"uniqueid": "w18436043:a88558309", "current_trial": 7, "dateTime": 1664873359052, "trialdata": {"rt": 32699, "response": {"Q0": "$-48 to $48", "Q1": "The cost is always $0.25.", "Q2": "The better I perform the higher my bonus will be.", "Q3": "No, the amount of cash at each node of the web may be different each time.", "Q4": "The values of the nodes walked through from start to finish.", "Q5": "No, the spider might forget to count the money on some rounds."}, "question_order": [0, 1, 2, 3, 4, 5], "correct": {"Q0": "$-48 to $48", "Q1": "The cost is always $0.25.", "Q2": "The better I perform the higher my bonus will be.", "Q3": "No, the amount of cash at each node of the web may be different each time.", "Q4": "The values of the nodes walked through from start to finish.", "Q5": "No, the spider might forget to count the money on some rounds."}, "trial_id": "mouselab_quiz_scarce", "trial_type": "survey-multi-choice", "trial_index": 7, "time_elapsed": 261877, "internal_node_id": "0.0-2.0-4.0"}}, {"uniqueid": "w18436043:a88558309", "current_trial": 8, "dateTime": 1664873366029, "trialdata": {"rt": 6971, "stimulus": "\n<h1> Get ready to start the game! </h1>\n\nThank you for reading the instructions. Get ready start with the first of 4 block(s) of this game.\n<br><br>\nIn this first block, you will complete 30 rounds of this game before moving on.\n<br><br>\nRemember, the more money the spider gets, the bigger your bonus will be!\n<br><br>\n<div style='text-align: center;'>Press <code>space</code> to begin.</div>\n\n<br><br>\n(If, at any point, the <code>space</code> key does not take you to the next page, click once on the text and try again.)", "response": " ", "trial_id": "mdp_ready_1", "trial_type": "html-keyboard-response", "trial_index": 8, "time_elapsed": 268854, "internal_node_id": "0.0-4.0-0.0"}}, {"uniqueid": "w18436043:a88558309", "current_trial": 9, "dateTime": 1664873382780, "trialdata": {"revealed_states": [], "num_clicks_accrued": [0, 0, 0, 0, 0, 0, 0, 0, 0, 0, 0, 0, 0], "stateRewards": ["", 2, -8, -24, 48, -4, -8, 24, -48, 4, -8, -24, -24], "withholdReward": true, "trial_id": "mdp_928911266656", "block": "test1", "trialIndex": 2, "score": -26, "costs": -1, "simulationMode": [null, null, null], "rewards": [2, -8, -24], "path": ["0", "0", "1", "2", "3"], "rt": [10386, 227, 177], "actions": ["up", "up", "right"], "actionTimes": [12683, 13440, 14108], "queries": {"click": {"state": {"target": ["9", "10", "5", "6"], "time": [3182, 6571, 8419, 10313]}, "edge": {"target": [], "time": []}}, "mouseover": {"state": {"target": ["9", "12", "10", "5", "8", "6", "8"], "time": [2981, 6130, 6330, 8113, 9913, 10029, 10463]}, "edge": {"target": [], "time": []}}, "mouseout": {"state": {"target": ["0", "9", "12", "10", "5", "8", "6", "8"], "time": [2614, 3363, 6146, 6780, 8563, 9963, 10446, 10496]}, "edge": {"target": [], "time": []}}}, "displayed_time": "14.61", "trialTime": 16716, "trial_type": "mouselab-mdp", "trial_index": 9, "time_elapsed": 285605, "internal_node_id": "0.0-4.0-1.0-0.0"}}, {"uniqueid": "w18436043:a88558309", "current_trial": 10, "dateTime": 1664873399140, "trialdata": {"revealed_states": [], "num_clicks_accrued": [0, 0, 0, 0, 0, 0, 0, 0, 0, 0, 0, 0, 0], "stateRewards": ["", 2, 4, 48, 24, -4, 8, 48, 48, 2, -4, -48, -24], "withholdReward": true, "trial_id": "mdp_822099887466", "block": "test1", "trialIndex": 3, "score": 55.5, "costs": -1.5, "simulationMode": [null, null, null], "rewards": [-4, 8, 48], "path": ["0", "0", "5", "6", "7"], "rt": [11545, 77, 206], "actions": ["right", "right", "up"], "actionTimes": [12442, 13022, 13719], "queries": {"click": {"state": {"target": ["9", "1", "10", "5", "6", "7"], "time": [2152, 3444, 4818, 7012, 9048, 11701]}, "edge": {"target": [], "time": []}}, "mouseover": {"state": {"target": ["9", "0", "1", "0", "10", "5", "3", "6", "8", "8", "7"], "time": [1913, 3146, 3297, 3613, 4746, 6364, 8163, 8929, 9262, 9929, 11595]}, "edge": {"target": [], "time": []}}, "mouseout": {"state": {"target": ["0", "9", "0", "1", "0", "10", "5", "3", "6", "8", "8", "7", "6"], "time": [1047, 2347, 3179, 3596, 3630, 4979, 7163, 8596, 9229, 9729, 10246, 11862, 11912]}, "edge": {"target": [], "time": []}}}, "displayed_time": "14.23", "trialTime": 16327, "trial_type": "mouselab-mdp", "trial_index": 10, "time_elapsed": 301965, "internal_node_id": "0.0-4.0-1.0-1.0"}}, {"uniqueid": "w18436043:a88558309", "current_trial": 11, "dateTime": 1664873416892, "trialdata": {"revealed_states": [], "num_clicks_accrued": [0, 0, 0, 0, 0, 0, 0, 0, 0, 0, 0, 0, 0], "stateRewards": ["", -2, -4, -48, 48, -4, 4, -48, 24, -4, -8, 24, 48], "withholdReward": true, "trial_id": "mdp_264482284450", "block": "test1", "trialIndex": 4, "score": 27.25, "costs": -1.75, "simulationMode": [null, null, null], "rewards": [-4, 4, 24], "path": ["0", "0", "5", "6", "8"], "rt": [12624, 512, 265], "actions": ["right", "right", "down"], "actionTimes": [13869, 14892, 15645], "queries": {"click": {"state": {"target": ["1", "2", "10", "5", "6", "7", "8"], "time": [3060, 5243, 6634, 8268, 9188, 10850, 12276]}, "edge": {"target": [], "time": []}}, "mouseover": {"state": {"target": ["0", "1", "5", "2", "10", "5", "8", "6", "7", "8"], "time": [2665, 2930, 4964, 5047, 6513, 8164, 8946, 9063, 10748, 12163]}, "edge": {"target": [], "time": []}}, "mouseout": {"state": {"target": ["5", "0", "0", "1", "5", "1", "2", "1", "10", "5", "8", "6", "7", "8"], "time": [632, 1515, 2697, 3264, 4980, 5030, 5397, 5430, 6780, 8413, 8996, 9346, 10996, 12413]}, "edge": {"target": [], "time": []}}}, "displayed_time": "16.16", "trialTime": 17715, "trial_type": "mouselab-mdp", "trial_index": 11, "time_elapsed": 319716, "internal_node_id": "0.0-4.0-1.0-2.0"}}, {"uniqueid": "w18436043:a88558309", "current_trial": 12, "dateTime": 1664873436829, "trialdata": {"revealed_states": [], "num_clicks_accrued": [0, 0, 0, 0, 0, 0, 0, 0, 0, 0, 0, 0, 0], "stateRewards": ["", 4, -4, 48, -48, -4, -4, 48, -48, 4, 4, -48, -24], "withholdReward": true, "trial_id": "mdp_490058671112", "block": "test1", "trialIndex": 5, "score": 51.25, "costs": -1.75, "simulationMode": [null, null, null], "rewards": [4, -4, 48], "path": ["0", "0", "1", "2", "3"], "rt": [11919, 29, 247], "actions": ["up", "up", "right"], "actionTimes": [14404, 14965, 15716], "queries": {"click": {"state": {"target": ["1", "9", "2", "10", "11", "12", "3"], "time": [4069, 6978, 8570, 9757, 10824, 12168, 13648]}, "edge": {"target": [], "time": []}}, "mouseover": {"state": {"target": ["1", "0", "0", "9", "2", "0", "0", "10", "11", "12", "3", "6"], "time": [3904, 4370, 5320, 6720, 8336, 9019, 9153, 9619, 10703, 12053, 13536, 14036]}, "edge": {"target": [], "time": []}}, "mouseout": {"state": {"target": ["0", "1", "0", "0", "1", "1", "1", "9", "2", "1", "0", "0", "9", "10", "11", "10", "12", "3", "6"], "time": [2720, 4271, 4387, 5336, 5887, 6336, 6653, 7119, 8870, 8953, 9120, 9170, 9453, 9920, 10986, 11003, 12302, 13819, 14485]}, "edge": {"target": [], "time": []}}}, "displayed_time": "16.22", "trialTime": 19911, "trial_type": "mouselab-mdp", "trial_index": 12, "time_elapsed": 339654, "internal_node_id": "0.0-4.0-1.0-3.0"}}, {"uniqueid": "w18436043:a88558309", "current_trial": 13, "dateTime": 1664873454714, "trialdata": {"revealed_states": [], "num_clicks_accrued": [0, 0, 0, 0, 0, 0, 0, 0, 0, 0, 0, 0, 0], "stateRewards": ["", 2, -8, 24, 24, 2, 4, -48, -48, 4, 4, -24, 48], "withholdReward": false, "trial_id": "mdp_985707010949", "block": "test1", "trialIndex": 6, "score": 59.75, "costs": -1.25, "simulationMode": [null, null, null], "rewards": [4, 4, 48], "path": ["0", "0", "9", "10", "12"], "rt": [10097, 140, 172], "actions": ["left", "left", "down"], "actionTimes": [11381, 12038, 12719], "queries": {"click": {"state": {"target": ["1", "2", "10", "11", "12"], "time": [4337, 5734, 7990, 9016, 10142]}, "edge": {"target": [], "time": []}}, "mouseover": {"state": {"target": ["0", "1", "2", "5", "9", "10", "9", "11", "9", "12"], "time": [1432, 3383, 5648, 6098, 7649, 7832, 8714, 8914, 9231, 10031]}, "edge": {"target": [], "time": []}}, "mouseout": {"state": {"target": ["0", "0", "1", "1", "2", "1", "5", "9", "10", "9", "11", "9", "12"], "time": [1199, 1482, 4498, 5498, 5898, 5948, 6465, 7682, 8148, 8748, 9198, 9264, 10298]}, "edge": {"target": [], "time": []}}}, "displayed_time": "13.23", "trialTime": 17842, "trial_type": "mouselab-mdp", "trial_index": 13, "time_elapsed": 357539, "internal_node_id": "0.0-4.0-1.0-4.0"}}, {"uniqueid": "w18436043:a88558309", "current_trial": 14, "dateTime": 1664873467685, "trialdata": {"revealed_states": [], "num_clicks_accrued": [0, 0, 0, 0, 0, 0, 0, 0, 0, 0, 0, 0, 0], "stateRewards": ["", 2, -8, 48, -24, 2, 8, 24, -24, 4, -4, -48, -48], "withholdReward": false, "trial_id": "mdp_130946197263", "block": "test1", "trialIndex": 7, "score": 45.75, "costs": -1.25, "simulationMode": [null, null, null], "rewards": [2, -8, 48], "path": ["0", "0", "1", "2", "3"], "rt": [6630, 41, 85], "actions": ["up", "up", "right"], "actionTimes": [7936, 8491, 9102], "queries": {"click": {"state": {"target": ["12", "11", "4", "3", "1"], "time": [2141, 2947, 4021, 4936, 6515]}, "edge": {"target": [], "time": []}}, "mouseover": {"state": {"target": ["12", "11", "9", "0", "1", "4", "1", "1", "3", "6", "8", "8", "5", "1"], "time": [1934, 2816, 3150, 3650, 3716, 3933, 4233, 4501, 4667, 5467, 5583, 5933, 6133, 6333]}, "edge": {"target": [], "time": []}}, "mouseout": {"state": {"target": ["8", "0", "12", "11", "9", "0", "1", "4", "1", "1", "3", "6", "8", "8", "5", "1"], "time": [683, 1551, 2317, 3100, 3166, 3667, 3750, 4183, 4350, 4533, 5116, 5516, 5684, 6049, 6183, 6683]}, "edge": {"target": [], "time": []}}}, "displayed_time": "10.31", "trialTime": 12933, "trial_type": "mouselab-mdp", "trial_index": 14, "time_elapsed": 370510, "internal_node_id": "0.0-4.0-1.0-5.0"}}, {"uniqueid": "w18436043:a88558309", "current_trial": 15, "dateTime": 1664873483908, "trialdata": {"revealed_states": [], "num_clicks_accrued": [0, 0, 0, 0, 0, 0, 0, 0, 0, 0, 0, 0, 0], "stateRewards": ["", -4, -4, -24, 24, -4, 4, -24, 48, -2, 4, 48, -48], "withholdReward": false, "trial_id": "mdp_774757609669", "block": "test1", "trialIndex": 8, "score": 53.5, "costs": -1.5, "simulationMode": [null, null, null], "rewards": [-2, 4, 48], "path": ["0", "0", "9", "10", "11"], "rt": [11951, 44, 72], "actions": ["left", "left", "up"], "actionTimes": [12978, 13521, 14116], "queries": {"click": {"state": {"target": ["3", "4", "11", "8", "5", "10"], "time": [1799, 2948, 4468, 7839, 9200, 11185]}, "edge": {"target": [], "time": []}}, "mouseover": {"state": {"target": ["3", "1", "4", "9", "11", "10", "5", "6", "8", "5", "0", "9", "10"], "time": [1703, 2561, 2827, 4078, 4261, 4694, 6160, 6511, 7027, 8861, 10393, 10427, 10886]}, "edge": {"target": [], "time": []}}, "mouseout": {"state": {"target": ["0", "3", "1", "4", "9", "11", "10", "5", "6", "8", "5", "5", "0", "9", "10"], "time": [1295, 1961, 2611, 3144, 4194, 4661, 4711, 6327, 6527, 7994, 9344, 10377, 10410, 10493, 11343]}, "edge": {"target": [], "time": []}}}, "displayed_time": "14.63", "trialTime": 16186, "trial_type": "mouselab-mdp", "trial_index": 15, "time_elapsed": 386733, "internal_node_id": "0.0-4.0-1.0-6.0"}}, {"uniqueid": "w18436043:a88558309", "current_trial": 16, "dateTime": 1664873497227, "trialdata": {"revealed_states": [], "num_clicks_accrued": [0, 0, 0, 0, 0, 0, 0, 0, 0, 0, 0, 0, 0], "stateRewards": ["", 2, -8, -24, 48, 4, -8, -24, -24, 2, 8, -24, 24], "withholdReward": true, "trial_id": "mdp_480787552818", "block": "test1", "trialIndex": 9, "score": 46.25, "costs": -0.75, "simulationMode": [null, null, null], "rewards": [2, -8, 48], "path": ["0", "0", "1", "2", "4"], "rt": [6562, 633, 134], "actions": ["up", "up", "left"], "actionTimes": [7736, 8872, 9506], "queries": {"click": {"state": {"target": ["4", "2", "1"], "time": [2060, 3805, 5503]}, "edge": {"target": [], "time": []}}, "mouseover": {"state": {"target": ["0", "1", "4", "0", "5", "2", "1", "5", "5", "1", "5", "8"], "time": [1370, 1673, 1823, 2723, 3189, 3623, 4006, 4322, 5039, 5406, 5755, 6622]}, "edge": {"target": [], "time": []}}, "mouseout": {"state": {"target": ["8", "5", "0", "1", "4", "0", "5", "2", "1", "5", "5", "1", "5", "8"], "time": [689, 873, 1390, 1739, 2239, 2739, 3206, 3972, 4023, 4439, 5089, 5705, 6239, 6639]}, "edge": {"target": [], "time": []}}}, "displayed_time": "10.18", "trialTime": 13285, "trial_type": "mouselab-mdp", "trial_index": 16, "time_elapsed": 400052, "internal_node_id": "0.0-4.0-1.0-7.0"}}, {"uniqueid": "w18436043:a88558309", "current_trial": 17, "dateTime": 1664873509430, "trialdata": {"revealed_states": [], "num_clicks_accrued": [0, 0, 0, 0, 0, 0, 0, 0, 0, 0, 0, 0, 0], "stateRewards": ["", 4, -8, -24, 24, 2, -4, 24, 24, 2, -4, 48, 48], "withholdReward": true, "trial_id": "mdp_457607480918", "block": "test1", "trialIndex": 10, "score": 50.25, "costs": -0.75, "simulationMode": [null, null, null], "rewards": [2, -4, 48], "path": ["0", "0", "9", "10", "11"], "rt": [5048, 242, 527], "actions": ["left", "left", "up"], "actionTimes": [6068, 6827, 7862], "queries": {"click": {"state": {"target": ["11", "10", "9"], "time": [2175, 4078, 4912]}, "edge": {"target": [], "time": []}}, "mouseover": {"state": {"target": ["9", "11", "9", "10", "9"], "time": [1768, 2006, 3784, 3968, 4768]}, "edge": {"target": [], "time": []}}, "mouseout": {"state": {"target": ["5", "0", "9", "11", "9", "10", "9"], "time": [668, 1335, 1785, 2385, 3818, 4301, 5068]}, "edge": {"target": [], "time": []}}}, "displayed_time": "10.02", "trialTime": 12168, "trial_type": "mouselab-mdp", "trial_index": 17, "time_elapsed": 412255, "internal_node_id": "0.0-4.0-1.0-8.0"}}, {"uniqueid": "w18436043:a88558309", "current_trial": 18, "dateTime": 1664873522981, "trialdata": {"revealed_states": [], "num_clicks_accrued": [0, 0, 0, 0, 0, 0, 0, 0, 0, 0, 0, 0, 0], "stateRewards": ["", 4, -4, 48, 24, 2, -8, 24, -48, -2, -4, -48, -48], "withholdReward": true, "trial_id": "mdp_655302318695", "block": "test1", "trialIndex": 11, "score": 51.5, "costs": -1.5, "simulationMode": [null, null, null], "rewards": [4, -4, 48], "path": ["0", "0", "1", "2", "3"], "rt": [9125, 62, 98], "actions": ["up", "up", "right"], "actionTimes": [10146, 10742, 11360], "queries": {"click": {"state": {"target": ["4", "7", "8", "12", "11", "3"], "time": [2729, 4229, 5089, 6262, 7192, 8015]}, "edge": {"target": [], "time": []}}, "mouseover": {"state": {"target": ["0", "4", "9", "0", "5", "3", "7", "6", "8", "8", "9", "12", "9", "11", "9", "3", "5"], "time": [2229, 2563, 3046, 3329, 3529, 3896, 4046, 4412, 4446, 4946, 5746, 6046, 6829, 7062, 7395, 7878, 8596]}, "edge": {"target": [], "time": []}}, "mouseout": {"state": {"target": ["0", "0", "4", "9", "0", "5", "3", "7", "6", "8", "8", "9", "12", "9", "11", "9", "3", "5"], "time": [1263, 2246, 2946, 3079, 3346, 3579, 3946, 4396, 4429, 4479, 5246, 5762, 6429, 6862, 7363, 7646, 8179, 8912]}, "edge": {"target": [], "time": []}}}, "displayed_time": "11.85", "trialTime": 13515, "trial_type": "mouselab-mdp", "trial_index": 18, "time_elapsed": 425806, "internal_node_id": "0.0-4.0-1.0-9.0"}}, {"uniqueid": "w18436043:a88558309", "current_trial": 19, "dateTime": 1664873535586, "trialdata": {"revealed_states": [], "num_clicks_accrued": [0, 0, 0, 0, 0, 0, 0, 0, 0, 0, 0, 0, 0], "stateRewards": ["", 4, -4, 48, 24, 2, 4, 24, -24, 2, 4, 24, 48], "withholdReward": true, "trial_id": "mdp_736351885282", "block": "test1", "trialIndex": 12, "score": 52, "costs": -1, "simulationMode": [null, null, null], "rewards": [4, -4, 48], "path": ["0", "0", "1", "2", "3"], "rt": [7319, 322, 180], "actions": ["up", "up", "right"], "actionTimes": [8445, 9286, 9979], "queries": {"click": {"state": {"target": ["4", "3", "1", "2"], "time": [3044, 4378, 5633, 6790]}, "edge": {"target": [], "time": []}}, "mouseover": {"state": {"target": ["0", "4", "0", "5", "3", "5", "1", "2", "5"], "time": [2548, 2915, 3382, 3965, 4282, 5065, 5415, 6598, 7232]}, "edge": {"target": [], "time": []}}, "mouseout": {"state": {"target": ["0", "0", "4", "0", "5", "3", "5", "1", "2", "5"], "time": [1315, 2565, 3232, 3532, 3982, 4581, 5215, 5898, 7031, 7264]}, "edge": {"target": [], "time": []}}}, "displayed_time": "10.48", "trialTime": 12574, "trial_type": "mouselab-mdp", "trial_index": 19, "time_elapsed": 438411, "internal_node_id": "0.0-4.0-1.0-10.0"}}, {"uniqueid": "w18436043:a88558309", "current_trial": 20, "dateTime": 1664873548167, "trialdata": {"revealed_states": [], "num_clicks_accrued": [0, 0, 0, 0, 0, 0, 0, 0, 0, 0, 0, 0, 0], "stateRewards": ["", -2, 4, -48, -48, -4, -8, 48, -48, 2, 4, 48, -48], "withholdReward": false, "trial_id": "mdp_258647270500", "block": "test1", "trialIndex": 13, "score": 57.5, "costs": -1.5, "simulationMode": [null, null, null], "rewards": [2, 4, 48], "path": ["0", "0", "9", "10", "11"], "rt": [7154, 204, 171], "actions": ["left", "left", "up"], "actionTimes": [8461, 9155, 9856], "queries": {"click": {"state": {"target": ["4", "3", "12", "11", "10", "9"], "time": [2258, 3576, 4796, 5758, 6989, 7876]}, "edge": {"target": [], "time": []}}, "mouseover": {"state": {"target": ["9", "4", "9", "0", "1", "3", "5", "12", "11", "9", "10", "9"], "time": [1619, 2136, 2619, 3135, 3202, 3436, 3951, 4635, 5535, 6051, 6735, 7769]}, "edge": {"target": [], "time": []}}, "mouseout": {"state": {"target": ["8", "0", "0", "9", "4", "9", "0", "1", "3", "5", "12", "11", "9", "10", "9"], "time": [535, 918, 1602, 1635, 2485, 2635, 3152, 3235, 3768, 4068, 5001, 6002, 6219, 7201, 8084]}, "edge": {"target": [], "time": []}}}, "displayed_time": "10.37", "trialTime": 12543, "trial_type": "mouselab-mdp", "trial_index": 20, "time_elapsed": 450992, "internal_node_id": "0.0-4.0-1.0-11.0"}}, {"uniqueid": "w18436043:a88558309", "current_trial": 21, "dateTime": 1664873564744, "trialdata": {"revealed_states": [], "num_clicks_accrued": [0, 0, 0, 0, 0, 0, 0, 0, 0, 0, 0, 0, 0], "stateRewards": ["", -4, -4, -24, 48, 2, 4, -24, -48, -2, 4, 24, 24], "withholdReward": false, "trial_id": "mdp_360934723192", "block": "test1", "trialIndex": 14, "score": 43, "costs": -2, "simulationMode": [null, null, null], "rewards": [-4, -4, 48], "path": ["0", "0", "1", "2", "4"], "rt": [9599, 477, 137], "actions": ["up", "up", "left"], "actionTimes": [10642, 11650, 12293], "queries": {"click": {"state": {"target": ["11", "12", "7", "8", "3", "4", "2", "1"], "time": [2612, 3471, 4412, 5091, 6199, 6926, 8504, 9387]}, "edge": {"target": [], "time": []}}, "mouseover": {"state": {"target": ["0", "9", "11", "12", "5", "7", "6", "8", "6", "3", "4", "1", "1", "2", "1", "1"], "time": [1289, 1672, 2323, 3289, 4039, 4272, 4672, 4824, 5556, 5839, 6722, 7122, 7922, 8355, 8755, 9272]}, "edge": {"target": [], "time": []}}, "mouseout": {"state": {"target": ["0", "0", "9", "11", "12", "5", "7", "6", "8", "6", "7", "3", "4", "1", "1", "2", "1", "1", "7"], "time": [822, 1539, 1839, 2823, 3639, 4072, 4623, 4739, 5255, 5572, 5622, 6372, 7089, 7155, 8289, 8705, 8772, 9589, 10088]}, "edge": {"target": [], "time": []}}}, "displayed_time": "12.82", "trialTime": 16542, "trial_type": "mouselab-mdp", "trial_index": 21, "time_elapsed": 467569, "internal_node_id": "0.0-4.0-1.0-12.0"}}, {"uniqueid": "w18436043:a88558309", "current_trial": 22, "dateTime": 1664873575370, "trialdata": {"revealed_states": [], "num_clicks_accrued": [0, 0, 0, 0, 0, 0, 0, 0, 0, 0, 0, 0, 0], "stateRewards": ["", 4, -4, 48, -48, 2, 8, -48, 24, -2, -4, -24, 48], "withholdReward": false, "trial_id": "mdp_937564992306", "block": "test1", "trialIndex": 15, "score": 46, "costs": -1, "simulationMode": [null, null, null], "rewards": [-2, -4, 48], "path": ["0", "0", "9", "10", "12"], "rt": [4068, 88, 101], "actions": ["left", "left", "down"], "actionTimes": [5002, 5614, 6243], "queries": {"click": {"state": {"target": ["11", "12", "10", "9"], "time": [1796, 2379, 3375, 4135]}, "edge": {"target": [], "time": []}}, "mouseover": {"state": {"target": ["9", "11", "10", "12", "10", "9"], "time": [1259, 1576, 2059, 2175, 3275, 3825]}, "edge": {"target": [], "time": []}}, "mouseout": {"state": {"target": ["0", "9", "11", "10", "12", "10", "9"], "time": [675, 1275, 2008, 2109, 2559, 3575, 4425]}, "edge": {"target": [], "time": []}}}, "displayed_time": "8.94", "trialTime": 10589, "trial_type": "mouselab-mdp", "trial_index": 22, "time_elapsed": 478195, "internal_node_id": "0.0-4.0-1.0-13.0"}}, {"uniqueid": "w18436043:a88558309", "current_trial": 23, "dateTime": 1664873589396, "trialdata": {"revealed_states": [], "num_clicks_accrued": [0, 0, 0, 0, 0, 0, 0, 0, 0, 0, 0, 0, 0], "stateRewards": ["", 2, -4, 24, 24, 2, 4, 24, 24, -4, 8, 24, 48], "withholdReward": true, "trial_id": "mdp_268430387178", "block": "test1", "trialIndex": 16, "score": 55.25, "costs": -1.75, "simulationMode": [null, null, null], "rewards": [-4, 8, 48], "path": ["0", "0", "9", "10", "12"], "rt": [7137, 139, 139], "actions": ["left", "left", "down"], "actionTimes": [10058, 10717, 11367], "queries": {"click": {"state": {"target": ["4", "3", "8", "11", "12", "9", "10"], "time": [3783, 4883, 5892, 7041, 7779, 8925, 9488]}, "edge": {"target": [], "time": []}}, "mouseover": {"state": {"target": ["0", "1", "4", "0", "5", "3", "6", "8", "6", "1", "11", "9", "12", "9", "10"], "time": [3294, 3361, 3644, 4344, 4494, 4611, 5344, 5444, 6411, 6661, 6861, 7311, 7577, 8544, 9394]}, "edge": {"target": [], "time": []}}, "mouseout": {"state": {"target": ["8", "0", "0", "1", "4", "0", "5", "3", "6", "8", "8", "6", "1", "11", "9", "12", "9", "10", "8"], "time": [728, 3161, 3311, 3411, 4011, 4411, 4511, 5178, 5411, 6094, 6394, 6444, 6677, 7244, 7461, 7994, 9127, 9677, 11577]}, "edge": {"target": [], "time": []}}}, "displayed_time": "11.88", "trialTime": 13986, "trial_type": "mouselab-mdp", "trial_index": 23, "time_elapsed": 492221, "internal_node_id": "0.0-4.0-1.0-14.0"}}, {"uniqueid": "w18436043:a88558309", "current_trial": 24, "dateTime": 1664873600874, "trialdata": {"revealed_states": [], "num_clicks_accrued": [0, 0, 0, 0, 0, 0, 0, 0, 0, 0, 0, 0, 0], "stateRewards": ["", -4, -4, 24, -24, 4, 4, 24, 48, 4, -4, 48, -48], "withholdReward": true, "trial_id": "mdp_522385334882", "block": "test1", "trialIndex": 17, "score": 52, "costs": -1, "simulationMode": [null, null, null], "rewards": [4, -4, 48], "path": ["0", "0", "9", "10", "11"], "rt": [4623, 100, 168], "actions": ["left", "left", "up"], "actionTimes": [5784, 6405, 7089], "queries": {"click": {"state": {"target": ["12", "11", "10", "9"], "time": [2161, 3120, 4261, 5024]}, "edge": {"target": [], "time": []}}, "mouseover": {"state": {"target": ["0", "12", "9", "11", "9", "9", "10", "9"], "time": [1455, 1705, 2738, 2822, 3471, 3871, 4104, 4854]}, "edge": {"target": [], "time": []}}, "mouseout": {"state": {"target": ["6", "5", "0", "0", "12", "9", "11", "9", "9", "10", "9", "8"], "time": [571, 738, 1061, 1504, 2388, 2771, 3371, 3671, 3971, 4437, 5171, 6137]}, "edge": {"target": [], "time": []}}}, "displayed_time": "10.16", "trialTime": 11441, "trial_type": "mouselab-mdp", "trial_index": 24, "time_elapsed": 503698, "internal_node_id": "0.0-4.0-1.0-15.0"}}, {"uniqueid": "w18436043:a88558309", "current_trial": 25, "dateTime": 1664873612954, "trialdata": {"revealed_states": [], "num_clicks_accrued": [0, 0, 0, 0, 0, 0, 0, 0, 0, 0, 0, 0, 0], "stateRewards": ["", 2, 8, -24, -48, 2, 4, -24, 48, 2, -8, 48, -24], "withholdReward": true, "trial_id": "mdp_791659307216", "block": "test1", "trialIndex": 18, "score": 58, "costs": -1, "simulationMode": [null, null, null], "rewards": [2, 4, 48], "path": ["0", "0", "5", "6", "8"], "rt": [4684, 92, 149], "actions": ["right", "right", "down"], "actionTimes": [5865, 6489, 7145], "queries": {"click": {"state": {"target": ["3", "8", "6", "5"], "time": [2041, 3162, 4129, 5333]}, "edge": {"target": [], "time": []}}, "mouseover": {"state": {"target": ["3", "8", "8", "6", "5"], "time": [1846, 2562, 2996, 3963, 4846]}, "edge": {"target": [], "time": []}}, "mouseout": {"state": {"target": ["8", "0", "3", "8", "8", "8", "6", "8", "5", "8"], "time": [562, 1513, 2213, 2713, 3313, 3879, 4312, 4746, 5495, 5529]}, "edge": {"target": [], "time": []}}}, "displayed_time": "10.18", "trialTime": 12047, "trial_type": "mouselab-mdp", "trial_index": 25, "time_elapsed": 515778, "internal_node_id": "0.0-4.0-1.0-16.0"}}, {"uniqueid": "w18436043:a88558309", "current_trial": 26, "dateTime": 1664873624489, "trialdata": {"revealed_states": [], "num_clicks_accrued": [0, 0, 0, 0, 0, 0, 0, 0, 0, 0, 0, 0, 0], "stateRewards": ["", 2, 8, 48, 24, 2, 8, 48, 48, -2, -4, -24, -48], "withholdReward": true, "trial_id": "mdp_717636349175", "block": "test1", "trialIndex": 19, "score": 62.25, "costs": -0.75, "simulationMode": [null, null, null], "rewards": [2, 8, 48], "path": ["0", "0", "5", "6", "7"], "rt": [4131, 153, 175], "actions": ["right", "right", "up"], "actionTimes": [5376, 6050, 6739], "queries": {"click": {"state": {"target": ["7", "6", "5"], "time": [2233, 3288, 4726]}, "edge": {"target": [], "time": []}}, "mouseover": {"state": {"target": ["5", "7", "6", "6", "5"], "time": [1480, 1564, 2664, 3163, 3830]}, "edge": {"target": [], "time": []}}, "mouseout": {"state": {"target": ["6", "5", "0", "5", "7", "6", "6", "5"], "time": [697, 864, 1447, 1514, 2614, 2814, 3531, 4880]}, "edge": {"target": [], "time": []}}}, "displayed_time": "10.25", "trialTime": 11501, "trial_type": "mouselab-mdp", "trial_index": 26, "time_elapsed": 527313, "internal_node_id": "0.0-4.0-1.0-17.0"}}, {"uniqueid": "w18436043:a88558309", "current_trial": 27, "dateTime": 1664873643589, "trialdata": {"revealed_states": [], "num_clicks_accrued": [0, 0, 0, 0, 0, 0, 0, 0, 0, 0, 0, 0, 0], "stateRewards": ["", 2, 8, -24, -48, -4, 8, -48, -48, -2, -8, -24, -24], "withholdReward": true, "trial_id": "mdp_978177451072", "block": "test1", "trialIndex": 20, "score": -11.5, "costs": -2.5, "simulationMode": [null, null, null], "rewards": [2, 8, -24], "path": ["0", "0", "1", "2", "3"], "rt": [14035, 91, 100], "actions": ["up", "up", "right"], "actionTimes": [15422, 16027, 16637], "queries": {"click": {"state": {"target": ["4", "3", "8", "11", "12", "7", "1", "2", "10", "6"], "time": [2220, 3561, 4640, 5636, 6381, 7160, 9621, 10641, 12430, 13601]}, "edge": {"target": [], "time": []}}, "mouseover": {"state": {"target": ["1", "4", "5", "3", "5", "8", "0", "9", "11", "12", "5", "7", "6", "0", "1", "0", "0", "2", "0", "9", "10", "9", "5", "6"], "time": [1737, 1954, 3021, 3337, 3903, 4370, 5204, 5253, 5470, 6203, 6770, 7037, 7337, 8403, 9420, 9836, 10203, 10453, 11420, 11936, 12270, 13036, 13352, 13403]}, "edge": {"target": [], "time": []}}, "mouseout": {"state": {"target": ["5", "1", "4", "5", "3", "5", "8", "0", "9", "11", "12", "5", "7", "6", "8", "0", "1", "0", "0", "1", "2", "1", "0", "9", "10", "9", "5", "6", "8", "8"], "time": [820, 1754, 2437, 3054, 3754, 4037, 4871, 5237, 5270, 5820, 6570, 6870, 7320, 7370, 8304, 8437, 9803, 9853, 10220, 10286, 10803, 10871, 11770, 12003, 12620, 13086, 13386, 13769, 13853, 15352]}, "edge": {"target": [], "time": []}}}, "displayed_time": "17.15", "trialTime": 19060, "trial_type": "mouselab-mdp", "trial_index": 27, "time_elapsed": 546414, "internal_node_id": "0.0-4.0-1.0-18.0"}}, {"uniqueid": "w18436043:a88558309", "current_trial": 28, "dateTime": 1664873654472, "trialdata": {"revealed_states": [], "num_clicks_accrued": [0, 0, 0, 0, 0, 0, 0, 0, 0, 0, 0, 0, 0], "stateRewards": ["", -4, 8, 48, -48, 2, -4, 24, -24, -2, 4, -24, -24], "withholdReward": true, "trial_id": "mdp_804988042722", "block": "test1", "trialIndex": 21, "score": 56.25, "costs": -0.75, "simulationMode": [null, null, null], "rewards": [-4, 8, 48], "path": ["0", "0", "1", "2", "3"], "rt": [3772, 173, 146], "actions": ["up", "up", "right"], "actionTimes": [4967, 5642, 6298], "queries": {"click": {"state": {"target": ["4", "3", "2"], "time": [2083, 3127, 4346]}, "edge": {"target": [], "time": []}}, "mouseover": {"state": {"target": ["0", "1", "4", "3", "6", "5", "2", "1"], "time": [1569, 1635, 1935, 2985, 3368, 3785, 4202, 4618]}, "edge": {"target": [], "time": []}}, "mouseout": {"state": {"target": ["8", "0", "0", "1", "4", "3", "6", "5", "2", "1", "7"], "time": [668, 1335, 1585, 1702, 2285, 3285, 3502, 3918, 4535, 4668, 5185]}, "edge": {"target": [], "time": []}}}, "displayed_time": "9.20", "trialTime": 10843, "trial_type": "mouselab-mdp", "trial_index": 28, "time_elapsed": 557297, "internal_node_id": "0.0-4.0-1.0-19.0"}}, {"uniqueid": "w18436043:a88558309", "current_trial": 29, "dateTime": 1664873666005, "trialdata": {"revealed_states": [], "num_clicks_accrued": [0, 0, 0, 0, 0, 0, 0, 0, 0, 0, 0, 0, 0], "stateRewards": ["", 4, 8, 48, -48, -4, 8, -24, -24, -4, 8, 48, 48], "withholdReward": true, "trial_id": "mdp_377640328420", "block": "test1", "trialIndex": 22, "score": 64.25, "costs": -0.75, "simulationMode": [null, null, null], "rewards": [4, 8, 48], "path": ["0", "0", "1", "2", "3"], "rt": [3878, 104, 133], "actions": ["up", "up", "right"], "actionTimes": [5036, 5656, 6302], "queries": {"click": {"state": {"target": ["3", "1", "2"], "time": [2240, 3219, 3941]}, "edge": {"target": [], "time": []}}, "mouseover": {"state": {"target": ["1", "3", "1", "2", "6"], "time": [1552, 2057, 3018, 3685, 4285]}, "edge": {"target": [], "time": []}}, "mouseout": {"state": {"target": ["8", "0", "1", "3", "1", "2", "1", "6"], "time": [452, 1486, 1635, 2563, 3535, 4152, 4218, 4435]}, "edge": {"target": [], "time": []}}}, "displayed_time": "10.17", "trialTime": 11494, "trial_type": "mouselab-mdp", "trial_index": 29, "time_elapsed": 568830, "internal_node_id": "0.0-4.0-1.0-20.0"}}, {"uniqueid": "w18436043:a88558309", "current_trial": 30, "dateTime": 1664873677532, "trialdata": {"revealed_states": [], "num_clicks_accrued": [0, 0, 0, 0, 0, 0, 0, 0, 0, 0, 0, 0, 0], "stateRewards": ["", 4, 8, -24, 48, 4, -8, -48, 48, -4, 8, -24, -48], "withholdReward": true, "trial_id": "mdp_376126356841", "block": "test1", "trialIndex": 23, "score": 48, "costs": -1, "simulationMode": [null, null, null], "rewards": [4, -8, 48], "path": ["0", "0", "5", "6", "8"], "rt": [5071, 202, 239], "actions": ["right", "right", "down"], "actionTimes": [6116, 6809, 7562], "queries": {"click": {"state": {"target": ["3", "8", "6", "5"], "time": [2050, 3164, 4203, 5025]}, "edge": {"target": [], "time": []}}, "mouseover": {"state": {"target": ["5", "7", "3", "5", "8", "6", "5"], "time": [1323, 1406, 1790, 2523, 2891, 4023, 4772]}, "edge": {"target": [], "time": []}}, "mouseout": {"state": {"target": ["8", "5", "0", "5", "7", "3", "5", "8", "8", "6", "5", "8"], "time": [373, 589, 1290, 1340, 1473, 2306, 2590, 3523, 3807, 4723, 5440, 5739]}, "edge": {"target": [], "time": []}}}, "displayed_time": "10.05", "trialTime": 11493, "trial_type": "mouselab-mdp", "trial_index": 30, "time_elapsed": 580357, "internal_node_id": "0.0-4.0-1.0-21.0"}}, {"uniqueid": "w18436043:a88558309", "current_trial": 31, "dateTime": 1664873687741, "trialdata": {"revealed_states": [], "num_clicks_accrued": [0, 0, 0, 0, 0, 0, 0, 0, 0, 0, 0, 0, 0], "stateRewards": ["", -2, 8, -48, 48, 4, -8, -48, 48, 4, -4, -24, 48], "withholdReward": true, "trial_id": "mdp_144739116828", "block": "test1", "trialIndex": 24, "score": 58.25, "costs": -0.75, "simulationMode": [null, null, null], "rewards": [-2, 8, 48], "path": ["0", "0", "1", "2", "4"], "rt": [3268, 63, 82], "actions": ["up", "up", "left"], "actionTimes": [4237, 4832, 5417], "queries": {"click": {"state": {"target": ["4", "2", "1"], "time": [1748, 2886, 3687]}, "edge": {"target": [], "time": []}}, "mouseover": {"state": {"target": ["1", "4", "0", "1", "2", "1", "7"], "time": [1218, 1452, 2301, 2485, 2718, 3401, 4035]}, "edge": {"target": [], "time": []}}, "mouseout": {"state": {"target": ["7", "1", "4", "0", "1", "2", "1", "7"], "time": [485, 1235, 2135, 2418, 2535, 3235, 3968, 4185]}, "edge": {"target": [], "time": []}}}, "displayed_time": "8.97", "trialTime": 10165, "trial_type": "mouselab-mdp", "trial_index": 31, "time_elapsed": 590566, "internal_node_id": "0.0-4.0-1.0-22.0"}}, {"uniqueid": "w18436043:a88558309", "current_trial": 32, "dateTime": 1664873699688, "trialdata": {"revealed_states": [], "num_clicks_accrued": [0, 0, 0, 0, 0, 0, 0, 0, 0, 0, 0, 0, 0], "stateRewards": ["", -4, 8, -24, -48, 2, 8, -48, -24, -2, -4, 48, -48], "withholdReward": false, "trial_id": "mdp_599927291428", "block": "test1", "trialIndex": 25, "score": 46.25, "costs": -0.75, "simulationMode": [null, null, null], "rewards": [-2, -4, 48], "path": ["0", "0", "9", "10", "11"], "rt": [4729, 3, 125], "actions": ["left", "left", "up"], "actionTimes": [5864, 6383, 7021], "queries": {"click": {"state": {"target": ["11", "10", "9"], "time": [2364, 3478, 4096]}, "edge": {"target": [], "time": []}}, "mouseover": {"state": {"target": ["0", "9", "11", "9", "10", "9"], "time": [1295, 1562, 1962, 3079, 3330, 3946]}, "edge": {"target": [], "time": []}}, "mouseout": {"state": {"target": ["8", "0", "0", "9", "11", "9", "10", "9", "8"], "time": [663, 928, 1329, 1629, 2599, 3112, 3679, 4295, 7478]}, "edge": {"target": [], "time": []}}}, "displayed_time": "10.14", "trialTime": 11907, "trial_type": "mouselab-mdp", "trial_index": 32, "time_elapsed": 602513, "internal_node_id": "0.0-4.0-1.0-23.0"}}, {"uniqueid": "w18436043:a88558309", "current_trial": 33, "dateTime": 1664873710200, "trialdata": {"revealed_states": [], "num_clicks_accrued": [0, 0, 0, 0, 0, 0, 0, 0, 0, 0, 0, 0, 0], "stateRewards": ["", -2, -8, -24, -24, 4, -4, -48, 48, 2, 8, 48, -48], "withholdReward": true, "trial_id": "mdp_498095124548", "block": "test1", "trialIndex": 26, "score": 52, "costs": -1, "simulationMode": [null, null, null], "rewards": [4, -4, 48], "path": ["0", "0", "5", "6", "8"], "rt": [4245, 77, 128], "actions": ["right", "right", "down"], "actionTimes": [5584, 6190, 6823], "queries": {"click": {"state": {"target": ["3", "8", "6", "5"], "time": [2401, 3432, 4315, 5109]}, "edge": {"target": [], "time": []}}, "mouseover": {"state": {"target": ["3", "5", "8", "6", "5"], "time": [1879, 2896, 3179, 4112, 4912]}, "edge": {"target": [], "time": []}}, "mouseout": {"state": {"target": ["6", "5", "0", "3", "5", "8", "6", "5", "8"], "time": [912, 1062, 1613, 2679, 2979, 3712, 4829, 5329, 5612]}, "edge": {"target": [], "time": []}}}, "displayed_time": "9.34", "trialTime": 10470, "trial_type": "mouselab-mdp", "trial_index": 33, "time_elapsed": 613025, "internal_node_id": "0.0-4.0-1.0-24.0"}}, {"uniqueid": "w18436043:a88558309", "current_trial": 34, "dateTime": 1664873720949, "trialdata": {"revealed_states": [], "num_clicks_accrued": [0, 0, 0, 0, 0, 0, 0, 0, 0, 0, 0, 0, 0], "stateRewards": ["", 2, 4, 48, -48, 2, 4, 24, -24, 2, -4, -24, -48], "withholdReward": false, "trial_id": "mdp_706591889062", "block": "test1", "trialIndex": 27, "score": 57, "costs": -2, "simulationMode": [null, null, null], "rewards": [2, 4, 48], "path": ["0", "0", "1", "2", "3"], "rt": [6419, 81, 83], "actions": ["up", "up", "right"], "actionTimes": [7372, 7970, 8556], "queries": {"click": {"state": {"target": ["4", "12", "7", "8", "11", "3", "2", "1"], "time": [1537, 2240, 2977, 3672, 4431, 5063, 6120, 6926]}, "edge": {"target": [], "time": []}}, "mouseover": {"state": {"target": ["1", "4", "9", "12", "5", "7", "6", "8", "0", "9", "11", "9", "1", "3", "1", "2", "1"], "time": [1155, 1205, 1822, 2022, 2655, 2805, 3372, 3522, 4088, 4105, 4289, 4738, 4788, 4906, 5905, 6055, 6438]}, "edge": {"target": [], "time": []}}, "mouseout": {"state": {"target": ["7", "5", "0", "1", "4", "9", "12", "5", "7", "6", "8", "0", "9", "11", "9", "1", "3", "1", "2", "1", "7"], "time": [505, 655, 905, 1172, 1739, 1872, 2522, 2705, 3288, 3455, 4022, 4105, 4121, 4638, 4755, 4805, 5405, 5938, 6355, 7122, 7529]}, "edge": {"target": [], "time": []}}}, "displayed_time": "9.07", "trialTime": 10712, "trial_type": "mouselab-mdp", "trial_index": 34, "time_elapsed": 623773, "internal_node_id": "0.0-4.0-1.0-25.0"}}, {"uniqueid": "w18436043:a88558309", "current_trial": 35, "dateTime": 1664873731694, "trialdata": {"revealed_states": [], "num_clicks_accrued": [0, 0, 0, 0, 0, 0, 0, 0, 0, 0, 0, 0, 0], "stateRewards": ["", -4, -8, 24, -48, 2, 4, -48, -48, 2, -8, 24, 48], "withholdReward": true, "trial_id": "mdp_111262146724", "block": "test1", "trialIndex": 28, "score": 45.25, "costs": -1.75, "simulationMode": [null, null, null], "rewards": [2, -8, 48], "path": ["0", "0", "9", "10", "12"], "rt": [6107, 82, 71], "actions": ["left", "left", "down"], "actionTimes": [7362, 7956, 8528], "queries": {"click": {"state": {"target": ["3", "11", "8", "7", "12", "10", "9"], "time": [1968, 2728, 3451, 4328, 5190, 6169, 6870]}, "edge": {"target": [], "time": []}}, "mouseover": {"state": {"target": ["3", "1", "11", "9", "8", "6", "7", "6", "5", "0", "12", "10", "9"], "time": [1724, 2307, 2574, 3074, 3173, 3907, 4023, 4690, 4790, 4825, 5073, 6040, 6773]}, "edge": {"target": [], "time": []}}, "mouseout": {"state": {"target": ["0", "3", "1", "11", "9", "8", "8", "6", "7", "6", "5", "0", "12", "10", "9", "8"], "time": [1557, 2224, 2340, 2990, 3090, 3724, 3874, 3973, 4623, 4724, 4824, 4840, 5540, 6373, 7069, 9106]}, "edge": {"target": [], "time": []}}}, "displayed_time": "9.26", "trialTime": 10710, "trial_type": "mouselab-mdp", "trial_index": 35, "time_elapsed": 634519, "internal_node_id": "0.0-4.0-1.0-26.0"}}, {"uniqueid": "w18436043:a88558309", "current_trial": 36, "dateTime": 1664873742485, "trialdata": {"revealed_states": [], "num_clicks_accrued": [0, 0, 0, 0, 0, 0, 0, 0, 0, 0, 0, 0, 0], "stateRewards": ["", 4, 4, 48, -24, -4, -8, 24, -24, 2, -8, -24, 24], "withholdReward": true, "trial_id": "mdp_933201675789", "block": "test1", "trialIndex": 29, "score": 60.25, "costs": -0.75, "simulationMode": [null, null, null], "rewards": [4, 4, 48], "path": ["0", "0", "1", "2", "3"], "rt": [2537, 21, 63], "actions": ["up", "up", "right"], "actionTimes": [3659, 4213, 4788], "queries": {"click": {"state": {"target": ["3", "2", "1"], "time": [1774, 2700, 3299]}, "edge": {"target": [], "time": []}}, "mouseover": {"state": {"target": ["3", "1", "2", "1"], "time": [1608, 2491, 2624, 3058]}, "edge": {"target": [], "time": []}}, "mouseout": {"state": {"target": ["5", "0", "3", "1", "2", "1"], "time": [858, 1441, 2209, 2508, 2925, 3525]}, "edge": {"target": [], "time": []}}}, "displayed_time": "10.12", "trialTime": 10753, "trial_type": "mouselab-mdp", "trial_index": 36, "time_elapsed": 645309, "internal_node_id": "0.0-4.0-1.0-27.0"}}, {"uniqueid": "w18436043:a88558309", "current_trial": 37, "dateTime": 1664873752384, "trialdata": {"revealed_states": [], "num_clicks_accrued": [0, 0, 0, 0, 0, 0, 0, 0, 0, 0, 0, 0, 0], "stateRewards": ["", 2, 8, 24, -48, 4, 8, 24, 48, 2, -8, -24, 24], "withholdReward": true, "trial_id": "mdp_939899431582", "block": "test1", "trialIndex": 30, "score": 64, "costs": -1, "simulationMode": [null, null, null], "rewards": [4, 8, 48], "path": ["0", "0", "5", "6", "8"], "rt": [4146, 74, 194], "actions": ["right", "right", "down"], "actionTimes": [4942, 5539, 6242], "queries": {"click": {"state": {"target": ["3", "8", "6", "5"], "time": [1644, 2732, 3527, 4602]}, "edge": {"target": [], "time": []}}, "mouseover": {"state": {"target": ["3", "8", "6", "5"], "time": [1533, 2515, 3382, 4432]}, "edge": {"target": [], "time": []}}, "mouseout": {"state": {"target": ["5", "0", "3", "8", "6", "5"], "time": [565, 1115, 2148, 3309, 4265, 4798]}, "edge": {"target": [], "time": []}}}, "displayed_time": "8.80", "trialTime": 9860, "trial_type": "mouselab-mdp", "trial_index": 37, "time_elapsed": 655209, "internal_node_id": "0.0-4.0-1.0-28.0"}}, {"uniqueid": "w18436043:a88558309", "current_trial": 38, "dateTime": 1664873762771, "trialdata": {"revealed_states": [], "num_clicks_accrued": [0, 0, 0, 0, 0, 0, 0, 0, 0, 0, 0, 0, 0], "stateRewards": ["", 2, -4, 24, -24, 2, -8, 48, 48, 4, -4, 24, 48], "withholdReward": true, "trial_id": "mdp_947836623875", "block": "test1", "trialIndex": 31, "score": 46.25, "costs": -0.75, "simulationMode": [null, null, null], "rewards": [2, -8, 48], "path": ["0", "0", "5", "6", "8"], "rt": [2813, 120, 145], "actions": ["right", "right", "down"], "actionTimes": [4313, 4949, 5606], "queries": {"click": {"state": {"target": ["8", "6", "5"], "time": [2308, 3231, 3884]}, "edge": {"target": [], "time": []}}, "mouseover": {"state": {"target": ["8", "6", "5"], "time": [2095, 3094, 3761]}, "edge": {"target": [], "time": []}}, "mouseout": {"state": {"target": ["5", "0", "8", "6", "5", "8"], "time": [1044, 1694, 2794, 3538, 4061, 4444]}, "edge": {"target": [], "time": []}}}, "displayed_time": "9.50", "trialTime": 10345, "trial_type": "mouselab-mdp", "trial_index": 38, "time_elapsed": 665596, "internal_node_id": "0.0-4.0-1.0-29.0"}}, {"uniqueid": "w18436043:a88558309", "current_trial": 39, "dateTime": 1664873768926, "trialdata": {"rt": 6152, "stimulus": "<h1> End of block! </h1>\n\nYou have reached the end of the block 1/4. If you need a short break, feel free to take one now before moving on.\n\n<br><br>\nIn the next block, you will complete another 30 rounds of this game.\n\n<br><br>\n<div style='text-align: center;'>Press <code>space</code> to begin.</div>\n<br><br>\n<div style='text-align: center;'>(If the experiment doesn't continue, try clicking on the text and then pressing <code>space</code>.)</div>", "response": " ", "trial_id": "mdp_ready_2", "trial_type": "html-keyboard-response", "trial_index": 39, "time_elapsed": 671751, "internal_node_id": "0.0-4.0-2.0"}}, {"uniqueid": "w18436043:a88558309", "current_trial": 40, "dateTime": 1664873779561, "trialdata": {"revealed_states": [], "num_clicks_accrued": [0, 0, 0, 0, 0, 0, 0, 0, 0, 0, 0, 0, 0], "stateRewards": ["", 4, -4, 24, 48, 4, 8, -24, -24, -2, 4, 48, 48], "withholdReward": false, "trial_id": "mdp_624998450453", "block": "test2", "trialIndex": 32, "score": 52.25, "costs": -0.75, "simulationMode": [null, null, null], "rewards": [4, -4, 48], "path": ["0", "0", "1", "2", "4"], "rt": [3344, 472, 68], "actions": ["up", "up", "left"], "actionTimes": [4814, 5808, 6386], "queries": {"click": {"state": {"target": ["4", "2", "1"], "time": [2593, 3599, 4233]}, "edge": {"target": [], "time": []}}, "mouseover": {"state": {"target": ["4", "1", "2", "1"], "time": [2285, 3251, 3418, 4051]}, "edge": {"target": [], "time": []}}, "mouseout": {"state": {"target": ["0", "4", "1", "2", "1", "6"], "time": [2018, 2968, 3318, 3984, 4551, 5368]}, "edge": {"target": [], "time": []}}}, "displayed_time": "9.47", "trialTime": 10594, "trial_type": "mouselab-mdp", "trial_index": 40, "time_elapsed": 682386, "internal_node_id": "0.0-4.0-3.0-0.0"}}, {"uniqueid": "w18436043:a88558309", "current_trial": 41, "dateTime": 1664873789685, "trialdata": {"revealed_states": [], "num_clicks_accrued": [0, 0, 0, 0, 0, 0, 0, 0, 0, 0, 0, 0, 0], "stateRewards": ["", 2, -4, -24, 24, 2, 8, 48, 48, 2, -8, 48, -24], "withholdReward": true, "trial_id": "mdp_330392242530", "block": "test2", "trialIndex": 33, "score": 62.25, "costs": -0.75, "simulationMode": [null, null, null], "rewards": [2, 8, 48], "path": ["0", "0", "5", "6", "7"], "rt": [3058, 40, 71], "actions": ["right", "right", "up"], "actionTimes": [4093, 4660, 5241], "queries": {"click": {"state": {"target": ["7", "6", "5"], "time": [1728, 2647, 3388]}, "edge": {"target": [], "time": []}}, "mouseover": {"state": {"target": ["5", "7", "6", "6", "5"], "time": [1303, 1519, 2102, 2502, 3219]}, "edge": {"target": [], "time": []}}, "mouseout": {"state": {"target": ["0", "5", "7", "6", "6", "5"], "time": [1270, 1336, 2036, 2253, 3020, 3586]}, "edge": {"target": [], "time": []}}}, "displayed_time": "9.04", "trialTime": 10087, "trial_type": "mouselab-mdp", "trial_index": 41, "time_elapsed": 692510, "internal_node_id": "0.0-4.0-3.0-1.0"}}, {"uniqueid": "w18436043:a88558309", "current_trial": 42, "dateTime": 1664873799436, "trialdata": {"revealed_states": [], "num_clicks_accrued": [0, 0, 0, 0, 0, 0, 0, 0, 0, 0, 0, 0, 0], "stateRewards": ["", -2, 8, -48, -24, -2, 8, 48, -48, -4, 8, 24, 48], "withholdReward": true, "trial_id": "mdp_160707003673", "block": "test2", "trialIndex": 34, "score": 56.25, "costs": -0.75, "simulationMode": [null, null, null], "rewards": [-4, 8, 48], "path": ["0", "0", "9", "10", "12"], "rt": [3134, 187, 127], "actions": ["left", "left", "down"], "actionTimes": [3941, 4632, 5254], "queries": {"click": {"state": {"target": ["3", "12", "10"], "time": [1405, 2240, 3186]}, "edge": {"target": [], "time": []}}, "mouseover": {"state": {"target": ["3", "9", "12", "9", "10"], "time": [1245, 1861, 1944, 2978, 3077]}, "edge": {"target": [], "time": []}}, "mouseout": {"state": {"target": ["7", "0", "3", "9", "12", "9", "10"], "time": [461, 1011, 1694, 1894, 2494, 2994, 3411]}, "edge": {"target": [], "time": []}}}, "displayed_time": "8.81", "trialTime": 9714, "trial_type": "mouselab-mdp", "trial_index": 42, "time_elapsed": 702261, "internal_node_id": "0.0-4.0-3.0-2.0"}}, {"uniqueid": "w18436043:a88558309", "current_trial": 43, "dateTime": 1664873810369, "trialdata": {"revealed_states": [], "num_clicks_accrued": [0, 0, 0, 0, 0, 0, 0, 0, 0, 0, 0, 0, 0], "stateRewards": ["", 2, -8, -24, 48, -4, -8, 24, -48, 4, -8, -24, -24], "withholdReward": true, "trial_id": "mdp_928911266656", "block": "test2", "trialIndex": 35, "score": 46.25, "costs": -0.75, "simulationMode": [null, null, null], "rewards": [2, -8, 48], "path": ["0", "0", "1", "2", "4"], "rt": [3017, 96, 83], "actions": ["up", "up", "left"], "actionTimes": [4073, 4668, 5239], "queries": {"click": {"state": {"target": ["4", "2", "1"], "time": [2004, 2969, 3379]}, "edge": {"target": [], "time": []}}, "mouseover": {"state": {"target": ["4", "1", "2", "1", "5"], "time": [1805, 2638, 2788, 3255, 3939]}, "edge": {"target": [], "time": []}}, "mouseout": {"state": {"target": ["0", "4", "1", "2", "1", "5", "6"], "time": [1335, 2505, 2671, 3221, 3605, 4205, 4955]}, "edge": {"target": [], "time": []}}}, "displayed_time": "9.06", "trialTime": 10892, "trial_type": "mouselab-mdp", "trial_index": 43, "time_elapsed": 713194, "internal_node_id": "0.0-4.0-3.0-3.0"}}, {"uniqueid": "w18436043:a88558309", "current_trial": 44, "dateTime": 1664873823981, "trialdata": {"revealed_states": [], "num_clicks_accrued": [0, 0, 0, 0, 0, 0, 0, 0, 0, 0, 0, 0, 0], "stateRewards": ["", 2, -4, -24, -24, -2, -8, -48, 24, -4, -8, 24, 24], "withholdReward": true, "trial_id": "mdp_521351546461", "block": "test2", "trialIndex": 36, "score": 16.5, "costs": -2.5, "simulationMode": [null, null, null], "rewards": [-2, -8, 24], "path": ["0", "0", "5", "6", "8"], "rt": [8972, 522, 25], "actions": ["right", "right", "down"], "actionTimes": [10205, 11245, 11764], "queries": {"click": {"state": {"target": ["8", "11", "12", "7", "4", "3", "6", "10", "5", "9"], "time": [1817, 2984, 3783, 4539, 5336, 5976, 6930, 7816, 8742, 9497]}, "edge": {"target": [], "time": []}}, "mouseover": {"state": {"target": ["0", "5", "8", "6", "5", "11", "9", "12", "7", "4", "1", "3", "5", "6", "9", "10", "5", "9"], "time": [1406, 1439, 1539, 2473, 2556, 2789, 3256, 3622, 4389, 5105, 5605, 5855, 6372, 6805, 7555, 7672, 8588, 9422]}, "edge": {"target": [], "time": []}}, "mouseout": {"state": {"target": ["8", "5", "0", "0", "5", "8", "6", "5", "11", "9", "12", "7", "4", "1", "3", "5", "6", "8", "9", "10", "12", "5", "9", "0"], "time": [539, 906, 1006, 1423, 1456, 2023, 2539, 2573, 3190, 3306, 4006, 4773, 5522, 5639, 6172, 6389, 7055, 7105, 7605, 7955, 7972, 8922, 9705, 11955]}, "edge": {"target": [], "time": []}}}, "displayed_time": "12.29", "trialTime": 13573, "trial_type": "mouselab-mdp", "trial_index": 44, "time_elapsed": 726806, "internal_node_id": "0.0-4.0-3.0-4.0"}}, {"uniqueid": "w18436043:a88558309", "current_trial": 45, "dateTime": 1664873834099, "trialdata": {"revealed_states": [], "num_clicks_accrued": [0, 0, 0, 0, 0, 0, 0, 0, 0, 0, 0, 0, 0], "stateRewards": ["", -4, -4, 24, -24, 4, 4, 24, 48, 4, -4, 48, -48], "withholdReward": true, "trial_id": "mdp_522385334882", "block": "test2", "trialIndex": 37, "score": 51.75, "costs": -1.25, "simulationMode": [null, null, null], "rewards": [4, -4, 48], "path": ["0", "0", "9", "10", "11"], "rt": [5356, 32, 13], "actions": ["left", "left", "up"], "actionTimes": [6589, 7128, 7642], "queries": {"click": {"state": {"target": ["3", "12", "11", "10", "9"], "time": [1809, 3042, 3866, 4863, 6239]}, "edge": {"target": [], "time": []}}, "mouseover": {"state": {"target": ["3", "0", "12", "10", "11", "9", "9", "10", "9", "9"], "time": [1695, 2245, 2929, 3545, 3712, 4295, 4478, 4778, 5579, 6028]}, "edge": {"target": [], "time": []}}, "mouseout": {"state": {"target": ["6", "5", "3", "0", "12", "10", "11", "9", "9", "10", "9", "9", "8"], "time": [695, 879, 1996, 2279, 3395, 3595, 4205, 4345, 4662, 5078, 5661, 6428, 9945]}, "edge": {"target": [], "time": []}}}, "displayed_time": "9.23", "trialTime": 10082, "trial_type": "mouselab-mdp", "trial_index": 45, "time_elapsed": 736924, "internal_node_id": "0.0-4.0-3.0-5.0"}}, {"uniqueid": "w18436043:a88558309", "current_trial": 46, "dateTime": 1664873845037, "trialdata": {"revealed_states": [], "num_clicks_accrued": [0, 0, 0, 0, 0, 0, 0, 0, 0, 0, 0, 0, 0], "stateRewards": ["", 4, -4, 48, -48, -4, -4, 48, -48, 4, 4, -48, -24], "withholdReward": true, "trial_id": "mdp_490058671112", "block": "test2", "trialIndex": 38, "score": 43.75, "costs": -1.25, "simulationMode": [null, null, null], "rewards": [-4, -4, 48], "path": ["0", "0", "5", "6", "7"], "rt": [4823, 43, 26], "actions": ["right", "right", "up"], "actionTimes": [5930, 6485, 7018], "queries": {"click": {"state": {"target": ["4", "8", "7", "6", "5"], "time": [1845, 2617, 3317, 4477, 5236]}, "edge": {"target": [], "time": []}}, "mouseover": {"state": {"target": ["1", "4", "8", "8", "6", "7", "5", "5", "6", "5"], "time": [1424, 1559, 2224, 2389, 3091, 3158, 3591, 4041, 4374, 5141]}, "edge": {"target": [], "time": []}}, "mouseout": {"state": {"target": ["8", "0", "1", "4", "8", "8", "6", "7", "5", "5", "6", "8", "5"], "time": [325, 1374, 1441, 2108, 2274, 2808, 3107, 3524, 3607, 4207, 4724, 4924, 5391]}, "edge": {"target": [], "time": []}}}, "displayed_time": "10.11", "trialTime": 10899, "trial_type": "mouselab-mdp", "trial_index": 46, "time_elapsed": 747861, "internal_node_id": "0.0-4.0-3.0-6.0"}}, {"uniqueid": "w18436043:a88558309", "current_trial": 47, "dateTime": 1664873856127, "trialdata": {"revealed_states": [], "num_clicks_accrued": [0, 0, 0, 0, 0, 0, 0, 0, 0, 0, 0, 0, 0], "stateRewards": ["", 2, 4, -24, -24, 4, 8, -48, 48, 2, 4, -24, -48], "withholdReward": true, "trial_id": "mdp_565165082781", "block": "test2", "trialIndex": 39, "score": 63.75, "costs": -1.25, "simulationMode": [null, null, null], "rewards": [4, 8, 48], "path": ["0", "0", "5", "6", "8"], "rt": [4342, 28, 120], "actions": ["right", "right", "down"], "actionTimes": [5486, 6033, 6641], "queries": {"click": {"state": {"target": ["3", "12", "11", "8", "6"], "time": [1913, 2774, 3490, 4261, 5097]}, "edge": {"target": [], "time": []}}, "mouseover": {"state": {"target": ["3", "0", "12", "11", "9", "8", "6"], "time": [1617, 2272, 2638, 3339, 3821, 4188, 4988]}, "edge": {"target": [], "time": []}}, "mouseout": {"state": {"target": ["0", "3", "0", "12", "11", "9", "8", "6", "8"], "time": [955, 2194, 2288, 3071, 3788, 3855, 4888, 5388, 5638]}, "edge": {"target": [], "time": []}}}, "displayed_time": "10.15", "trialTime": 11055, "trial_type": "mouselab-mdp", "trial_index": 47, "time_elapsed": 758952, "internal_node_id": "0.0-4.0-3.0-7.0"}}, {"uniqueid": "w18436043:a88558309", "current_trial": 48, "dateTime": 1664873867010, "trialdata": {"revealed_states": [], "num_clicks_accrued": [0, 0, 0, 0, 0, 0, 0, 0, 0, 0, 0, 0, 0], "stateRewards": ["", -4, 8, -24, 48, 2, -8, 24, 48, 2, -8, -24, -48], "withholdReward": true, "trial_id": "mdp_493778446445", "block": "test2", "trialIndex": 40, "score": 56.25, "costs": -0.75, "simulationMode": [null, null, null], "rewards": [-4, 8, 48], "path": ["0", "0", "1", "2", "4"], "rt": [2735, 61, 35], "actions": ["up", "up", "left"], "actionTimes": [3734, 4321, 4877], "queries": {"click": {"state": {"target": ["4", "2", "1"], "time": [1782, 2844, 3438]}, "edge": {"target": [], "time": []}}, "mouseover": {"state": {"target": ["4", "1", "2", "1"], "time": [1609, 2192, 2709, 3259]}, "edge": {"target": [], "time": []}}, "mouseout": {"state": {"target": ["0", "4", "1", "2", "1", "5", "0"], "time": [1259, 2126, 2226, 3109, 3625, 4075, 9392]}, "edge": {"target": [], "time": []}}}, "displayed_time": "10.00", "trialTime": 10843, "trial_type": "mouselab-mdp", "trial_index": 48, "time_elapsed": 769835, "internal_node_id": "0.0-4.0-3.0-8.0"}}, {"uniqueid": "w18436043:a88558309", "current_trial": 49, "dateTime": 1664873877569, "trialdata": {"revealed_states": [], "num_clicks_accrued": [0, 0, 0, 0, 0, 0, 0, 0, 0, 0, 0, 0, 0], "stateRewards": ["", -4, -4, -24, -48, -4, 8, -24, -48, 4, -8, 24, -24], "withholdReward": true, "trial_id": "mdp_924927483179", "block": "test2", "trialIndex": 41, "score": 23, "costs": -2, "simulationMode": [null, null, null], "rewards": [4, -8, 24], "path": ["0", "0", "9", "10", "11"], "rt": [6010, 601, 31], "actions": ["left", "left", "up"], "actionTimes": [6949, 8045, 8592], "queries": {"click": {"state": {"target": ["7", "12", "11", "8", "3", "4", "10", "9"], "time": [1629, 2301, 3016, 3799, 4455, 5079, 5925, 6541]}, "edge": {"target": [], "time": []}}, "mouseover": {"state": {"target": ["5", "7", "12", "11", "9", "8", "8", "6", "3", "4", "9", "10", "9"], "time": [1195, 1395, 2061, 2928, 3378, 3461, 3694, 4127, 4328, 4927, 5594, 5827, 6461]}, "edge": {"target": [], "time": []}}, "mouseout": {"state": {"target": ["0", "5", "7", "12", "11", "9", "8", "8", "6", "3", "4", "9", "10", "9"], "time": [1161, 1244, 1961, 2661, 3328, 3394, 3477, 4111, 4144, 4794, 5277, 5727, 6110, 6711]}, "edge": {"target": [], "time": []}}}, "displayed_time": "9.08", "trialTime": 10522, "trial_type": "mouselab-mdp", "trial_index": 49, "time_elapsed": 780394, "internal_node_id": "0.0-4.0-3.0-9.0"}}, {"uniqueid": "w18436043:a88558309", "current_trial": 50, "dateTime": 1664873889154, "trialdata": {"revealed_states": [], "num_clicks_accrued": [0, 0, 0, 0, 0, 0, 0, 0, 0, 0, 0, 0, 0], "stateRewards": ["", -4, 4, -24, -24, -4, -8, 24, 48, 4, -4, 24, 48], "withholdReward": false, "trial_id": "mdp_175395325183", "block": "test2", "trialIndex": 42, "score": 40, "costs": -1, "simulationMode": [null, null, null], "rewards": [-4, -8, 48], "path": ["0", "0", "5", "6", "8"], "rt": [4003, 32, 75], "actions": ["right", "right", "down"], "actionTimes": [5114, 5680, 6272], "queries": {"click": {"state": {"target": ["4", "8", "6", "5"], "time": [1844, 2669, 3571, 4803]}, "edge": {"target": [], "time": []}}, "mouseover": {"state": {"target": ["4", "8", "6", "5", "0", "5"], "time": [1696, 2496, 3446, 4147, 4546, 4646]}, "edge": {"target": [], "time": []}}, "mouseout": {"state": {"target": ["0", "4", "8", "6", "5", "0", "5", "5"], "time": [880, 2133, 3297, 4063, 4213, 4563, 4963, 7796]}, "edge": {"target": [], "time": []}}}, "displayed_time": "10.11", "trialTime": 11543, "trial_type": "mouselab-mdp", "trial_index": 50, "time_elapsed": 791979, "internal_node_id": "0.0-4.0-3.0-10.0"}}, {"uniqueid": "w18436043:a88558309", "current_trial": 51, "dateTime": 1664873899613, "trialdata": {"revealed_states": [], "num_clicks_accrued": [0, 0, 0, 0, 0, 0, 0, 0, 0, 0, 0, 0, 0], "stateRewards": ["", -4, 8, -48, -48, -2, -8, -24, -48, 2, -4, -48, 24], "withholdReward": true, "trial_id": "mdp_743906784415", "block": "test2", "trialIndex": 43, "score": 25.5, "costs": -1.5, "simulationMode": [null, null, null], "rewards": [2, -4, 24], "path": ["0", "0", "9", "10", "12"], "rt": [6013, 6, 43], "actions": ["left", "left", "down"], "actionTimes": [6771, 7291, 7845], "queries": {"click": {"state": {"target": ["3", "12", "11", "8", "4", "7"], "time": [1242, 1887, 2632, 3316, 4155, 4776]}, "edge": {"target": [], "time": []}}, "mouseover": {"state": {"target": ["1", "3", "9", "12", "10", "11", "9", "8", "6", "4", "1", "7", "5", "0"], "time": [967, 1035, 1585, 1701, 2318, 2502, 2935, 3235, 3735, 4102, 4451, 4634, 5118, 5184]}, "edge": {"target": [], "time": []}}, "mouseout": {"state": {"target": ["6", "1", "3", "9", "12", "10", "11", "9", "8", "6", "4", "1", "7", "5", "0", "12"], "time": [335, 985, 1518, 1601, 2285, 2368, 2902, 2952, 3684, 3768, 4385, 4485, 4951, 5168, 5201, 6368]}, "edge": {"target": [], "time": []}}}, "displayed_time": "8.76", "trialTime": 10424, "trial_type": "mouselab-mdp", "trial_index": 51, "time_elapsed": 802438, "internal_node_id": "0.0-4.0-3.0-11.0"}}, {"uniqueid": "w18436043:a88558309", "current_trial": 52, "dateTime": 1664873909571, "trialdata": {"revealed_states": [], "num_clicks_accrued": [0, 0, 0, 0, 0, 0, 0, 0, 0, 0, 0, 0, 0], "stateRewards": ["", 2, 8, 48, -24, -4, 4, 48, 24, -2, 8, 24, 24], "withholdReward": true, "trial_id": "mdp_123436106791", "block": "test2", "trialIndex": 44, "score": 62, "costs": -1, "simulationMode": [null, null, null], "rewards": [2, 8, 48], "path": ["0", "0", "1", "2", "3"], "rt": [4087, 232, 31], "actions": ["up", "up", "right"], "actionTimes": [5020, 5785, 6349], "queries": {"click": {"state": {"target": ["4", "8", "3", "2"], "time": [1471, 2259, 3112, 4125]}, "edge": {"target": [], "time": []}}, "mouseover": {"state": {"target": ["4", "1", "5", "8", "6", "7", "3", "0", "1", "2", "1"], "time": [1268, 1802, 1868, 2168, 2685, 2768, 2968, 3484, 3734, 3951, 4401]}, "edge": {"target": [], "time": []}}, "mouseout": {"state": {"target": ["0", "4", "1", "5", "8", "6", "7", "3", "0", "1", "2", "1", "7"], "time": [1135, 1768, 1818, 1884, 2668, 2734, 2884, 3398, 3518, 3851, 4351, 4451, 5284]}, "edge": {"target": [], "time": []}}}, "displayed_time": "8.93", "trialTime": 9917, "trial_type": "mouselab-mdp", "trial_index": 52, "time_elapsed": 812396, "internal_node_id": "0.0-4.0-3.0-12.0"}}, {"uniqueid": "w18436043:a88558309", "current_trial": 53, "dateTime": 1664873921387, "trialdata": {"revealed_states": [], "num_clicks_accrued": [0, 0, 0, 0, 0, 0, 0, 0, 0, 0, 0, 0, 0], "stateRewards": ["", -2, -8, 48, 24, 2, 4, 24, -24, -2, -4, 48, -48], "withholdReward": true, "trial_id": "mdp_411152402386", "block": "test2", "trialIndex": 45, "score": 41.75, "costs": -1.25, "simulationMode": [null, null, null], "rewards": [-2, -8, 48], "path": ["0", "0", "1", "2", "3"], "rt": [4888, 432, 536], "actions": ["up", "up", "right"], "actionTimes": [5673, 6609, 7647], "queries": {"click": {"state": {"target": ["3", "2", "1", "12", "7"], "time": [1302, 2164, 2639, 3980, 5223]}, "edge": {"target": [], "time": []}}, "mouseover": {"state": {"target": ["3", "1", "2", "1", "5", "5", "12", "6", "7"], "time": [1128, 1911, 2011, 2477, 3194, 3532, 3944, 4993, 5110]}, "edge": {"target": [], "time": []}}, "mouseout": {"state": {"target": ["8", "8", "0", "3", "1", "2", "1", "5", "5", "12", "6", "7"], "time": [294, 377, 661, 1661, 1960, 2377, 2845, 3261, 3577, 4294, 5060, 5377]}, "edge": {"target": [], "time": []}}}, "displayed_time": "10.79", "trialTime": 11777, "trial_type": "mouselab-mdp", "trial_index": 53, "time_elapsed": 824212, "internal_node_id": "0.0-4.0-3.0-13.0"}}, {"uniqueid": "w18436043:a88558309", "current_trial": 54, "dateTime": 1664873932309, "trialdata": {"revealed_states": [], "num_clicks_accrued": [0, 0, 0, 0, 0, 0, 0, 0, 0, 0, 0, 0, 0], "stateRewards": ["", -4, 8, 24, -24, 4, -8, -24, -24, -2, 8, -48, 24], "withholdReward": true, "trial_id": "mdp_240302100183", "block": "test2", "trialIndex": 46, "score": 33.25, "costs": -1.75, "simulationMode": [null, null, null], "rewards": [-2, 8, 24], "path": ["0", "0", "9", "10", "12"], "rt": [6468, 498, 518], "actions": ["left", "left", "down"], "actionTimes": [7126, 8138, 9173], "queries": {"click": {"state": {"target": ["7", "12", "4", "8", "11", "3", "10"], "time": [1412, 2189, 3093, 3922, 4609, 5292, 6566]}, "edge": {"target": [], "time": []}}, "mouseover": {"state": {"target": ["6", "7", "12", "12", "9", "4", "1", "5", "8", "9", "11", "3", "5", "9", "10"], "time": [988, 1323, 1838, 2090, 2638, 2905, 3438, 3688, 3772, 4305, 4505, 5138, 5988, 6255, 6438]}, "edge": {"target": [], "time": []}}, "mouseout": {"state": {"target": ["0", "6", "7", "12", "12", "9", "4", "1", "5", "8", "9", "11", "3", "5", "9", "10"], "time": [872, 1022, 1572, 1889, 2422, 2688, 3338, 3622, 3722, 4155, 4372, 4788, 5439, 6055, 6388, 6738]}, "edge": {"target": [], "time": []}}}, "displayed_time": "9.71", "trialTime": 10878, "trial_type": "mouselab-mdp", "trial_index": 54, "time_elapsed": 835134, "internal_node_id": "0.0-4.0-3.0-14.0"}}, {"uniqueid": "w18436043:a88558309", "current_trial": 55, "dateTime": 1664873942680, "trialdata": {"revealed_states": [], "num_clicks_accrued": [0, 0, 0, 0, 0, 0, 0, 0, 0, 0, 0, 0, 0], "stateRewards": ["", -4, 4, -24, 24, 2, 4, -24, 48, -4, 8, -48, 48], "withholdReward": true, "trial_id": "mdp_422109108860", "block": "test2", "trialIndex": 47, "score": 56.25, "costs": -0.75, "simulationMode": [null, null, null], "rewards": [-4, 8, 48], "path": ["0", "0", "9", "10", "12"], "rt": [2807, 461, 20], "actions": ["left", "left", "down"], "actionTimes": [3659, 4637, 5160], "queries": {"click": {"state": {"target": ["3", "12", "10"], "time": [1663, 2368, 3268]}, "edge": {"target": [], "time": []}}, "mouseover": {"state": {"target": ["3", "12", "9", "10"], "time": [1575, 2258, 3058, 3190]}, "edge": {"target": [], "time": []}}, "mouseout": {"state": {"target": ["0", "3", "12", "9", "10"], "time": [1226, 1875, 2591, 3124, 3440]}, "edge": {"target": [], "time": []}}}, "displayed_time": "9.85", "trialTime": 10335, "trial_type": "mouselab-mdp", "trial_index": 55, "time_elapsed": 845505, "internal_node_id": "0.0-4.0-3.0-15.0"}}, {"uniqueid": "w18436043:a88558309", "current_trial": 56, "dateTime": 1664873952583, "trialdata": {"revealed_states": [], "num_clicks_accrued": [0, 0, 0, 0, 0, 0, 0, 0, 0, 0, 0, 0, 0], "stateRewards": ["", -2, 8, 48, -48, 4, -8, 24, 24, 4, 4, -48, -24], "withholdReward": false, "trial_id": "mdp_746937869927", "block": "test2", "trialIndex": 48, "score": 58.5, "costs": -0.5, "simulationMode": [null, null, null], "rewards": [-2, 8, 48], "path": ["0", "0", "1", "2", "3"], "rt": [2181, 60, 62], "actions": ["up", "up", "right"], "actionTimes": [2964, 3555, 4123], "queries": {"click": {"state": {"target": ["3", "2"], "time": [1469, 2547]}, "edge": {"target": [], "time": []}}, "mouseover": {"state": {"target": ["3", "1", "2", "1", "5"], "time": [1327, 2227, 2477, 2793, 2960]}, "edge": {"target": [], "time": []}}, "mouseout": {"state": {"target": ["8", "5", "0", "3", "1", "2", "1", "5"], "time": [393, 560, 610, 1844, 2327, 2727, 2843, 3310]}, "edge": {"target": [], "time": []}}}, "displayed_time": "8.78", "trialTime": 9859, "trial_type": "mouselab-mdp", "trial_index": 56, "time_elapsed": 855408, "internal_node_id": "0.0-4.0-3.0-16.0"}}, {"uniqueid": "w18436043:a88558309", "current_trial": 57, "dateTime": 1664873963017, "trialdata": {"revealed_states": [], "num_clicks_accrued": [0, 0, 0, 0, 0, 0, 0, 0, 0, 0, 0, 0, 0], "stateRewards": ["", -2, 8, 24, -48, -2, -4, 24, 48, 2, 8, -48, -48], "withholdReward": true, "trial_id": "mdp_562228697607", "block": "test2", "trialIndex": 49, "score": 46, "costs": -1, "simulationMode": [null, null, null], "rewards": [-2, -4, 48], "path": ["0", "0", "5", "6", "8"], "rt": [3874, 498, 47], "actions": ["right", "right", "down"], "actionTimes": [4605, 5638, 6202], "queries": {"click": {"state": {"target": ["4", "8", "6", "5"], "time": [1542, 2312, 3091, 4254]}, "edge": {"target": [], "time": []}}, "mouseover": {"state": {"target": ["1", "2", "4", "0", "8", "6", "12", "5"], "time": [955, 1072, 1372, 1855, 2189, 2972, 3788, 4088]}, "edge": {"target": [], "time": []}}, "mouseout": {"state": {"target": ["0", "1", "2", "4", "0", "8", "8", "6", "8", "12", "5"], "time": [638, 1022, 1155, 1722, 1872, 2672, 2922, 3321, 3688, 3938, 4405]}, "edge": {"target": [], "time": []}}}, "displayed_time": "9.73", "trialTime": 10389, "trial_type": "mouselab-mdp", "trial_index": 57, "time_elapsed": 865841, "internal_node_id": "0.0-4.0-3.0-17.0"}}, {"uniqueid": "w18436043:a88558309", "current_trial": 58, "dateTime": 1664873974820, "trialdata": {"revealed_states": [], "num_clicks_accrued": [0, 0, 0, 0, 0, 0, 0, 0, 0, 0, 0, 0, 0], "stateRewards": ["", 2, 4, 48, -24, 2, -8, -24, -24, 2, -8, -24, -48], "withholdReward": false, "trial_id": "mdp_274832552938", "block": "test2", "trialIndex": 50, "score": 58.5, "costs": -0.5, "simulationMode": [null, null, null], "rewards": [2, 4, 48], "path": ["0", "0", "1", "2", "3"], "rt": [1757, 423, 637], "actions": ["up", "up", "right"], "actionTimes": [2565, 3511, 4657], "queries": {"click": {"state": {"target": ["3", "2"], "time": [1416, 2218]}, "edge": {"target": [], "time": []}}, "mouseover": {"state": {"target": ["3", "1", "2", "1"], "time": [1287, 2037, 2153, 2403]}, "edge": {"target": [], "time": []}}, "mouseout": {"state": {"target": ["0", "3", "1", "2", "1"], "time": [1028, 1620, 2053, 2353, 2470]}, "edge": {"target": [], "time": []}}}, "displayed_time": "10.81", "trialTime": 11759, "trial_type": "mouselab-mdp", "trial_index": 58, "time_elapsed": 877645, "internal_node_id": "0.0-4.0-3.0-18.0"}}, {"uniqueid": "w18436043:a88558309", "current_trial": 59, "dateTime": 1664873984887, "trialdata": {"revealed_states": [], "num_clicks_accrued": [0, 0, 0, 0, 0, 0, 0, 0, 0, 0, 0, 0, 0], "stateRewards": ["", -2, 4, -24, 48, 4, -8, 48, -48, 2, -8, 48, 24], "withholdReward": true, "trial_id": "mdp_501111216502", "block": "test2", "trialIndex": 51, "score": 54.25, "costs": -0.75, "simulationMode": [null, null, null], "rewards": [-2, 4, 48], "path": ["0", "0", "1", "2", "4"], "rt": [2179, 65, 17], "actions": ["up", "up", "left"], "actionTimes": [2896, 3479, 4013], "queries": {"click": {"state": {"target": ["4", "2", "1"], "time": [1244, 2063, 2579]}, "edge": {"target": [], "time": []}}, "mouseover": {"state": {"target": ["1", "4", "1", "1", "2", "1"], "time": [946, 1129, 1663, 1796, 1946, 2313]}, "edge": {"target": [], "time": []}}, "mouseout": {"state": {"target": ["1", "0", "1", "4", "1", "1", "2", "1", "0"], "time": [329, 913, 963, 1580, 1679, 1864, 2280, 2763, 3563]}, "edge": {"target": [], "time": []}}}, "displayed_time": "8.72", "trialTime": 10019, "trial_type": "mouselab-mdp", "trial_index": 59, "time_elapsed": 887711, "internal_node_id": "0.0-4.0-3.0-19.0"}}, {"uniqueid": "w18436043:a88558309", "current_trial": 60, "dateTime": 1664873996703, "trialdata": {"revealed_states": [], "num_clicks_accrued": [0, 0, 0, 0, 0, 0, 0, 0, 0, 0, 0, 0, 0], "stateRewards": ["", -4, 8, 24, -24, 4, 8, -24, -48, 2, 4, 24, -24], "withholdReward": false, "trial_id": "mdp_782187007008", "block": "test2", "trialIndex": 52, "score": 33.25, "costs": -1.75, "simulationMode": [null, null, null], "rewards": [2, 4, 24], "path": ["0", "0", "9", "10", "11"], "rt": [6865, 436, 68], "actions": ["left", "left", "up"], "actionTimes": [8323, 9263, 9843], "queries": {"click": {"state": {"target": ["3", "12", "11", "7", "8", "4", "10"], "time": [2457, 3278, 3902, 4600, 5164, 5861, 7605]}, "edge": {"target": [], "time": []}}, "mouseover": {"state": {"target": ["3", "9", "10", "12", "10", "11", "9", "5", "6", "7", "6", "8", "2", "4", "1", "10"], "time": [2343, 2910, 2959, 3126, 3676, 3859, 4276, 4326, 4359, 4509, 4926, 4993, 5709, 5776, 6876, 7442]}, "edge": {"target": [], "time": []}}, "mouseout": {"state": {"target": ["3", "9", "10", "12", "12", "10", "11", "9", "5", "6", "7", "6", "8", "2", "4", "1", "10"], "time": [2710, 2926, 3009, 3510, 3643, 3776, 4059, 4293, 4343, 4409, 4759, 4960, 5460, 5726, 6009, 7026, 7742]}, "edge": {"target": [], "time": []}}}, "displayed_time": "10.46", "trialTime": 11767, "trial_type": "mouselab-mdp", "trial_index": 60, "time_elapsed": 899528, "internal_node_id": "0.0-4.0-3.0-20.0"}}, {"uniqueid": "w18436043:a88558309", "current_trial": 61, "dateTime": 1664874008936, "trialdata": {"revealed_states": [], "num_clicks_accrued": [0, 0, 0, 0, 0, 0, 0, 0, 0, 0, 0, 0, 0], "stateRewards": ["", -2, 8, 48, 48, 4, -8, -48, 48, 2, -4, -48, 48], "withholdReward": true, "trial_id": "mdp_132958048709", "block": "test2", "trialIndex": 53, "score": 58.5, "costs": -0.5, "simulationMode": [null, null, null], "rewards": [-2, 8, 48], "path": ["0", "0", "1", "2", "3"], "rt": [1830, 39, 132], "actions": ["up", "up", "right"], "actionTimes": [4867, 5435, 6095], "queries": {"click": {"state": {"target": ["3", "2"], "time": [3682, 4519]}, "edge": {"target": [], "time": []}}, "mouseover": {"state": {"target": ["3", "1", "2", "5"], "time": [3578, 4294, 4428, 4811]}, "edge": {"target": [], "time": []}}, "mouseout": {"state": {"target": ["8", "0", "3", "1", "2", "5"], "time": [2094, 3271, 3911, 4361, 4678, 4844]}, "edge": {"target": [], "time": []}}}, "displayed_time": "11.04", "trialTime": 12185, "trial_type": "mouselab-mdp", "trial_index": 61, "time_elapsed": 911761, "internal_node_id": "0.0-4.0-3.0-21.0"}}, {"uniqueid": "w18436043:a88558309", "current_trial": 62, "dateTime": 1664874019772, "trialdata": {"revealed_states": [], "num_clicks_accrued": [0, 0, 0, 0, 0, 0, 0, 0, 0, 0, 0, 0, 0], "stateRewards": ["", -4, 8, 24, -24, -2, 4, -24, 48, -2, 8, -48, -24], "withholdReward": false, "trial_id": "mdp_799359103169", "block": "test2", "trialIndex": 54, "score": 54.25, "costs": -0.75, "simulationMode": [null, null, null], "rewards": [-2, 4, 48], "path": ["0", "0", "5", "6", "8"], "rt": [2588, 24, 90], "actions": ["right", "right", "down"], "actionTimes": [3401, 3953, 4568], "queries": {"click": {"state": {"target": ["4", "8", "6"], "time": [1433, 2331, 3059]}, "edge": {"target": [], "time": []}}, "mouseover": {"state": {"target": ["1", "4", "0", "5", "8", "6"], "time": [1077, 1327, 1693, 1977, 2177, 2927]}, "edge": {"target": [], "time": []}}, "mouseout": {"state": {"target": ["0", "1", "4", "0", "5", "8", "8", "6"], "time": [1027, 1094, 1610, 1794, 2027, 2660, 2860, 3243]}, "edge": {"target": [], "time": []}}}, "displayed_time": "9.81", "trialTime": 10788, "trial_type": "mouselab-mdp", "trial_index": 62, "time_elapsed": 922596, "internal_node_id": "0.0-4.0-3.0-22.0"}}, {"uniqueid": "w18436043:a88558309", "current_trial": 63, "dateTime": 1664874030332, "trialdata": {"revealed_states": [], "num_clicks_accrued": [0, 0, 0, 0, 0, 0, 0, 0, 0, 0, 0, 0, 0], "stateRewards": ["", 2, -8, 24, 24, 2, 4, -48, -48, 4, 4, -24, 48], "withholdReward": true, "trial_id": "mdp_985707010949", "block": "test2", "trialIndex": 55, "score": 60.25, "costs": -0.75, "simulationMode": [null, null, null], "rewards": [4, 4, 48], "path": ["0", "0", "9", "10", "12"], "rt": [3594, 383, 246], "actions": ["left", "left", "down"], "actionTimes": [4244, 5144, 5904], "queries": {"click": {"state": {"target": ["3", "12", "10"], "time": [1654, 2392, 3310]}, "edge": {"target": [], "time": []}}, "mouseover": {"state": {"target": ["3", "9", "10", "12", "10"], "time": [1491, 2041, 2091, 2257, 3241]}, "edge": {"target": [], "time": []}}, "mouseout": {"state": {"target": ["5", "0", "3", "9", "10", "12", "10"], "time": [374, 808, 1891, 2057, 2107, 2891, 3491]}, "edge": {"target": [], "time": []}}}, "displayed_time": "9.65", "trialTime": 10513, "trial_type": "mouselab-mdp", "trial_index": 63, "time_elapsed": 933157, "internal_node_id": "0.0-4.0-3.0-23.0"}}, {"uniqueid": "w18436043:a88558309", "current_trial": 64, "dateTime": 1664874040791, "trialdata": {"revealed_states": [], "num_clicks_accrued": [0, 0, 0, 0, 0, 0, 0, 0, 0, 0, 0, 0, 0], "stateRewards": ["", 2, 8, -48, -24, 4, 4, 24, 48, 4, -4, -48, 48], "withholdReward": true, "trial_id": "mdp_665096999232", "block": "test2", "trialIndex": 56, "score": 60.25, "costs": -0.75, "simulationMode": [null, null, null], "rewards": [4, 4, 48], "path": ["0", "0", "5", "6", "8"], "rt": [2842, 77, 11], "actions": ["right", "right", "down"], "actionTimes": [3442, 4019, 4537], "queries": {"click": {"state": {"target": ["8", "6", "5"], "time": [1687, 2616, 3136]}, "edge": {"target": [], "time": []}}, "mouseover": {"state": {"target": ["8", "6", "5"], "time": [1559, 2443, 3009]}, "edge": {"target": [], "time": []}}, "mouseout": {"state": {"target": ["6", "0", "8", "6", "5", "8", "8"], "time": [192, 776, 1926, 2909, 3309, 3459, 10158]}, "edge": {"target": [], "time": []}}}, "displayed_time": "9.60", "trialTime": 10409, "trial_type": "mouselab-mdp", "trial_index": 64, "time_elapsed": 943616, "internal_node_id": "0.0-4.0-3.0-24.0"}}, {"uniqueid": "w18436043:a88558309", "current_trial": 65, "dateTime": 1664874051139, "trialdata": {"revealed_states": [], "num_clicks_accrued": [0, 0, 0, 0, 0, 0, 0, 0, 0, 0, 0, 0, 0], "stateRewards": ["", -4, -8, 48, -48, 2, -4, 48, -24, 2, -8, -48, -48], "withholdReward": true, "trial_id": "mdp_624553692913", "block": "test2", "trialIndex": 57, "score": 39.75, "costs": -1.25, "simulationMode": [null, null, null], "rewards": [-4, -8, 48], "path": ["0", "0", "1", "2", "3"], "rt": [3974, 49, 26], "actions": ["up", "up", "right"], "actionTimes": [4641, 5207, 5749], "queries": {"click": {"state": {"target": ["3", "2", "1", "11", "8"], "time": [1485, 2326, 2631, 3670, 4217]}, "edge": {"target": [], "time": []}}, "mouseover": {"state": {"target": ["3", "1", "2", "1", "5", "9", "11", "9", "8"], "time": [1173, 2040, 2139, 2540, 2956, 3339, 3472, 3889, 4006]}, "edge": {"target": [], "time": []}}, "mouseout": {"state": {"target": ["0", "3", "1", "2", "1", "5", "9", "11", "9", "8", "6"], "time": [856, 1790, 2089, 2506, 2889, 3139, 3373, 3856, 3906, 4389, 9655]}, "edge": {"target": [], "time": []}}}, "displayed_time": "9.67", "trialTime": 10305, "trial_type": "mouselab-mdp", "trial_index": 65, "time_elapsed": 953964, "internal_node_id": "0.0-4.0-3.0-25.0"}}, {"uniqueid": "w18436043:a88558309", "current_trial": 66, "dateTime": 1664874067251, "trialdata": {"revealed_states": [], "num_clicks_accrued": [0, 0, 0, 0, 0, 0, 0, 0, 0, 0, 0, 0, 0], "stateRewards": ["", 2, 4, -48, 48, -4, 8, -48, -24, -4, -4, 48, 48], "withholdReward": false, "trial_id": "mdp_613582696541", "block": "test2", "trialIndex": 58, "score": 44, "costs": -1, "simulationMode": [null, null, null], "rewards": [-4, -4, 48], "path": ["0", "0", "9", "10", "12"], "rt": [3643, 496, 35], "actions": ["left", "left", "down"], "actionTimes": [4354, 5359, 5912], "queries": {"click": {"state": {"target": ["3", "12", "10", "9"], "time": [1237, 2355, 3262, 3701]}, "edge": {"target": [], "time": []}}, "mouseover": {"state": {"target": ["3", "1", "12", "9", "10", "9"], "time": [1110, 1660, 2244, 3010, 3176, 3560]}, "edge": {"target": [], "time": []}}, "mouseout": {"state": {"target": ["0", "3", "1", "12", "9", "10", "9", "8", "8"], "time": [660, 1527, 1760, 2560, 3077, 3410, 3893, 4643, 10159]}, "edge": {"target": [], "time": []}}}, "displayed_time": "9.71", "trialTime": 16072, "trial_type": "mouselab-mdp", "trial_index": 66, "time_elapsed": 970076, "internal_node_id": "0.0-4.0-3.0-26.0"}}, {"uniqueid": "w18436043:a88558309", "current_trial": 67, "dateTime": 1664874078882, "trialdata": {"revealed_states": [], "num_clicks_accrued": [0, 0, 0, 0, 0, 0, 0, 0, 0, 0, 0, 0, 0], "stateRewards": ["", -2, -4, -48, -48, 4, -4, 48, 24, 4, 4, 48, 48], "withholdReward": true, "trial_id": "mdp_950960813932", "block": "test2", "trialIndex": 59, "score": 60.25, "costs": -0.75, "simulationMode": [null, null, null], "rewards": [4, 4, 48], "path": ["0", "0", "9", "10", "12"], "rt": [2837, 401, 477], "actions": ["left", "left", "down"], "actionTimes": [3704, 4631, 5622], "queries": {"click": {"state": {"target": ["12", "9", "10"], "time": [2145, 3018, 3357]}, "edge": {"target": [], "time": []}}, "mouseover": {"state": {"target": ["12", "9", "10"], "time": [2062, 2846, 3262]}, "edge": {"target": [], "time": []}}, "mouseout": {"state": {"target": ["0", "12", "9", "10", "6"], "time": [1146, 2312, 3228, 3528, 11261]}, "edge": {"target": [], "time": []}}}, "displayed_time": "10.87", "trialTime": 11590, "trial_type": "mouselab-mdp", "trial_index": 67, "time_elapsed": 981707, "internal_node_id": "0.0-4.0-3.0-27.0"}}, {"uniqueid": "w18436043:a88558309", "current_trial": 68, "dateTime": 1664874089878, "trialdata": {"revealed_states": [], "num_clicks_accrued": [0, 0, 0, 0, 0, 0, 0, 0, 0, 0, 0, 0, 0], "stateRewards": ["", -2, -4, -48, -48, -2, -8, 48, -48, 4, -8, -48, 24], "withholdReward": false, "trial_id": "mdp_468495641521", "block": "test2", "trialIndex": 60, "score": 41.25, "costs": -1.75, "simulationMode": [null, null, null], "rewards": [-2, -8, 48], "path": ["0", "0", "5", "6", "7"], "rt": [7370, 18, 7], "actions": ["right", "right", "up"], "actionTimes": [8080, 8605, 9134], "queries": {"click": {"state": {"target": ["12", "8", "4", "7", "6", "11", "3"], "time": [1247, 2225, 2837, 3695, 4465, 6090, 7507]}, "edge": {"target": [], "time": []}}, "mouseover": {"state": {"target": ["12", "8", "1", "4", "1", "7", "6", "6", "5", "9", "11", "9", "3"], "time": [1171, 2089, 2537, 2770, 3021, 3554, 3921, 4320, 5454, 5737, 6020, 6420, 7237]}, "edge": {"target": [], "time": []}}, "mouseout": {"state": {"target": ["0", "12", "8", "1", "4", "1", "7", "6", "6", "6", "5", "9", "11", "9", "3", "7", "6"], "time": [871, 1454, 2454, 2554, 3004, 3071, 3888, 3937, 4654, 5338, 5638, 5887, 6254, 6570, 7653, 7820, 8103]}, "edge": {"target": [], "time": []}}}, "displayed_time": "9.65", "trialTime": 10946, "trial_type": "mouselab-mdp", "trial_index": 68, "time_elapsed": 992703, "internal_node_id": "0.0-4.0-3.0-28.0"}}, {"uniqueid": "w18436043:a88558309", "current_trial": 69, "dateTime": 1664874100699, "trialdata": {"revealed_states": [], "num_clicks_accrued": [0, 0, 0, 0, 0, 0, 0, 0, 0, 0, 0, 0, 0], "stateRewards": ["", 2, 8, -48, 24, -2, 4, 48, 48, -2, -8, 48, 24], "withholdReward": true, "trial_id": "mdp_157355418411", "block": "test2", "trialIndex": 61, "score": 54, "costs": -1, "simulationMode": [null, null, null], "rewards": [-2, 4, 48], "path": ["0", "0", "5", "6", "8"], "rt": [3711, 366, 86], "actions": ["right", "right", "down"], "actionTimes": [4670, 5559, 6161], "queries": {"click": {"state": {"target": ["4", "8", "6", "5"], "time": [1462, 2565, 3331, 3924]}, "edge": {"target": [], "time": []}}, "mouseover": {"state": {"target": ["1", "4", "0", "8", "8", "6", "5"], "time": [1175, 1358, 1791, 2174, 2444, 3191, 3858]}, "edge": {"target": [], "time": []}}, "mouseout": {"state": {"target": ["0", "1", "4", "0", "8", "8", "8", "6", "5", "8"], "time": [1112, 1191, 1642, 1808, 2191, 2741, 3074, 3591, 4091, 4208]}, "edge": {"target": [], "time": []}}}, "displayed_time": "9.96", "trialTime": 10772, "trial_type": "mouselab-mdp", "trial_index": 69, "time_elapsed": 1003524, "internal_node_id": "0.0-4.0-3.0-29.0"}}, {"uniqueid": "w18436043:a88558309", "current_trial": 70, "dateTime": 1664874104518, "trialdata": {"rt": 3816, "stimulus": "<h1> End of block! </h1>\n\nYou have reached the end of the block 2/4. If you need a short break, feel free to take one now before moving on.\n\n<br><br>\nIn the next block, you will complete another 30 rounds of this game.\n\n<br><br>\n<div style='text-align: center;'>Press <code>space</code> to begin.</div>\n<br><br>\n<div style='text-align: center;'>(If the experiment doesn't continue, try clicking on the text and then pressing <code>space</code>.)</div>", "response": " ", "trial_id": "mdp_ready_3", "trial_type": "html-keyboard-response", "trial_index": 70, "time_elapsed": 1007343, "internal_node_id": "0.0-4.0-4.0"}}, {"uniqueid": "w18436043:a88558309", "current_trial": 71, "dateTime": 1664874116463, "trialdata": {"revealed_states": [], "num_clicks_accrued": [0, 0, 0, 0, 0, 0, 0, 0, 0, 0, 0, 0, 0], "stateRewards": ["", -2, -8, 48, 24, 2, 4, 24, -24, -2, -4, 48, -48], "withholdReward": true, "trial_id": "mdp_411152402386", "block": "test3", "trialIndex": 62, "score": 45.25, "costs": -1.75, "simulationMode": [null, null, null], "rewards": [-2, -4, 48], "path": ["0", "0", "9", "10", "11"], "rt": [7646, 485, 26], "actions": ["left", "left", "up"], "actionTimes": [8700, 9673, 10214], "queries": {"click": {"state": {"target": ["3", "2", "12", "1", "11", "10", "9"], "time": [1641, 2429, 3871, 4654, 6181, 7114, 7863]}, "edge": {"target": [], "time": []}}, "mouseover": {"state": {"target": ["1", "3", "1", "2", "1", "1", "9", "12", "0", "1", "5", "4", "11", "0", "0", "9", "10", "9"], "time": [1321, 1505, 2188, 2321, 2689, 3355, 3571, 3823, 4288, 4538, 4904, 5755, 6054, 6355, 6738, 6771, 6938, 7721]}, "edge": {"target": [], "time": []}}, "mouseout": {"state": {"target": ["0", "1", "3", "1", "2", "1", "1", "9", "12", "0", "1", "5", "1", "2", "4", "11", "0", "0", "9", "10", "9"], "time": [1272, 1338, 1838, 2255, 2621, 3171, 3455, 3588, 4004, 4305, 4805, 5088, 5255, 5404, 5887, 6304, 6388, 6754, 6821, 7271, 8004]}, "edge": {"target": [], "time": []}}}, "displayed_time": "10.72", "trialTime": 11900, "trial_type": "mouselab-mdp", "trial_index": 71, "time_elapsed": 1019287, "internal_node_id": "0.0-4.0-5.0-0.0"}}, {"uniqueid": "w18436043:a88558309", "current_trial": 72, "dateTime": 1664874126261, "trialdata": {"revealed_states": [], "num_clicks_accrued": [0, 0, 0, 0, 0, 0, 0, 0, 0, 0, 0, 0, 0], "stateRewards": ["", -4, 4, -24, 24, 2, 4, -24, 48, -4, 8, -48, 48], "withholdReward": true, "trial_id": "mdp_422109108860", "block": "test3", "trialIndex": 63, "score": 58, "costs": -1, "simulationMode": [null, null, null], "rewards": [2, 4, 48], "path": ["0", "0", "5", "6", "8"], "rt": [3176, 53, 38], "actions": ["right", "right", "down"], "actionTimes": [3926, 4498, 5051], "queries": {"click": {"state": {"target": ["4", "8", "6", "5"], "time": [1353, 2055, 2736, 3193]}, "edge": {"target": [], "time": []}}, "mouseover": {"state": {"target": ["4", "1", "5", "8", "6", "5"], "time": [1246, 1646, 1696, 1729, 2546, 3096]}, "edge": {"target": [], "time": []}}, "mouseout": {"state": {"target": ["0", "4", "1", "5", "8", "8", "6", "5", "8", "5"], "time": [979, 1563, 1663, 1713, 2196, 2479, 2979, 3346, 4046, 9146]}, "edge": {"target": [], "time": []}}}, "displayed_time": "8.75", "trialTime": 9758, "trial_type": "mouselab-mdp", "trial_index": 72, "time_elapsed": 1029086, "internal_node_id": "0.0-4.0-5.0-1.0"}}, {"uniqueid": "w18436043:a88558309", "current_trial": 73, "dateTime": 1664874152659, "trialdata": {"revealed_states": [], "num_clicks_accrued": [0, 0, 0, 0, 0, 0, 0, 0, 0, 0, 0, 0, 0], "stateRewards": ["", 2, 4, -48, -24, 2, 8, 24, 48, -2, 4, 48, -48], "withholdReward": true, "trial_id": "mdp_551894842204", "block": "test3", "trialIndex": 64, "score": 62, "costs": -1, "simulationMode": [null, null, null], "rewards": [2, 8, 48], "path": ["0", "0", "5", "6", "8"], "rt": [5113, 63, 26], "actions": ["right", "right", "down"], "actionTimes": [21984, 22563, 23078], "queries": {"click": {"state": {"target": ["4", "8", "6", "5"], "time": [17735, 18786, 19580, 19944]}, "edge": {"target": [], "time": []}}, "mouseover": {"state": {"target": ["0", "4", "1", "8", "6", "5"], "time": [17333, 17617, 18066, 18666, 19417, 19850]}, "edge": {"target": [], "time": []}}, "mouseout": {"state": {"target": ["12", "12", "5", "0", "0", "4", "1", "8", "6", "5", "8", "8", "8"], "time": [13905, 16239, 16522, 17167, 17350, 17966, 18133, 18966, 19766, 20100, 20500, 21149, 23166]}, "edge": {"target": [], "time": []}}}, "displayed_time": "24.87", "trialTime": 26362, "trial_type": "mouselab-mdp", "trial_index": 73, "time_elapsed": 1055483, "internal_node_id": "0.0-4.0-5.0-2.0"}}, {"uniqueid": "w18436043:a88558309", "current_trial": 74, "dateTime": 1664874167542, "trialdata": {"revealed_states": [], "num_clicks_accrued": [0, 0, 0, 0, 0, 0, 0, 0, 0, 0, 0, 0, 0], "stateRewards": ["", 2, -4, -24, -24, -2, -8, -48, 24, -4, -8, 24, 24], "withholdReward": true, "trial_id": "mdp_521351546461", "block": "test3", "trialIndex": 65, "score": 16.5, "costs": -2.5, "simulationMode": [null, null, null], "rewards": [-2, -8, 24], "path": ["0", "0", "5", "6", "8"], "rt": [10839, 564, 94], "actions": ["right", "right", "down"], "actionTimes": [11591, 12673, 13253], "queries": {"click": {"state": {"target": ["7", "12", "4", "8", "11", "3", "10", "6", "9", "5"], "time": [1246, 2088, 2983, 3794, 4508, 5099, 6516, 8249, 9215, 9848]}, "edge": {"target": [], "time": []}}, "mouseover": {"state": {"target": ["5", "7", "6", "12", "9", "4", "5", "8", "9", "11", "9", "3", "5", "0", "10", "6", "9", "5"], "time": [1009, 1126, 1493, 1960, 2592, 2843, 3492, 3626, 4226, 4409, 4676, 4959, 5442, 5676, 6309, 8126, 9158, 9792]}, "edge": {"target": [], "time": []}}, "mouseout": {"state": {"target": ["0", "5", "7", "6", "12", "9", "4", "5", "8", "9", "11", "9", "3", "5", "0", "10", "6", "8", "9", "5", "8"], "time": [976, 1043, 1460, 1559, 2226, 2610, 3159, 3526, 3942, 4242, 4659, 4709, 5259, 5626, 5726, 6642, 8409, 8442, 9375, 10009, 11058]}, "edge": {"target": [], "time": []}}}, "displayed_time": "13.76", "trialTime": 14840, "trial_type": "mouselab-mdp", "trial_index": 74, "time_elapsed": 1070367, "internal_node_id": "0.0-4.0-5.0-3.0"}}, {"uniqueid": "w18436043:a88558309", "current_trial": 75, "dateTime": 1664874178498, "trialdata": {"revealed_states": [], "num_clicks_accrued": [0, 0, 0, 0, 0, 0, 0, 0, 0, 0, 0, 0, 0], "stateRewards": ["", 4, 8, 24, 24, 2, -4, 48, -24, -4, 8, -24, 24], "withholdReward": false, "trial_id": "mdp_932292142091", "block": "test3", "trialIndex": 66, "score": 49.5, "costs": -1.5, "simulationMode": [null, null, null], "rewards": [2, -4, 48], "path": ["0", "0", "5", "6", "7"], "rt": [5347, 69, 450], "actions": ["right", "right", "up"], "actionTimes": [6223, 6814, 7762], "queries": {"click": {"state": {"target": ["3", "12", "4", "8", "7", "6"], "time": [1385, 2181, 3037, 3686, 4453, 5219]}, "edge": {"target": [], "time": []}}, "mouseover": {"state": {"target": ["3", "12", "1", "2", "4", "0", "8", "6", "7", "6", "5"], "time": [1264, 2095, 2629, 2695, 2945, 3278, 3562, 4178, 4362, 4995, 5913]}, "edge": {"target": [], "time": []}}, "mouseout": {"state": {"target": ["5", "0", "3", "12", "1", "2", "4", "0", "8", "6", "7", "6", "5", "0", "9", "10", "12"], "time": [495, 1062, 1596, 2362, 2662, 2878, 3195, 3328, 3828, 4245, 4696, 5429, 6295, 6461, 6528, 6561, 7529]}, "edge": {"target": [], "time": []}}}, "displayed_time": "9.88", "trialTime": 10916, "trial_type": "mouselab-mdp", "trial_index": 75, "time_elapsed": 1081323, "internal_node_id": "0.0-4.0-5.0-4.0"}}, {"uniqueid": "w18436043:a88558309", "current_trial": 76, "dateTime": 1664874188021, "trialdata": {"revealed_states": [], "num_clicks_accrued": [0, 0, 0, 0, 0, 0, 0, 0, 0, 0, 0, 0, 0], "stateRewards": ["", 2, 4, -48, -48, 4, 4, -48, -48, -2, -8, 48, -24], "withholdReward": false, "trial_id": "mdp_175327338412", "block": "test3", "trialIndex": 67, "score": 41.5, "costs": -1.5, "simulationMode": [null, null, null], "rewards": [-2, -8, 48], "path": ["0", "0", "9", "10", "11"], "rt": [4273, 488, 59], "actions": ["left", "left", "up"], "actionTimes": [4978, 5982, 6537], "queries": {"click": {"state": {"target": ["3", "12", "4", "8", "7", "11"], "time": [1208, 1907, 2548, 3082, 3629, 4205]}, "edge": {"target": [], "time": []}}, "mouseover": {"state": {"target": ["3", "0", "12", "9", "4", "1", "8", "6", "7", "6", "5", "11", "10"], "time": [1111, 1545, 1828, 2228, 2328, 2728, 2861, 3394, 3494, 3811, 3894, 4128, 4345]}, "edge": {"target": [], "time": []}}, "mouseout": {"state": {"target": ["0", "3", "0", "12", "9", "4", "1", "8", "8", "6", "7", "6", "5", "11", "10"], "time": [911, 1362, 1561, 2078, 2245, 2695, 2745, 3245, 3378, 3444, 3778, 3845, 3911, 4311, 4361]}, "edge": {"target": [], "time": []}}}, "displayed_time": "8.71", "trialTime": 9474, "trial_type": "mouselab-mdp", "trial_index": 76, "time_elapsed": 1090846, "internal_node_id": "0.0-4.0-5.0-5.0"}}, {"uniqueid": "w18436043:a88558309", "current_trial": 77, "dateTime": 1664874197513, "trialdata": {"revealed_states": [], "num_clicks_accrued": [0, 0, 0, 0, 0, 0, 0, 0, 0, 0, 0, 0, 0], "stateRewards": ["", -2, 8, -24, 48, -4, 4, -48, 24, 4, -8, 48, -24], "withholdReward": true, "trial_id": "mdp_425320427962", "block": "test3", "trialIndex": 68, "score": 58, "costs": -1, "simulationMode": [null, null, null], "rewards": [-2, 8, 48], "path": ["0", "0", "1", "2", "4"], "rt": [3282, 433, 17], "actions": ["up", "up", "left"], "actionTimes": [4222, 5183, 5727], "queries": {"click": {"state": {"target": ["3", "12", "4", "2"], "time": [1469, 2141, 2722, 3698]}, "edge": {"target": [], "time": []}}, "mouseover": {"state": {"target": ["3", "0", "12", "4", "0", "5", "2", "1", "5"], "time": [1359, 1776, 2026, 2592, 2959, 3276, 3542, 3926, 4192]}, "edge": {"target": [], "time": []}}, "mouseout": {"state": {"target": ["0", "3", "0", "12", "4", "0", "5", "2", "1", "5"], "time": [1109, 1660, 1792, 2359, 2876, 2976, 3326, 3876, 3942, 4625]}, "edge": {"target": [], "time": []}}}, "displayed_time": "8.94", "trialTime": 9448, "trial_type": "mouselab-mdp", "trial_index": 77, "time_elapsed": 1100338, "internal_node_id": "0.0-4.0-5.0-6.0"}}, {"uniqueid": "w18436043:a88558309", "current_trial": 78, "dateTime": 1664874209293, "trialdata": {"revealed_states": [], "num_clicks_accrued": [0, 0, 0, 0, 0, 0, 0, 0, 0, 0, 0, 0, 0], "stateRewards": ["", 4, 4, -24, -48, 2, 4, 24, -48, 2, 4, 24, 24], "withholdReward": true, "trial_id": "mdp_223558518218", "block": "test3", "trialIndex": 69, "score": 33, "costs": -2, "simulationMode": [null, null, null], "rewards": [2, 4, 24], "path": ["0", "0", "5", "6", "7"], "rt": [7907, 423, 74], "actions": ["right", "right", "up"], "actionTimes": [8590, 9523, 10105], "queries": {"click": {"state": {"target": ["3", "12", "4", "8", "7", "11", "9", "6"], "time": [1242, 1934, 2644, 3270, 3822, 4513, 5948, 7255]}, "edge": {"target": [], "time": []}}, "mouseover": {"state": {"target": ["3", "1", "9", "12", "9", "4", "5", "8", "6", "7", "11", "10", "9", "6"], "time": [1082, 1565, 1599, 1832, 2349, 2531, 2948, 3182, 3598, 3698, 4415, 4698, 5831, 7181]}, "edge": {"target": [], "time": []}}, "mouseout": {"state": {"target": ["0", "3", "1", "9", "12", "9", "4", "5", "8", "6", "7", "11", "10", "9", "6"], "time": [832, 1532, 1582, 1615, 2315, 2365, 2832, 2965, 3565, 3648, 4099, 4665, 4731, 6098, 7431]}, "edge": {"target": [], "time": []}}}, "displayed_time": "10.62", "trialTime": 11735, "trial_type": "mouselab-mdp", "trial_index": 78, "time_elapsed": 1112118, "internal_node_id": "0.0-4.0-5.0-7.0"}}, {"uniqueid": "w18436043:a88558309", "current_trial": 79, "dateTime": 1664874219638, "trialdata": {"revealed_states": [], "num_clicks_accrued": [0, 0, 0, 0, 0, 0, 0, 0, 0, 0, 0, 0, 0], "stateRewards": ["", 4, 8, 48, 48, 4, 4, -24, -48, 4, 8, -48, -48], "withholdReward": true, "trial_id": "mdp_984548726931", "block": "test3", "trialIndex": 70, "score": 64.5, "costs": -0.5, "simulationMode": [null, null, null], "rewards": [4, 8, 48], "path": ["0", "0", "1", "2", "3"], "rt": [2497, 68, 12], "actions": ["up", "up", "right"], "actionTimes": [3252, 3841, 4383], "queries": {"click": {"state": {"target": ["3", "2"], "time": [1213, 2672]}, "edge": {"target": [], "time": []}}, "mouseover": {"state": {"target": ["3", "0", "9", "1", "2", "1"], "time": [1154, 1588, 2188, 2337, 2587, 2871]}, "edge": {"target": [], "time": []}}, "mouseout": {"state": {"target": ["0", "3", "0", "9", "1", "2", "1"], "time": [954, 1404, 1604, 2222, 2538, 2838, 3004]}, "edge": {"target": [], "time": []}}}, "displayed_time": "9.76", "trialTime": 10287, "trial_type": "mouselab-mdp", "trial_index": 79, "time_elapsed": 1122463, "internal_node_id": "0.0-4.0-5.0-8.0"}}, {"uniqueid": "w18436043:a88558309", "current_trial": 80, "dateTime": 1664874228889, "trialdata": {"revealed_states": [], "num_clicks_accrued": [0, 0, 0, 0, 0, 0, 0, 0, 0, 0, 0, 0, 0], "stateRewards": ["", 2, 4, 48, 24, -4, 8, 48, 48, 2, -4, -48, -24], "withholdReward": true, "trial_id": "mdp_822099887466", "block": "test3", "trialIndex": 71, "score": 56.25, "costs": -0.75, "simulationMode": [null, null, null], "rewards": [-4, 8, 48], "path": ["0", "0", "5", "6", "8"], "rt": [2311, 10, 15], "actions": ["right", "right", "down"], "actionTimes": [2956, 3486, 4023], "queries": {"click": {"state": {"target": ["4", "8", "6"], "time": [1138, 1860, 2595]}, "edge": {"target": [], "time": []}}, "mouseover": {"state": {"target": ["4", "0", "8", "6"], "time": [991, 1458, 1758, 2458]}, "edge": {"target": [], "time": []}}, "mouseout": {"state": {"target": ["4", "0", "8", "6", "8"], "time": [1324, 1474, 2358, 2774, 3208]}, "edge": {"target": [], "time": []}}}, "displayed_time": "8.65", "trialTime": 9209, "trial_type": "mouselab-mdp", "trial_index": 80, "time_elapsed": 1131714, "internal_node_id": "0.0-4.0-5.0-9.0"}}, {"uniqueid": "w18436043:a88558309", "current_trial": 81, "dateTime": 1664874238466, "trialdata": {"revealed_states": [], "num_clicks_accrued": [0, 0, 0, 0, 0, 0, 0, 0, 0, 0, 0, 0, 0], "stateRewards": ["", -4, -8, -24, 24, 2, 8, 24, 48, 2, 4, 24, -48], "withholdReward": true, "trial_id": "mdp_122352383932", "block": "test3", "trialIndex": 72, "score": 61.75, "costs": -1.25, "simulationMode": [null, null, null], "rewards": [2, 8, 48], "path": ["0", "0", "5", "6", "8"], "rt": [4283, 16, 4], "actions": ["right", "right", "down"], "actionTimes": [4893, 5437, 5974], "queries": {"click": {"state": {"target": ["3", "12", "7", "8", "6"], "time": [1127, 1875, 2620, 3742, 4542]}, "edge": {"target": [], "time": []}}, "mouseover": {"state": {"target": ["3", "1", "9", "12", "5", "7", "6", "8", "8", "5", "6"], "time": [919, 1519, 1569, 1669, 2302, 2486, 2853, 3103, 3619, 4219, 4453]}, "edge": {"target": [], "time": []}}, "mouseout": {"state": {"target": ["0", "3", "1", "9", "12", "5", "7", "6", "8", "8", "5", "6", "8", "12", "12"], "time": [786, 1486, 1536, 1603, 2086, 2386, 2820, 3053, 3236, 4052, 4274, 4769, 5136, 5319, 6369]}, "edge": {"target": [], "time": []}}}, "displayed_time": "8.61", "trialTime": 9531, "trial_type": "mouselab-mdp", "trial_index": 81, "time_elapsed": 1141291, "internal_node_id": "0.0-4.0-5.0-10.0"}}, {"uniqueid": "w18436043:a88558309", "current_trial": 82, "dateTime": 1664874249280, "trialdata": {"revealed_states": [], "num_clicks_accrued": [0, 0, 0, 0, 0, 0, 0, 0, 0, 0, 0, 0, 0], "stateRewards": ["", -2, -4, -24, -48, -4, -8, -48, 24, -4, -8, -24, -48], "withholdReward": false, "trial_id": "mdp_475782454549", "block": "test3", "trialIndex": 73, "score": 15.5, "costs": -1.5, "simulationMode": [null, null, null], "rewards": [-4, -8, 24], "path": ["0", "0", "5", "6", "8"], "rt": [5514, 414, 45], "actions": ["right", "right", "down"], "actionTimes": [6192, 7134, 7665], "queries": {"click": {"state": {"target": ["4", "8", "7", "12", "3", "11"], "time": [1222, 1859, 3100, 3758, 4395, 5034]}, "edge": {"target": [], "time": []}}, "mouseover": {"state": {"target": ["4", "5", "8", "6", "7", "7", "5", "12", "9", "1", "3", "1", "11", "9"], "time": [1153, 1586, 1638, 2336, 2803, 3019, 3369, 3719, 4086, 4136, 4319, 4736, 4952, 5286]}, "edge": {"target": [], "time": []}}, "mouseout": {"state": {"target": ["0", "4", "5", "8", "6", "7", "7", "5", "12", "9", "1", "3", "1", "11", "9", "8"], "time": [870, 1436, 1603, 2299, 2370, 2853, 3303, 3386, 4020, 4103, 4153, 4669, 4753, 5203, 5319, 5886]}, "edge": {"target": [], "time": []}}}, "displayed_time": "9.68", "trialTime": 10764, "trial_type": "mouselab-mdp", "trial_index": 82, "time_elapsed": 1152105, "internal_node_id": "0.0-4.0-5.0-11.0"}}, {"uniqueid": "w18436043:a88558309", "current_trial": 83, "dateTime": 1664874260045, "trialdata": {"revealed_states": [], "num_clicks_accrued": [0, 0, 0, 0, 0, 0, 0, 0, 0, 0, 0, 0, 0], "stateRewards": ["", -4, 4, 48, 24, -4, 4, -24, 48, -2, -8, 24, -48], "withholdReward": true, "trial_id": "mdp_261501605436", "block": "test3", "trialIndex": 74, "score": 52.5, "costs": -0.5, "simulationMode": [null, null, null], "rewards": [-4, 4, 48], "path": ["0", "0", "1", "2", "3"], "rt": [1716, 406, 2], "actions": ["up", "up", "right"], "actionTimes": [2403, 3317, 3829], "queries": {"click": {"state": {"target": ["3", "2"], "time": [1244, 2067]}, "edge": {"target": [], "time": []}}, "mouseover": {"state": {"targe