{"condition": 1, "counterbalance": 0, "assignmentId": "a90790615", "workerId": "w99662994", "hitId": "h34138154", "currenttrial": 137, "bonus": 0, "data": [{"uniqueid": "w99662994:a90790615", "current_trial": 0, "dateTime": 1664367875411, "trialdata": {"success": true, "trial_type": "fullscreen", "trial_index": 0, "time_elapsed": 8522, "internal_node_id": "0.0-0.0"}}, {"uniqueid": "w99662994:a90790615", "current_trial": 1, "dateTime": 1664367906074, "trialdata": {"view_history": [{"page_index": 0, "viewing_time": 30648}], "rt": 30651, "trial_id": "exp_instructions_no_distractor", "trial_type": "instructions", "trial_index": 1, "time_elapsed": 39188, "internal_node_id": "0.0-1.0"}}, {"uniqueid": "w99662994:a90790615", "current_trial": 2, "dateTime": 1664367911566, "trialdata": {"success": true, "trial_type": "fullscreen", "trial_index": 2, "time_elapsed": 44680, "internal_node_id": "0.0-2.0-0.0"}}, {"uniqueid": "w99662994:a90790615", "current_trial": 3, "dateTime": 1664368084220, "trialdata": {"view_history": [{"page_index": 0, "viewing_time": 65189}, {"page_index": 1, "viewing_time": 40491}, {"page_index": 2, "viewing_time": 18039}, {"page_index": 3, "viewing_time": 16452}, {"page_index": 4, "viewing_time": 32478}], "rt": 172649, "trial_id": "mouselab_instructions_1", "trial_type": "instructions", "trial_index": 3, "time_elapsed": 217334, "internal_node_id": "0.0-2.0-1.0"}}, {"uniqueid": "w99662994:a90790615", "current_trial": 4, "dateTime": 1664368117007, "trialdata": {"revealed_states": [], "num_clicks_accrued": [0, 0, 0, 0, 0, 0, 0, 0, 0, 0, 0, 0, 0], "stateRewards": ["", -10, -10, 10, -10, 10, -10, 10, -10, -10, 10, 10, 10], "withholdReward": false, "trial_id": "practice_1", "block": "test", "trialIndex": 0, "score": -8.25, "costs": -0.25, "simulationMode": [null, null, null], "rewards": [10, -10, -10], "path": ["0", "0", "5", "6", "8"], "rt": [17452, 2170, 2427], "actions": ["right", "right", "down"], "actionTimes": [20234, 22918, 25857], "queries": {"click": {"state": {"target": ["1"], "time": [6069]}, "edge": {"target": [], "time": []}}, "mouseover": {"state": {"target": ["1", "2", "5", "0"], "time": [4895, 9061, 17728, 19061]}, "edge": {"target": [], "time": []}}, "mouseout": {"state": {"target": ["0", "1", "2", "1", "5"], "time": [2244, 8964, 17495, 17530, 18928]}, "edge": {"target": [], "time": []}}}, "displayed_time": "26.38", "trialTime": 32118, "trial_type": "mouselab-mdp", "trial_index": 4, "time_elapsed": 250119, "internal_node_id": "0.0-2.0-2.0-0.0"}}, {"uniqueid": "w99662994:a90790615", "current_trial": 5, "dateTime": 1664368128091, "trialdata": {"revealed_states": [], "num_clicks_accrued": [0, 0, 0, 0, 0, 0, 0, 0, 0, 0, 0, 0, 0], "stateRewards": ["", -10, -10, -10, -10, 10, -10, 10, 10, -10, -10, -10, 10], "withholdReward": false, "trial_id": "practice_2", "block": "test", "trialIndex": 1, "score": -28, "costs": 0, "simulationMode": [null, null, null], "rewards": [-10, -10, -10], "path": ["0", "0", "9", "10", "11"], "rt": [2192, 1678, 1067], "actions": ["left", "left", "up"], "actionTimes": [3226, 5426, 6999], "queries": {"click": {"state": {"target": [], "time": []}, "edge": {"target": [], "time": []}}, "mouseover": {"state": {"target": [], "time": []}, "edge": {"target": [], "time": []}}, "mouseout": {"state": {"target": [], "time": []}, "edge": {"target": [], "time": []}}}, "displayed_time": "7.51", "trialTime": 11004, "trial_type": "mouselab-mdp", "trial_index": 5, "time_elapsed": 261205, "internal_node_id": "0.0-2.0-2.0-1.0"}}, {"uniqueid": "w99662994:a90790615", "current_trial": 6, "dateTime": 1664368233680, "trialdata": {"view_history": [{"page_index": 0, "viewing_time": 60128}, {"page_index": 1, "viewing_time": 28282}, {"page_index": 2, "viewing_time": 17173}], "rt": 105584, "trial_id": "mouselab_instructions_2_scarce", "trial_type": "instructions", "trial_index": 6, "time_elapsed": 366794, "internal_node_id": "0.0-2.0-3.0"}}, {"uniqueid": "w99662994:a90790615", "current_trial": 7, "dateTime": 1664368346859, "trialdata": {"rt": 113170, "response": {"Q0": "$-48 to $48", "Q1": "The cost is always $0.25.", "Q2": "The better I perform the higher my bonus will be.", "Q3": "No, the amount of cash at each node of the web may be different each time.", "Q4": "The values of the nodes walked through from start to finish.", "Q5": "No, the spider might forget to count the money on some rounds."}, "question_order": [0, 1, 2, 3, 4, 5], "correct": {"Q0": "$-48 to $48", "Q1": "The cost is always $0.25.", "Q2": "The better I perform the higher my bonus will be.", "Q3": "No, the amount of cash at each node of the web may be different each time.", "Q4": "The values of the nodes walked through from start to finish.", "Q5": "No, the spider might forget to count the money on some rounds."}, "trial_id": "mouselab_quiz_scarce", "trial_type": "survey-multi-choice", "trial_index": 7, "time_elapsed": 479973, "internal_node_id": "0.0-2.0-4.0"}}, {"uniqueid": "w99662994:a90790615", "current_trial": 8, "dateTime": 1664368373664, "trialdata": {"rt": 26777, "stimulus": "\n<h1> Get ready to start the game! </h1>\n\nThank you for reading the instructions. Get ready start with the first of 4 block(s) of this game.\n<br><br>\nIn this first block, you will complete 30 rounds of this game before moving on.\n<br><br>\nRemember, the more money the spider gets, the bigger your bonus will be!\n<br><br>\n<div style='text-align: center;'>Press <code>space</code> to begin.</div>\n\n<br><br>\n(If, at any point, the <code>space</code> key does not take you to the next page, click once on the text and try again.)", "response": " ", "trial_id": "mdp_ready_1", "trial_type": "html-keyboard-response", "trial_index": 8, "time_elapsed": 506778, "internal_node_id": "0.0-4.0-0.0"}}, {"uniqueid": "w99662994:a90790615", "current_trial": 9, "dateTime": 1664368389924, "trialdata": {"revealed_states": [], "num_clicks_accrued": [0, 0, 0, 0, 0, 0, 0, 0, 0, 0, 0, 0, 0], "stateRewards": ["", -2, 8, -48, 48, 4, -8, -48, 48, 4, -4, -24, 48], "withholdReward": true, "trial_id": "mdp_144739116828", "block": "test1", "trialIndex": 2, "score": -37, "costs": 0, "simulationMode": [null, null, null], "rewards": [-2, 8, -48], "path": ["0", "0", "1", "2", "3"], "rt": [2835, 993, 778], "actions": ["up", "up", "right"], "actionTimes": [6476, 7969, 9252], "queries": {"click": {"state": {"target": [], "time": []}, "edge": {"target": [], "time": []}}, "mouseover": {"state": {"target": [], "time": []}, "edge": {"target": [], "time": []}}, "mouseout": {"state": {"target": [], "time": []}, "edge": {"target": [], "time": []}}}, "displayed_time": "12.64", "trialTime": 16188, "trial_type": "mouselab-mdp", "trial_index": 9, "time_elapsed": 523037, "internal_node_id": "0.0-4.0-1.0-0.0"}}, {"uniqueid": "w99662994:a90790615", "current_trial": 10, "dateTime": 1664368404972, "trialdata": {"revealed_states": [], "num_clicks_accrued": [0, 0, 0, 0, 0, 0, 0, 0, 0, 0, 0, 0, 0], "stateRewards": ["", -2, -8, 48, 24, 4, -8, 24, 48, 4, -4, 24, -48], "withholdReward": false, "trial_id": "mdp_871576155740", "block": "test1", "trialIndex": 3, "score": -43, "costs": 0, "simulationMode": [null, null, null], "rewards": [4, -4, -48], "path": ["0", "0", "9", "10", "12"], "rt": [1509, 521, 944], "actions": ["left", "left", "down"], "actionTimes": [2662, 3687, 5143], "queries": {"click": {"state": {"target": [], "time": []}, "edge": {"target": [], "time": []}}, "mouseover": {"state": {"target": [], "time": []}, "edge": {"target": [], "time": []}}, "mouseout": {"state": {"target": [], "time": []}, "edge": {"target": [], "time": []}}}, "displayed_time": "11.16", "trialTime": 14978, "trial_type": "mouselab-mdp", "trial_index": 10, "time_elapsed": 538086, "internal_node_id": "0.0-4.0-1.0-1.0"}}, {"uniqueid": "w99662994:a90790615", "current_trial": 11, "dateTime": 1664368416673, "trialdata": {"revealed_states": [], "num_clicks_accrued": [0, 0, 0, 0, 0, 0, 0, 0, 0, 0, 0, 0, 0], "stateRewards": ["", 2, 8, 48, 24, -4, 4, -48, 24, 2, 8, 48, 48], "withholdReward": true, "trial_id": "mdp_367344599162", "block": "test1", "trialIndex": 4, "score": 39, "costs": 0, "simulationMode": [null, null, null], "rewards": [2, 8, 24], "path": ["0", "0", "1", "2", "4"], "rt": [1520, 1097, 553], "actions": ["up", "up", "left"], "actionTimes": [3074, 4677, 5731], "queries": {"click": {"state": {"target": [], "time": []}, "edge": {"target": [], "time": []}}, "mouseover": {"state": {"target": [], "time": []}, "edge": {"target": [], "time": []}}, "mouseout": {"state": {"target": [], "time": []}, "edge": {"target": [], "time": []}}}, "displayed_time": "9.55", "trialTime": 11627, "trial_type": "mouselab-mdp", "trial_index": 11, "time_elapsed": 549787, "internal_node_id": "0.0-4.0-1.0-2.0"}}, {"uniqueid": "w99662994:a90790615", "current_trial": 12, "dateTime": 1664368429053, "trialdata": {"revealed_states": [], "num_clicks_accrued": [0, 0, 0, 0, 0, 0, 0, 0, 0, 0, 0, 0, 0], "stateRewards": ["", -2, -8, 48, 24, 2, 4, 24, -24, -2, -4, 48, -48], "withholdReward": true, "trial_id": "mdp_411152402386", "block": "test1", "trialIndex": 5, "score": 35, "costs": 0, "simulationMode": [null, null, null], "rewards": [2, 4, 24], "path": ["0", "0", "5", "6", "7"], "rt": [976, 390, 889], "actions": ["right", "right", "up"], "actionTimes": [2369, 3265, 4665], "queries": {"click": {"state": {"target": [], "time": []}, "edge": {"target": [], "time": []}}, "mouseover": {"state": {"target": [], "time": []}, "edge": {"target": [], "time": []}}, "mouseout": {"state": {"target": [], "time": []}, "edge": {"target": [], "time": []}}}, "displayed_time": "10.40", "trialTime": 12300, "trial_type": "mouselab-mdp", "trial_index": 12, "time_elapsed": 562167, "internal_node_id": "0.0-4.0-1.0-3.0"}}, {"uniqueid": "w99662994:a90790615", "current_trial": 13, "dateTime": 1664368440392, "trialdata": {"revealed_states": [], "num_clicks_accrued": [0, 0, 0, 0, 0, 0, 0, 0, 0, 0, 0, 0, 0], "stateRewards": ["", -4, -4, 24, -48, -2, 8, -24, -48, -4, 4, 24, -48], "withholdReward": true, "trial_id": "mdp_934626330092", "block": "test1", "trialIndex": 6, "score": -13, "costs": 0, "simulationMode": [null, null, null], "rewards": [-2, 8, -24], "path": ["0", "0", "5", "6", "7"], "rt": [1156, 758, 403], "actions": ["right", "right", "up"], "actionTimes": [2403, 3758, 4662], "queries": {"click": {"state": {"target": [], "time": []}, "edge": {"target": [], "time": []}}, "mouseover": {"state": {"target": [], "time": []}, "edge": {"target": [], "time": []}}, "mouseout": {"state": {"target": [], "time": []}, "edge": {"target": [], "time": []}}}, "displayed_time": "9.27", "trialTime": 11272, "trial_type": "mouselab-mdp", "trial_index": 13, "time_elapsed": 573505, "internal_node_id": "0.0-4.0-1.0-4.0"}}, {"uniqueid": "w99662994:a90790615", "current_trial": 14, "dateTime": 1664368452505, "trialdata": {"revealed_states": [], "num_clicks_accrued": [0, 0, 0, 0, 0, 0, 0, 0, 0, 0, 0, 0, 0], "stateRewards": ["", -2, -4, 48, -24, 2, -4, -24, -48, 2, 8, -48, -24], "withholdReward": false, "trial_id": "mdp_238243948191", "block": "test1", "trialIndex": 7, "score": -9, "costs": 0, "simulationMode": [null, null, null], "rewards": [2, 8, -24], "path": ["0", "0", "9", "10", "12"], "rt": [783, 331, 351], "actions": ["left", "left", "down"], "actionTimes": [2069, 2912, 3766], "queries": {"click": {"state": {"target": [], "time": []}, "edge": {"target": [], "time": []}}, "mouseover": {"state": {"target": [], "time": []}, "edge": {"target": [], "time": []}}, "mouseout": {"state": {"target": [], "time": []}, "edge": {"target": [], "time": []}}}, "displayed_time": "10.30", "trialTime": 12038, "trial_type": "mouselab-mdp", "trial_index": 14, "time_elapsed": 585619, "internal_node_id": "0.0-4.0-1.0-5.0"}}, {"uniqueid": "w99662994:a90790615", "current_trial": 15, "dateTime": 1664368464473, "trialdata": {"revealed_states": [], "num_clicks_accrued": [0, 0, 0, 0, 0, 0, 0, 0, 0, 0, 0, 0, 0], "stateRewards": ["", 2, 4, 48, 48, 4, -8, 24, -48, -4, -8, -24, -48], "withholdReward": true, "trial_id": "mdp_343818007251", "block": "test1", "trialIndex": 8, "score": 59, "costs": 0, "simulationMode": [null, null, null], "rewards": [2, 4, 48], "path": ["0", "0", "1", "2", "3"], "rt": [724, 243, 387], "actions": ["up", "up", "right"], "actionTimes": [1832, 2578, 3472], "queries": {"click": {"state": {"target": [], "time": []}, "edge": {"target": [], "time": []}}, "mouseover": {"state": {"target": [], "time": []}, "edge": {"target": [], "time": []}}, "mouseout": {"state": {"target": [], "time": []}, "edge": {"target": [], "time": []}}}, "displayed_time": "9.12", "trialTime": 11876, "trial_type": "mouselab-mdp", "trial_index": 15, "time_elapsed": 597587, "internal_node_id": "0.0-4.0-1.0-6.0"}}, {"uniqueid": "w99662994:a90790615", "current_trial": 16, "dateTime": 1664368475006, "trialdata": {"revealed_states": [], "num_clicks_accrued": [0, 0, 0, 0, 0, 0, 0, 0, 0, 0, 0, 0, 0], "stateRewards": ["", 2, -4, 24, 24, 4, -4, -24, 24, -4, -4, 48, 48], "withholdReward": true, "trial_id": "mdp_566306223773", "block": "test1", "trialIndex": 9, "score": 27, "costs": 0, "simulationMode": [null, null, null], "rewards": [2, -4, 24], "path": ["0", "0", "1", "2", "4"], "rt": [1356, 357, 246], "actions": ["up", "up", "left"], "actionTimes": [2316, 3177, 3917], "queries": {"click": {"state": {"target": [], "time": []}, "edge": {"target": [], "time": []}}, "mouseover": {"state": {"target": [], "time": []}, "edge": {"target": [], "time": []}}, "mouseout": {"state": {"target": [], "time": []}, "edge": {"target": [], "time": []}}}, "displayed_time": "8.96", "trialTime": 10445, "trial_type": "mouselab-mdp", "trial_index": 16, "time_elapsed": 608120, "internal_node_id": "0.0-4.0-1.0-7.0"}}, {"uniqueid": "w99662994:a90790615", "current_trial": 17, "dateTime": 1664368487664, "trialdata": {"revealed_states": [], "num_clicks_accrued": [0, 0, 0, 0, 0, 0, 0, 0, 0, 0, 0, 0, 0], "stateRewards": ["", 4, -8, -48, 24, 4, 4, -24, -24, 2, 4, -48, 24], "withholdReward": true, "trial_id": "mdp_626971397185", "block": "test1", "trialIndex": 10, "score": -37, "costs": 0, "simulationMode": [null, null, null], "rewards": [2, 4, -48], "path": ["0", "0", "9", "10", "11"], "rt": [701, 437, 370], "actions": ["left", "left", "up"], "actionTimes": [1779, 2731, 3614], "queries": {"click": {"state": {"target": [], "time": []}, "edge": {"target": [], "time": []}}, "mouseover": {"state": {"target": [], "time": []}, "edge": {"target": [], "time": []}}, "mouseout": {"state": {"target": [], "time": []}, "edge": {"target": [], "time": []}}}, "displayed_time": "11.09", "trialTime": 12575, "trial_type": "mouselab-mdp", "trial_index": 17, "time_elapsed": 620777, "internal_node_id": "0.0-4.0-1.0-8.0"}}, {"uniqueid": "w99662994:a90790615", "current_trial": 18, "dateTime": 1664368498651, "trialdata": {"revealed_states": [], "num_clicks_accrued": [0, 0, 0, 0, 0, 0, 0, 0, 0, 0, 0, 0, 0], "stateRewards": ["", 2, -4, -48, 24, 4, 4, 48, -48, -2, -4, -24, -48], "withholdReward": true, "trial_id": "mdp_858916930936", "block": "test1", "trialIndex": 11, "score": -49, "costs": 0, "simulationMode": [null, null, null], "rewards": [-2, -4, -48], "path": ["0", "0", "9", "10", "12"], "rt": [885, 335, 1254], "actions": ["left", "left", "down"], "actionTimes": [1803, 2632, 4401], "queries": {"click": {"state": {"target": [], "time": []}, "edge": {"target": [], "time": []}}, "mouseover": {"state": {"target": [], "time": []}, "edge": {"target": [], "time": []}}, "mouseout": {"state": {"target": [], "time": []}, "edge": {"target": [], "time": []}}}, "displayed_time": "9.93", "trialTime": 10916, "trial_type": "mouselab-mdp", "trial_index": 18, "time_elapsed": 631765, "internal_node_id": "0.0-4.0-1.0-9.0"}}, {"uniqueid": "w99662994:a90790615", "current_trial": 19, "dateTime": 1664368509916, "trialdata": {"revealed_states": [], "num_clicks_accrued": [0, 0, 0, 0, 0, 0, 0, 0, 0, 0, 0, 0, 0], "stateRewards": ["", -4, 8, -24, -48, 2, 8, -48, -24, -2, -4, 48, -48], "withholdReward": true, "trial_id": "mdp_599927291428", "block": "test1", "trialIndex": 12, "score": -33, "costs": 0, "simulationMode": [null, null, null], "rewards": [2, 8, -48], "path": ["0", "0", "5", "6", "7"], "rt": [903, 1131, 1107], "actions": ["right", "right", "up"], "actionTimes": [2136, 3771, 5378], "queries": {"click": {"state": {"target": [], "time": []}, "edge": {"target": [], "time": []}}, "mouseover": {"state": {"target": [], "time": []}, "edge": {"target": [], "time": []}}, "mouseout": {"state": {"target": [], "time": []}, "edge": {"target": [], "time": []}}}, "displayed_time": "10.24", "trialTime": 11188, "trial_type": "mouselab-mdp", "trial_index": 19, "time_elapsed": 643029, "internal_node_id": "0.0-4.0-1.0-10.0"}}, {"uniqueid": "w99662994:a90790615", "current_trial": 20, "dateTime": 1664368522000, "trialdata": {"revealed_states": [], "num_clicks_accrued": [0, 0, 0, 0, 0, 0, 0, 0, 0, 0, 0, 0, 0], "stateRewards": ["", -2, -4, -24, -24, 4, 8, 24, 24, -2, 8, 48, 48], "withholdReward": true, "trial_id": "mdp_620787912291", "block": "test1", "trialIndex": 13, "score": -25, "costs": 0, "simulationMode": [null, null, null], "rewards": [-2, -4, -24], "path": ["0", "0", "1", "2", "3"], "rt": [935, 515, 276], "actions": ["up", "up", "right"], "actionTimes": [1758, 2772, 3550], "queries": {"click": {"state": {"target": [], "time": []}, "edge": {"target": [], "time": []}}, "mouseover": {"state": {"target": [], "time": []}, "edge": {"target": [], "time": []}}, "mouseout": {"state": {"target": [], "time": []}, "edge": {"target": [], "time": []}}}, "displayed_time": "10.84", "trialTime": 11991, "trial_type": "mouselab-mdp", "trial_index": 20, "time_elapsed": 655114, "internal_node_id": "0.0-4.0-1.0-11.0"}}, {"uniqueid": "w99662994:a90790615", "current_trial": 21, "dateTime": 1664368533006, "trialdata": {"revealed_states": [], "num_clicks_accrued": [0, 0, 0, 0, 0, 0, 0, 0, 0, 0, 0, 0, 0], "stateRewards": ["", -4, 8, -24, -24, 2, 4, 48, 48, -2, 4, 24, -48], "withholdReward": true, "trial_id": "mdp_397308196941", "block": "test1", "trialIndex": 14, "score": -15, "costs": 0, "simulationMode": [null, null, null], "rewards": [-4, 8, -24], "path": ["0", "0", "1", "2", "4"], "rt": [687, 528, 197], "actions": ["up", "up", "left"], "actionTimes": [1628, 2656, 3357], "queries": {"click": {"state": {"target": [], "time": []}, "edge": {"target": [], "time": []}}, "mouseover": {"state": {"target": [], "time": []}, "edge": {"target": [], "time": []}}, "mouseout": {"state": {"target": [], "time": []}, "edge": {"target": [], "time": []}}}, "displayed_time": "9.95", "trialTime": 10933, "trial_type": "mouselab-mdp", "trial_index": 21, "time_elapsed": 666120, "internal_node_id": "0.0-4.0-1.0-12.0"}}, {"uniqueid": "w99662994:a90790615", "current_trial": 22, "dateTime": 1664368544342, "trialdata": {"revealed_states": [], "num_clicks_accrued": [0, 0, 0, 0, 0, 0, 0, 0, 0, 0, 0, 0, 0], "stateRewards": ["", 4, -4, 48, -48, 2, 8, -48, 24, -2, -4, -24, 48], "withholdReward": true, "trial_id": "mdp_937564992306", "block": "test1", "trialIndex": 15, "score": 39, "costs": 0, "simulationMode": [null, null, null], "rewards": [2, 8, 24], "path": ["0", "0", "5", "6", "8"], "rt": [1265, 226, 224], "actions": ["right", "right", "down"], "actionTimes": [2317, 3049, 3780], "queries": {"click": {"state": {"target": [], "time": []}, "edge": {"target": [], "time": []}}, "mouseover": {"state": {"target": [], "time": []}, "edge": {"target": [], "time": []}}, "mouseout": {"state": {"target": [], "time": []}, "edge": {"target": [], "time": []}}}, "displayed_time": "10.05", "trialTime": 11264, "trial_type": "mouselab-mdp", "trial_index": 22, "time_elapsed": 677455, "internal_node_id": "0.0-4.0-1.0-13.0"}}, {"uniqueid": "w99662994:a90790615", "current_trial": 23, "dateTime": 1664368557110, "trialdata": {"revealed_states": [], "num_clicks_accrued": [0, 0, 0, 0, 0, 0, 0, 0, 0, 0, 0, 0, 0], "stateRewards": ["", 2, 8, 48, -24, -4, 4, 48, 24, -2, 8, 24, 24], "withholdReward": false, "trial_id": "mdp_123436106791", "block": "test1", "trialIndex": 16, "score": 53, "costs": 0, "simulationMode": [null, null, null], "rewards": [-4, 4, 48], "path": ["0", "0", "5", "6", "7"], "rt": [781, 20, 188], "actions": ["right", "right", "up"], "actionTimes": [1650, 2169, 2871], "queries": {"click": {"state": {"target": [], "time": []}, "edge": {"target": [], "time": []}}, "mouseover": {"state": {"target": [], "time": []}, "edge": {"target": [], "time": []}}, "mouseout": {"state": {"target": [], "time": []}, "edge": {"target": [], "time": []}}}, "displayed_time": "9.88", "trialTime": 12691, "trial_type": "mouselab-mdp", "trial_index": 23, "time_elapsed": 690223, "internal_node_id": "0.0-4.0-1.0-14.0"}}, {"uniqueid": "w99662994:a90790615", "current_trial": 24, "dateTime": 1664368568469, "trialdata": {"revealed_states": [], "num_clicks_accrued": [0, 0, 0, 0, 0, 0, 0, 0, 0, 0, 0, 0, 0], "stateRewards": ["", -2, -8, -24, -24, 4, -4, -48, 48, 2, 8, 48, -48], "withholdReward": true, "trial_id": "mdp_498095124548", "block": "test1", "trialIndex": 17, "score": -43, "costs": 0, "simulationMode": [null, null, null], "rewards": [4, -4, -48], "path": ["0", "0", "5", "6", "7"], "rt": [828, 240, 222], "actions": ["right", "right", "up"], "actionTimes": [1939, 2677, 3408], "queries": {"click": {"state": {"target": [], "time": []}, "edge": {"target": [], "time": []}}, "mouseover": {"state": {"target": [], "time": []}, "edge": {"target": [], "time": []}}, "mouseout": {"state": {"target": [], "time": []}, "edge": {"target": [], "time": []}}}, "displayed_time": "10.12", "trialTime": 11270, "trial_type": "mouselab-mdp", "trial_index": 24, "time_elapsed": 701582, "internal_node_id": "0.0-4.0-1.0-15.0"}}, {"uniqueid": "w99662994:a90790615", "current_trial": 25, "dateTime": 1664368579028, "trialdata": {"revealed_states": [], "num_clicks_accrued": [0, 0, 0, 0, 0, 0, 0, 0, 0, 0, 0, 0, 0], "stateRewards": ["", -4, -4, 24, -48, 2, 4, -24, -48, -2, -8, -24, 24], "withholdReward": true, "trial_id": "mdp_565569130486", "block": "test1", "trialIndex": 18, "score": 19, "costs": 0, "simulationMode": [null, null, null], "rewards": [-2, -8, 24], "path": ["0", "0", "9", "10", "12"], "rt": [641, 133, 303], "actions": ["left", "left", "down"], "actionTimes": [1895, 2526, 3329], "queries": {"click": {"state": {"target": [], "time": []}, "edge": {"target": [], "time": []}}, "mouseover": {"state": {"target": [], "time": []}, "edge": {"target": [], "time": []}}, "mouseout": {"state": {"target": [], "time": []}, "edge": {"target": [], "time": []}}}, "displayed_time": "9.26", "trialTime": 10484, "trial_type": "mouselab-mdp", "trial_index": 25, "time_elapsed": 712142, "internal_node_id": "0.0-4.0-1.0-16.0"}}, {"uniqueid": "w99662994:a90790615", "current_trial": 26, "dateTime": 1664368588889, "trialdata": {"revealed_states": [], "num_clicks_accrued": [0, 0, 0, 0, 0, 0, 0, 0, 0, 0, 0, 0, 0], "stateRewards": ["", -4, 4, -24, 24, 2, 4, -24, 48, -4, 8, -48, 48], "withholdReward": true, "trial_id": "mdp_422109108860", "block": "test1", "trialIndex": 19, "score": -39, "costs": 0, "simulationMode": [null, null, null], "rewards": [-4, 8, -48], "path": ["0", "0", "9", "10", "11"], "rt": [1296, 226, 228], "actions": ["left", "left", "up"], "actionTimes": [2229, 2957, 3691], "queries": {"click": {"state": {"target": [], "time": []}, "edge": {"target": [], "time": []}}, "mouseover": {"state": {"target": [], "time": []}, "edge": {"target": [], "time": []}}, "mouseout": {"state": {"target": [], "time": []}, "edge": {"target": [], "time": []}}}, "displayed_time": "8.94", "trialTime": 9782, "trial_type": "mouselab-mdp", "trial_index": 26, "time_elapsed": 722002, "internal_node_id": "0.0-4.0-1.0-17.0"}}, {"uniqueid": "w99662994:a90790615", "current_trial": 27, "dateTime": 1664368600546, "trialdata": {"revealed_states": [], "num_clicks_accrued": [0, 0, 0, 0, 0, 0, 0, 0, 0, 0, 0, 0, 0], "stateRewards": ["", 2, -8, -24, 48, -4, -8, 24, -48, 4, -8, -24, -24], "withholdReward": false, "trial_id": "mdp_928911266656", "block": "test1", "trialIndex": 20, "score": -25, "costs": 0, "simulationMode": [null, null, null], "rewards": [2, -8, -24], "path": ["0", "0", "1", "2", "3"], "rt": [1074, 249, 277], "actions": ["up", "up", "right"], "actionTimes": [2193, 2940, 3717], "queries": {"click": {"state": {"target": [], "time": []}, "edge": {"target": [], "time": []}}, "mouseover": {"state": {"target": [], "time": []}, "edge": {"target": [], "time": []}}, "mouseout": {"state": {"target": [], "time": []}, "edge": {"target": [], "time": []}}}, "displayed_time": "10.13", "trialTime": 11565, "trial_type": "mouselab-mdp", "trial_index": 27, "time_elapsed": 733659, "internal_node_id": "0.0-4.0-1.0-18.0"}}, {"uniqueid": "w99662994:a90790615", "current_trial": 28, "dateTime": 1664368611389, "trialdata": {"revealed_states": [], "num_clicks_accrued": [0, 0, 0, 0, 0, 0, 0, 0, 0, 0, 0, 0, 0], "stateRewards": ["", 2, 8, 24, -48, 4, 8, 24, 48, 2, -8, -24, 24], "withholdReward": true, "trial_id": "mdp_939899431582", "block": "test1", "trialIndex": 21, "score": 39, "costs": 0, "simulationMode": [null, null, null], "rewards": [2, 8, 24], "path": ["0", "0", "1", "2", "3"], "rt": [1132, 242, 431], "actions": ["up", "up", "right"], "actionTimes": [1986, 2736, 3657], "queries": {"click": {"state": {"target": [], "time": []}, "edge": {"target": [], "time": []}}, "mouseover": {"state": {"target": [], "time": []}, "edge": {"target": [], "time": []}}, "mouseout": {"state": {"target": [], "time": []}, "edge": {"target": [], "time": []}}}, "displayed_time": "9.86", "trialTime": 10744, "trial_type": "mouselab-mdp", "trial_index": 28, "time_elapsed": 744502, "internal_node_id": "0.0-4.0-1.0-19.0"}}, {"uniqueid": "w99662994:a90790615", "current_trial": 29, "dateTime": 1664368622718, "trialdata": {"revealed_states": [], "num_clicks_accrued": [0, 0, 0, 0, 0, 0, 0, 0, 0, 0, 0, 0, 0], "stateRewards": ["", 2, -4, 48, 24, 2, 8, 24, 24, -2, 4, 24, 24], "withholdReward": false, "trial_id": "mdp_813974524300", "block": "test1", "trialIndex": 22, "score": 27, "costs": 0, "simulationMode": [null, null, null], "rewards": [2, -4, 24], "path": ["0", "0", "1", "2", "4"], "rt": [1648, 217, 340], "actions": ["up", "up", "left"], "actionTimes": [2648, 3358, 4198], "queries": {"click": {"state": {"target": [], "time": []}, "edge": {"target": [], "time": []}}, "mouseover": {"state": {"target": [], "time": []}, "edge": {"target": [], "time": []}}, "mouseout": {"state": {"target": [], "time": []}, "edge": {"target": [], "time": []}}}, "displayed_time": "9.00", "trialTime": 11237, "trial_type": "mouselab-mdp", "trial_index": 29, "time_elapsed": 755831, "internal_node_id": "0.0-4.0-1.0-20.0"}}, {"uniqueid": "w99662994:a90790615", "current_trial": 30, "dateTime": 1664368634355, "trialdata": {"revealed_states": [], "num_clicks_accrued": [0, 0, 0, 0, 0, 0, 0, 0, 0, 0, 0, 0, 0], "stateRewards": ["", 4, -4, 48, 24, 2, 4, 24, -24, 2, 4, 24, 48], "withholdReward": true, "trial_id": "mdp_736351885282", "block": "test1", "trialIndex": 23, "score": 35, "costs": 0, "simulationMode": [null, null, null], "rewards": [2, 4, 24], "path": ["0", "0", "5", "6", "7"], "rt": [2071, 234, 239], "actions": ["right", "right", "up"], "actionTimes": [3455, 4196, 4935], "queries": {"click": {"state": {"target": [], "time": []}, "edge": {"target": [], "time": []}}, "mouseover": {"state": {"target": [], "time": []}, "edge": {"target": [], "time": []}}, "mouseout": {"state": {"target": [], "time": []}, "edge": {"target": [], "time": []}}}, "displayed_time": "10.39", "trialTime": 11545, "trial_type": "mouselab-mdp", "trial_index": 30, "time_elapsed": 767469, "internal_node_id": "0.0-4.0-1.0-21.0"}}, {"uniqueid": "w99662994:a90790615", "current_trial": 31, "dateTime": 1664368644964, "trialdata": {"revealed_states": [], "num_clicks_accrued": [0, 0, 0, 0, 0, 0, 0, 0, 0, 0, 0, 0, 0], "stateRewards": ["", -2, 4, -24, -48, -4, 8, -24, 48, 4, 4, -48, 24], "withholdReward": false, "trial_id": "mdp_341117665701", "block": "test1", "trialIndex": 24, "score": 57, "costs": 0, "simulationMode": [null, null, null], "rewards": [-4, 8, 48], "path": ["0", "0", "5", "6", "8"], "rt": [725, 173, 162], "actions": ["right", "right", "down"], "actionTimes": [1751, 2429, 3102], "queries": {"click": {"state": {"target": [], "time": []}, "edge": {"target": [], "time": []}}, "mouseover": {"state": {"target": [], "time": []}, "edge": {"target": [], "time": []}}, "mouseout": {"state": {"target": [], "time": []}, "edge": {"target": [], "time": []}}}, "displayed_time": "9.03", "trialTime": 10531, "trial_type": "mouselab-mdp", "trial_index": 31, "time_elapsed": 778078, "internal_node_id": "0.0-4.0-1.0-22.0"}}, {"uniqueid": "w99662994:a90790615", "current_trial": 32, "dateTime": 1664368658392, "trialdata": {"revealed_states": [], "num_clicks_accrued": [0, 0, 0, 0, 0, 0, 0, 0, 0, 0, 0, 0, 0], "stateRewards": ["", 2, 8, -24, -48, -4, 8, -48, -48, -2, -8, -24, -24], "withholdReward": true, "trial_id": "mdp_978177451072", "block": "test1", "trialIndex": 25, "score": -39, "costs": 0, "simulationMode": [null, null, null], "rewards": [-4, 8, -48], "path": ["0", "0", "5", "6", "7"], "rt": [1963, 321, 250], "actions": ["right", "right", "up"], "actionTimes": [3408, 4231, 4993], "queries": {"click": {"state": {"target": [], "time": []}, "edge": {"target": [], "time": []}}, "mouseover": {"state": {"target": [], "time": []}, "edge": {"target": [], "time": []}}, "mouseout": {"state": {"target": [], "time": []}, "edge": {"target": [], "time": []}}}, "displayed_time": "11.45", "trialTime": 13347, "trial_type": "mouselab-mdp", "trial_index": 32, "time_elapsed": 791506, "internal_node_id": "0.0-4.0-1.0-23.0"}}, {"uniqueid": "w99662994:a90790615", "current_trial": 33, "dateTime": 1664368669040, "trialdata": {"revealed_states": [], "num_clicks_accrued": [0, 0, 0, 0, 0, 0, 0, 0, 0, 0, 0, 0, 0], "stateRewards": ["", 2, -4, 48, -48, -2, 8, -48, 24, -2, -8, 48, 48], "withholdReward": false, "trial_id": "mdp_949326095747", "block": "test1", "trialIndex": 26, "score": 43, "costs": 0, "simulationMode": [null, null, null], "rewards": [-2, -8, 48], "path": ["0", "0", "9", "10", "12"], "rt": [691, 243, 213], "actions": ["left", "left", "down"], "actionTimes": [1715, 2458, 3183], "queries": {"click": {"state": {"target": [], "time": []}, "edge": {"target": [], "time": []}}, "mouseover": {"state": {"target": [], "time": []}, "edge": {"target": [], "time": []}}, "mouseout": {"state": {"target": [], "time": []}, "edge": {"target": [], "time": []}}}, "displayed_time": "9.03", "trialTime": 10567, "trial_type": "mouselab-mdp", "trial_index": 33, "time_elapsed": 802154, "internal_node_id": "0.0-4.0-1.0-24.0"}}, {"uniqueid": "w99662994:a90790615", "current_trial": 34, "dateTime": 1664368680461, "trialdata": {"revealed_states": [], "num_clicks_accrued": [0, 0, 0, 0, 0, 0, 0, 0, 0, 0, 0, 0, 0], "stateRewards": ["", -2, 4, -48, -48, 4, 4, 48, -48, 2, 8, 24, 48], "withholdReward": true, "trial_id": "mdp_686771069745", "block": "test1", "trialIndex": 27, "score": 39, "costs": 0, "simulationMode": [null, null, null], "rewards": [2, 8, 24], "path": ["0", "0", "9", "10", "11"], "rt": [841, 279, 233], "actions": ["left", "left", "up"], "actionTimes": [2167, 2968, 3707], "queries": {"click": {"state": {"target": [], "time": []}, "edge": {"target": [], "time": []}}, "mouseover": {"state": {"target": [], "time": []}, "edge": {"target": [], "time": []}}, "mouseout": {"state": {"target": [], "time": []}, "edge": {"target": [], "time": []}}}, "displayed_time": "10.33", "trialTime": 11243, "trial_type": "mouselab-mdp", "trial_index": 34, "time_elapsed": 813575, "internal_node_id": "0.0-4.0-1.0-25.0"}}, {"uniqueid": "w99662994:a90790615", "current_trial": 35, "dateTime": 1664368689605, "trialdata": {"revealed_states": [], "num_clicks_accrued": [0, 0, 0, 0, 0, 0, 0, 0, 0, 0, 0, 0, 0], "stateRewards": ["", 2, -4, -24, 24, 2, 8, 48, 48, 2, -8, 48, -24], "withholdReward": true, "trial_id": "mdp_330392242530", "block": "test1", "trialIndex": 28, "score": -25, "costs": 0, "simulationMode": [null, null, null], "rewards": [2, -8, -24], "path": ["0", "0", "9", "10", "12"], "rt": [1376, 184, 511], "actions": ["left", "left", "down"], "actionTimes": [2497, 3180, 4206], "queries": {"click": {"state": {"target": [], "time": []}, "edge": {"target": [], "time": []}}, "mouseover": {"state": {"target": [], "time": []}, "edge": {"target": [], "time": []}}, "mouseout": {"state": {"target": [], "time": []}, "edge": {"target": [], "time": []}}}, "displayed_time": "8.12", "trialTime": 9062, "trial_type": "mouselab-mdp", "trial_index": 35, "time_elapsed": 822719, "internal_node_id": "0.0-4.0-1.0-26.0"}}, {"uniqueid": "w99662994:a90790615", "current_trial": 36, "dateTime": 1664368700607, "trialdata": {"revealed_states": [], "num_clicks_accrued": [0, 0, 0, 0, 0, 0, 0, 0, 0, 0, 0, 0, 0], "stateRewards": ["", -4, -8, 48, 24, 4, -8, 24, -48, -2, -8, 24, -48], "withholdReward": true, "trial_id": "mdp_952038635544", "block": "test1", "trialIndex": 29, "score": 17, "costs": 0, "simulationMode": [null, null, null], "rewards": [-4, -8, 24], "path": ["0", "0", "1", "2", "4"], "rt": [693, 124, 182], "actions": ["up", "up", "left"], "actionTimes": [1789, 2424, 3099], "queries": {"click": {"state": {"target": [], "time": []}, "edge": {"target": [], "time": []}}, "mouseover": {"state": {"target": [], "time": []}, "edge": {"target": [], "time": []}}, "mouseout": {"state": {"target": [], "time": []}, "edge": {"target": [], "time": []}}}, "displayed_time": "10.11", "trialTime": 10917, "trial_type": "mouselab-mdp", "trial_index": 36, "time_elapsed": 833720, "internal_node_id": "0.0-4.0-1.0-27.0"}}, {"uniqueid": "w99662994:a90790615", "current_trial": 37, "dateTime": 1664368714767, "trialdata": {"revealed_states": [], "num_clicks_accrued": [0, 0, 0, 0, 0, 0, 0, 0, 0, 0, 0, 0, 0], "stateRewards": ["", 4, -4, 48, -48, -4, -4, 48, -48, 4, 4, -48, -24], "withholdReward": false, "trial_id": "mdp_490058671112", "block": "test1", "trialIndex": 30, "score": 53, "costs": 0, "simulationMode": [null, null, null], "rewards": [4, -4, 48], "path": ["0", "0", "1", "2", "3"], "rt": [983, 129, 4196], "actions": ["up", "up", "right"], "actionTimes": [4651, 5283, 10002], "queries": {"click": {"state": {"target": [], "time": []}, "edge": {"target": [], "time": []}}, "mouseover": {"state": {"target": [], "time": []}, "edge": {"target": [], "time": []}}, "mouseout": {"state": {"target": ["0", "1"], "time": [2469, 2668]}, "edge": {"target": [], "time": []}}}, "displayed_time": "12.67", "trialTime": 14082, "trial_type": "mouselab-mdp", "trial_index": 37, "time_elapsed": 847881, "internal_node_id": "0.0-4.0-1.0-28.0"}}, {"uniqueid": "w99662994:a90790615", "current_trial": 38, "dateTime": 1664368726511, "trialdata": {"revealed_states": [], "num_clicks_accrued": [0, 0, 0, 0, 0, 0, 0, 0, 0, 0, 0, 0, 0], "stateRewards": ["", -4, -8, -48, 24, -4, -4, -24, -48, 2, -8, -24, -48], "withholdReward": true, "trial_id": "mdp_628181832088", "block": "test1", "trialIndex": 31, "score": 17, "costs": 0, "simulationMode": [null, null, null], "rewards": [-4, -8, 24], "path": ["0", "0", "1", "2", "4"], "rt": [1725, 151, 112], "actions": ["up", "up", "left"], "actionTimes": [3273, 3922, 4534], "queries": {"click": {"state": {"target": [], "time": []}, "edge": {"target": [], "time": []}}, "mouseover": {"state": {"target": [], "time": []}, "edge": {"target": [], "time": []}}, "mouseout": {"state": {"target": ["0"], "time": [1487]}, "edge": {"target": [], "time": []}}}, "displayed_time": "10.55", "trialTime": 11658, "trial_type": "mouselab-mdp", "trial_index": 38, "time_elapsed": 859624, "internal_node_id": "0.0-4.0-1.0-29.0"}}, {"uniqueid": "w99662994:a90790615", "current_trial": 39, "dateTime": 1664368738777, "trialdata": {"rt": 12257, "stimulus": "<h1> End of block! </h1>\n\nYou have reached the end of the block 1/4. If you need a short break, feel free to take one now before moving on.\n\n<br><br>\nIn the next block, you will complete another 30 rounds of this game.\n\n<br><br>\n<div style='text-align: center;'>Press <code>space</code> to begin.</div>\n<br><br>\n<div style='text-align: center;'>(If the experiment doesn't continue, try clicking on the text and then pressing <code>space</code>.)</div>", "response": " ", "trial_id": "mdp_ready_2", "trial_type": "html-keyboard-response", "trial_index": 39, "time_elapsed": 871890, "internal_node_id": "0.0-4.0-2.0"}}, {"uniqueid": "w99662994:a90790615", "current_trial": 40, "dateTime": 1664368748861, "trialdata": {"revealed_states": [], "num_clicks_accrued": [0, 0, 0, 0, 0, 0, 0, 0, 0, 0, 0, 0, 0], "stateRewards": ["", -4, -4, 24, 48, 4, -4, -24, 24, -4, -4, 24, 24], "withholdReward": true, "trial_id": "mdp_357725458160", "block": "test2", "trialIndex": 32, "score": 45, "costs": 0, "simulationMode": [null, null, null], "rewards": [-4, -4, 48], "path": ["0", "0", "1", "2", "4"], "rt": [1438, 146, 154], "actions": ["up", "up", "left"], "actionTimes": [2547, 3196, 3853], "queries": {"click": {"state": {"target": [], "time": []}, "edge": {"target": [], "time": []}}, "mouseover": {"state": {"target": [], "time": []}, "edge": {"target": [], "time": []}}, "mouseout": {"state": {"target": ["0"], "time": [1031]}, "edge": {"target": [], "time": []}}}, "displayed_time": "9.12", "trialTime": 10002, "trial_type": "mouselab-mdp", "trial_index": 40, "time_elapsed": 881975, "internal_node_id": "0.0-4.0-3.0-0.0"}}, {"uniqueid": "w99662994:a90790615", "current_trial": 41, "dateTime": 1664368758967, "trialdata": {"revealed_states": [], "num_clicks_accrued": [0, 0, 0, 0, 0, 0, 0, 0, 0, 0, 0, 0, 0], "stateRewards": ["", 2, -8, -24, 48, -4, -8, 24, -48, 4, -8, -24, -24], "withholdReward": true, "trial_id": "mdp_928911266656", "block": "test2", "trialIndex": 33, "score": -25, "costs": 0, "simulationMode": [null, null, null], "rewards": [2, -8, -24], "path": ["0", "0", "1", "2", "3"], "rt": [917, 3091, 83], "actions": ["up", "up", "right"], "actionTimes": [1894, 5486, 6062], "queries": {"click": {"state": {"target": [], "time": []}, "edge": {"target": [], "time": []}}, "mouseover": {"state": {"target": [], "time": []}, "edge": {"target": [], "time": []}}, "mouseout": {"state": {"target": ["0"], "time": [897]}, "edge": {"target": [], "time": []}}}, "displayed_time": "8.98", "trialTime": 10018, "trial_type": "mouselab-mdp", "trial_index": 41, "time_elapsed": 892081, "internal_node_id": "0.0-4.0-3.0-1.0"}}, {"uniqueid": "w99662994:a90790615", "current_trial": 42, "dateTime": 1664368771378, "trialdata": {"revealed_states": [], "num_clicks_accrued": [0, 0, 0, 0, 0, 0, 0, 0, 0, 0, 0, 0, 0], "stateRewards": ["", -4, -4, -24, 24, 4, 4, -24, -24, -4, 4, 24, 24], "withholdReward": true, "trial_id": "mdp_787781487383", "block": "test2", "trialIndex": 34, "score": 29, "costs": 0, "simulationMode": [null, null, null], "rewards": [-4, 4, 24], "path": ["0", "0", "9", "10", "11"], "rt": [1554, 1920, 368], "actions": ["left", "left", "up"], "actionTimes": [2661, 5099, 5962], "queries": {"click": {"state": {"target": [], "time": []}, "edge": {"target": [], "time": []}}, "mouseover": {"state": {"target": [], "time": []}, "edge": {"target": [], "time": []}}, "mouseout": {"state": {"target": ["0"], "time": [1048]}, "edge": {"target": [], "time": []}}}, "displayed_time": "11.12", "trialTime": 12328, "trial_type": "mouselab-mdp", "trial_index": 42, "time_elapsed": 904491, "internal_node_id": "0.0-4.0-3.0-2.0"}}, {"uniqueid": "w99662994:a90790615", "current_trial": 43, "dateTime": 1664368781238, "trialdata": {"revealed_states": [], "num_clicks_accrued": [0, 0, 0, 0, 0, 0, 0, 0, 0, 0, 0, 0, 0], "stateRewards": ["", 2, 4, -24, -48, 4, -4, 24, 48, -4, -4, -24, 48], "withholdReward": true, "trial_id": "mdp_181958792175", "block": "test2", "trialIndex": 35, "score": 45, "costs": 0, "simulationMode": [null, null, null], "rewards": [-4, -4, 48], "path": ["0", "0", "9", "10", "12"], "rt": [1026, 142, 132], "actions": ["left", "left", "down"], "actionTimes": [2013, 2656, 3277], "queries": {"click": {"state": {"target": [], "time": []}, "edge": {"target": [], "time": []}}, "mouseover": {"state": {"target": [], "time": []}, "edge": {"target": [], "time": []}}, "mouseout": {"state": {"target": ["0"], "time": [925]}, "edge": {"target": [], "time": []}}}, "displayed_time": "8.99", "trialTime": 9756, "trial_type": "mouselab-mdp", "trial_index": 43, "time_elapsed": 914352, "internal_node_id": "0.0-4.0-3.0-3.0"}}, {"uniqueid": "w99662994:a90790615", "current_trial": 44, "dateTime": 1664368791325, "trialdata": {"revealed_states": [], "num_clicks_accrued": [0, 0, 0, 0, 0, 0, 0, 0, 0, 0, 0, 0, 0], "stateRewards": ["", 2, 4, 48, 48, 4, -8, 24, -48, -4, -8, -24, -48], "withholdReward": true, "trial_id": "mdp_343818007251", "block": "test2", "trialIndex": 36, "score": -31, "costs": 0, "simulationMode": [null, null, null], "rewards": [-4, -8, -24], "path": ["0", "0", "9", "10", "11"], "rt": [1034, 252, 187], "actions": ["left", "left", "up"], "actionTimes": [2137, 2895, 3595], "queries": {"click": {"state": {"target": [], "time": []}, "edge": {"target": [], "time": []}}, "mouseover": {"state": {"target": [], "time": []}, "edge": {"target": [], "time": []}}, "mouseout": {"state": {"target": ["0"], "time": [1038]}, "edge": {"target": [], "time": []}}}, "displayed_time": "9.11", "trialTime": 10007, "trial_type": "mouselab-mdp", "trial_index": 44, "time_elapsed": 924439, "internal_node_id": "0.0-4.0-3.0-4.0"}}, {"uniqueid": "w99662994:a90790615", "current_trial": 45, "dateTime": 1664368801253, "trialdata": {"revealed_states": [], "num_clicks_accrued": [0, 0, 0, 0, 0, 0, 0, 0, 0, 0, 0, 0, 0], "stateRewards": ["", 2, 8, -24, -48, 2, 4, -24, 48, 2, -8, 48, -24], "withholdReward": true, "trial_id": "mdp_791659307216", "block": "test2", "trialIndex": 37, "score": -13, "costs": 0, "simulationMode": [null, null, null], "rewards": [2, 4, -24], "path": ["0", "0", "5", "6", "7"], "rt": [769, 810, 562], "actions": ["right", "right", "up"], "actionTimes": [1755, 3074, 4129], "queries": {"click": {"state": {"target": [], "time": []}, "edge": {"target": [], "time": []}}, "mouseover": {"state": {"target": [], "time": []}, "edge": {"target": [], "time": []}}, "mouseout": {"state": {"target": ["0"], "time": [901]}, "edge": {"target": [], "time": []}}}, "displayed_time": "8.99", "trialTime": 9839, "trial_type": "mouselab-mdp", "trial_index": 45, "time_elapsed": 934367, "internal_node_id": "0.0-4.0-3.0-5.0"}}, {"uniqueid": "w99662994:a90790615", "current_trial": 46, "dateTime": 1664368811429, "trialdata": {"revealed_states": [], "num_clicks_accrued": [0, 0, 0, 0, 0, 0, 0, 0, 0, 0, 0, 0, 0], "stateRewards": ["", 2, -4, 48, -24, 4, -8, -24, 48, -2, -4, 24, -48], "withholdReward": true, "trial_id": "mdp_357328205509", "block": "test2", "trialIndex": 38, "score": 49, "costs": 0, "simulationMode": [null, null, null], "rewards": [4, -8, 48], "path": ["0", "0", "5", "6", "8"], "rt": [672, 328, 251], "actions": ["right", "right", "down"], "actionTimes": [1812, 2634, 3389], "queries": {"click": {"state": {"target": [], "time": []}, "edge": {"target": [], "time": []}}, "mouseover": {"state": {"target": [], "time": []}, "edge": {"target": [], "time": []}}, "mouseout": {"state": {"target": ["0"], "time": [1062]}, "edge": {"target": [], "time": []}}}, "displayed_time": "9.14", "trialTime": 10088, "trial_type": "mouselab-mdp", "trial_index": 46, "time_elapsed": 944543, "internal_node_id": "0.0-4.0-3.0-6.0"}}, {"uniqueid": "w99662994:a90790615", "current_trial": 47, "dateTime": 1664368822333, "trialdata": {"revealed_states": [], "num_clicks_accrued": [0, 0, 0, 0, 0, 0, 0, 0, 0, 0, 0, 0, 0], "stateRewards": ["", 4, -8, -24, 48, -4, 8, -24, -48, -4, -4, 24, 48], "withholdReward": true, "trial_id": "mdp_282352776624", "block": "test2", "trialIndex": 39, "score": -23, "costs": 0, "simulationMode": [null, null, null], "rewards": [4, -8, -24], "path": ["0", "0", "1", "2", "3"], "rt": [642, 184, 2], "actions": ["up", "up", "right"], "actionTimes": [1692, 2367, 2884], "queries": {"click": {"state": {"target": [], "time": []}, "edge": {"target": [], "time": []}}, "mouseover": {"state": {"target": [], "time": []}, "edge": {"target": [], "time": []}}, "mouseout": {"state": {"target": ["0"], "time": [978]}, "edge": {"target": [], "time": []}}}, "displayed_time": "10.05", "trialTime": 10820, "trial_type": "mouselab-mdp", "trial_index": 47, "time_elapsed": 955447, "internal_node_id": "0.0-4.0-3.0-7.0"}}, {"uniqueid": "w99662994:a90790615", "current_trial": 48, "dateTime": 1664368832717, "trialdata": {"revealed_states": [], "num_clicks_accrued": [0, 0, 0, 0, 0, 0, 0, 0, 0, 0, 0, 0, 0], "stateRewards": ["", 2, 8, 48, 24, 2, 8, 48, 48, -2, -4, -24, -48], "withholdReward": false, "trial_id": "mdp_717636349175", "block": "test2", "trialIndex": 40, "score": 39, "costs": 0, "simulationMode": [null, null, null], "rewards": [2, 8, 24], "path": ["0", "0", "1", "2", "4"], "rt": [719, 248, 173], "actions": ["up", "up", "left"], "actionTimes": [1651, 2391, 3065], "queries": {"click": {"state": {"target": [], "time": []}, "edge": {"target": [], "time": []}}, "mouseover": {"state": {"target": [], "time": []}, "edge": {"target": [], "time": []}}, "mouseout": {"state": {"target": ["0"], "time": [855]}, "edge": {"target": [], "time": []}}}, "displayed_time": "8.94", "trialTime": 10296, "trial_type": "mouselab-mdp", "trial_index": 48, "time_elapsed": 965831, "internal_node_id": "0.0-4.0-3.0-8.0"}}, {"uniqueid": "w99662994:a90790615", "current_trial": 49, "dateTime": 1664368844037, "trialdata": {"revealed_states": [], "num_clicks_accrued": [0, 0, 0, 0, 0, 0, 0, 0, 0, 0, 0, 0, 0], "stateRewards": ["", -4, 8, -48, -48, -4, 4, -24, -48, 2, -4, -24, 24], "withholdReward": true, "trial_id": "mdp_183773275291", "block": "test2", "trialIndex": 41, "score": -39, "costs": 0, "simulationMode": [null, null, null], "rewards": [-4, 8, -48], "path": ["0", "0", "1", "2", "3"], "rt": [958, 118, 15], "actions": ["up", "up", "right"], "actionTimes": [2168, 2785, 3300], "queries": {"click": {"state": {"target": [], "time": []}, "edge": {"target": [], "time": []}}, "mouseover": {"state": {"target": [], "time": []}, "edge": {"target": [], "time": []}}, "mouseout": {"state": {"target": ["0"], "time": [1143]}, "edge": {"target": [], "time": []}}}, "displayed_time": "10.22", "trialTime": 11225, "trial_type": "mouselab-mdp", "trial_index": 49, "time_elapsed": 977150, "internal_node_id": "0.0-4.0-3.0-9.0"}}, {"uniqueid": "w99662994:a90790615", "current_trial": 50, "dateTime": 1664368854314, "trialdata": {"revealed_states": [], "num_clicks_accrued": [0, 0, 0, 0, 0, 0, 0, 0, 0, 0, 0, 0, 0], "stateRewards": ["", -4, 4, 24, 24, 4, -8, 48, -48, -2, -8, 24, 24], "withholdReward": false, "trial_id": "mdp_395264223239", "block": "test2", "trialIndex": 42, "score": 19, "costs": 0, "simulationMode": [null, null, null], "rewards": [-2, -8, 24], "path": ["0", "0", "9", "10", "12"], "rt": [820, 175, 195], "actions": ["left", "left", "down"], "actionTimes": [1854, 2531, 3233], "queries": {"click": {"state": {"target": [], "time": []}, "edge": {"target": [], "time": []}}, "mouseover": {"state": {"target": [], "time": []}, "edge": {"target": [], "time": []}}, "mouseout": {"state": {"target": ["0"], "time": [972]}, "edge": {"target": [], "time": []}}}, "displayed_time": "9.04", "trialTime": 10190, "trial_type": "mouselab-mdp", "trial_index": 50, "time_elapsed": 987428, "internal_node_id": "0.0-4.0-3.0-10.0"}}, {"uniqueid": "w99662994:a90790615", "current_trial": 51, "dateTime": 1664368865271, "trialdata": {"revealed_states": [], "num_clicks_accrued": [0, 0, 0, 0, 0, 0, 0, 0, 0, 0, 0, 0, 0], "stateRewards": ["", 4, 8, -24, 48, 4, -8, -48, 48, -4, 8, -24, -48], "withholdReward": false, "trial_id": "mdp_376126356841", "block": "test2", "trialIndex": 43, "score": -15, "costs": 0, "simulationMode": [null, null, null], "rewards": [-4, 8, -24], "path": ["0", "0", "9", "10", "11"], "rt": [781, 41, 238], "actions": ["left", "left", "up"], "actionTimes": [1769, 2309, 3055], "queries": {"click": {"state": {"target": [], "time": []}, "edge": {"target": [], "time": []}}, "mouseover": {"state": {"target": [], "time": []}, "edge": {"target": [], "time": []}}, "mouseout": {"state": {"target": ["0"], "time": [922]}, "edge": {"target": [], "time": []}}}, "displayed_time": "9.00", "trialTime": 10857, "trial_type": "mouselab-mdp", "trial_index": 51, "time_elapsed": 998385, "internal_node_id": "0.0-4.0-3.0-11.0"}}, {"uniqueid": "w99662994:a90790615", "current_trial": 52, "dateTime": 1664368876244, "trialdata": {"revealed_states": [], "num_clicks_accrued": [0, 0, 0, 0, 0, 0, 0, 0, 0, 0, 0, 0, 0], "stateRewards": ["", 2, -4, -48, 24, 4, 4, 48, -48, -2, -4, -24, -48], "withholdReward": true, "trial_id": "mdp_858916930936", "block": "test2", "trialIndex": 44, "score": -49, "costs": 0, "simulationMode": [null, null, null], "rewards": [-2, -4, -48], "path": ["0", "0", "9", "10", "12"], "rt": [2017, 281, 437], "actions": ["left", "left", "down"], "actionTimes": [2997, 3773, 4713], "queries": {"click": {"state": {"target": [], "time": []}, "edge": {"target": [], "time": []}}, "mouseover": {"state": {"target": [], "time": []}, "edge": {"target": [], "time": []}}, "mouseout": {"state": {"target": ["0"], "time": [919]}, "edge": {"target": [], "time": []}}}, "displayed_time": "9.98", "trialTime": 10887, "trial_type": "mouselab-mdp", "trial_index": 52, "time_elapsed": 1009358, "internal_node_id": "0.0-4.0-3.0-12.0"}}, {"uniqueid": "w99662994:a90790615", "current_trial": 53, "dateTime": 1664368888605, "trialdata": {"revealed_states": [], "num_clicks_accrued": [0, 0, 0, 0, 0, 0, 0, 0, 0, 0, 0, 0, 0], "stateRewards": ["", 4, -4, 48, 24, 2, -8, 24, -48, -2, -4, -48, -48], "withholdReward": true, "trial_id": "mdp_655302318695", "block": "test2", "trialIndex": 45, "score": 23, "costs": 0, "simulationMode": [null, null, null], "rewards": [2, -8, 24], "path": ["0", "0", "5", "6", "7"], "rt": [616, 650, 342], "actions": ["right", "right", "up"], "actionTimes": [1644, 2804, 3646], "queries": {"click": {"state": {"target": [], "time": []}, "edge": {"target": [], "time": []}}, "mouseover": {"state": {"target": [], "time": []}, "edge": {"target": [], "time": []}}, "mouseout": {"state": {"target": ["0"], "time": [951]}, "edge": {"target": [], "time": []}}}, "displayed_time": "11.04", "trialTime": 12259, "trial_type": "mouselab-mdp", "trial_index": 53, "time_elapsed": 1021719, "internal_node_id": "0.0-4.0-3.0-13.0"}}, {"uniqueid": "w99662994:a90790615", "current_trial": 54, "dateTime": 1664368899619, "trialdata": {"revealed_states": [], "num_clicks_accrued": [0, 0, 0, 0, 0, 0, 0, 0, 0, 0, 0, 0, 0], "stateRewards": ["", 4, -8, -24, 24, 2, -4, 24, 24, 2, -4, 48, 48], "withholdReward": true, "trial_id": "mdp_457607480918", "block": "test2", "trialIndex": 46, "score": 27, "costs": 0, "simulationMode": [null, null, null], "rewards": [2, -4, 24], "path": ["0", "0", "5", "6", "7"], "rt": [714, 389, 362], "actions": ["right", "right", "up"], "actionTimes": [1657, 2552, 3409], "queries": {"click": {"state": {"target": [], "time": []}, "edge": {"target": [], "time": []}}, "mouseover": {"state": {"target": [], "time": []}, "edge": {"target": [], "time": []}}, "mouseout": {"state": {"target": ["0"], "time": [879]}, "edge": {"target": [], "time": []}}}, "displayed_time": "9.95", "trialTime": 10882, "trial_type": "mouselab-mdp", "trial_index": 54, "time_elapsed": 1032733, "internal_node_id": "0.0-4.0-3.0-14.0"}}, {"uniqueid": "w99662994:a90790615", "current_trial": 55, "dateTime": 1664368910528, "trialdata": {"revealed_states": [], "num_clicks_accrued": [0, 0, 0, 0, 0, 0, 0, 0, 0, 0, 0, 0, 0], "stateRewards": ["", 2, -4, 24, 24, 4, -4, -24, 24, -4, -4, 48, 48], "withholdReward": false, "trial_id": "mdp_566306223773", "block": "test2", "trialIndex": 47, "score": 29, "costs": 0, "simulationMode": [null, null, null], "rewards": [4, -4, 24], "path": ["0", "0", "5", "6", "8"], "rt": [633, 239, 253], "actions": ["right", "right", "down"], "actionTimes": [1654, 2397, 3159], "queries": {"click": {"state": {"target": [], "time": []}, "edge": {"target": [], "time": []}}, "mouseover": {"state": {"target": [], "time": []}, "edge": {"target": [], "time": []}}, "mouseout": {"state": {"target": ["0"], "time": [929]}, "edge": {"target": [], "time": []}}}, "displayed_time": "9.03", "trialTime": 10819, "trial_type": "mouselab-mdp", "trial_index": 55, "time_elapsed": 1043642, "internal_node_id": "0.0-4.0-3.0-15.0"}}, {"uniqueid": "w99662994:a90790615", "current_trial": 56, "dateTime": 1664368924890, "trialdata": {"revealed_states": [], "num_clicks_accrued": [0, 0, 0, 0, 0, 0, 0, 0, 0, 0, 0, 0, 0], "stateRewards": ["", 2, 4, -48, -48, 2, 4, 48, -24, -2, 8, 48, -48], "withholdReward": true, "trial_id": "mdp_258528916140", "block": "test2", "trialIndex": 48, "score": -37, "costs": 0, "simulationMode": [null, null, null], "rewards": [2, 4, -48], "path": ["0", "0", "1", "2", "4"], "rt": [769, 301, 626], "actions": ["up", "up", "left"], "actionTimes": [3836, 4635, 5774], "queries": {"click": {"state": {"target": [], "time": []}, "edge": {"target": [], "time": []}}, "mouseover": {"state": {"target": [], "time": []}, "edge": {"target": [], "time": []}}, "mouseout": {"state": {"target": ["0"], "time": [2343]}, "edge": {"target": [], "time": []}}}, "displayed_time": "13.08", "trialTime": 14272, "trial_type": "mouselab-mdp", "trial_index": 56, "time_elapsed": 1058003, "internal_node_id": "0.0-4.0-3.0-16.0"}}, {"uniqueid": "w99662994:a90790615", "current_trial": 57, "dateTime": 1664368935244, "trialdata": {"revealed_states": [], "num_clicks_accrued": [0, 0, 0, 0, 0, 0, 0, 0, 0, 0, 0, 0, 0], "stateRewards": ["", 2, 4, 48, -48, 2, 4, 24, -24, 2, -4, -24, -48], "withholdReward": false, "trial_id": "mdp_706591889062", "block": "test2", "trialIndex": 49, "score": 59, "costs": 0, "simulationMode": [null, null, null], "rewards": [2, 4, 48], "path": ["0", "0", "1", "2", "3"], "rt": [640, 170, 218], "actions": ["up", "up", "right"], "actionTimes": [1743, 2406, 3123], "queries": {"click": {"state": {"target": [], "time": []}, "edge": {"target": [], "time": []}}, "mouseover": {"state": {"target": [], "time": []}, "edge": {"target": [], "time": []}}, "mouseout": {"state": {"target": [], "time": []}, "edge": {"target": [], "time": []}}}, "displayed_time": "9.11", "trialTime": 10263, "trial_type": "mouselab-mdp", "trial_index": 57, "time_elapsed": 1068357, "internal_node_id": "0.0-4.0-3.0-17.0"}}, {"uniqueid": "w99662994:a90790615", "current_trial": 58, "dateTime": 1664368945566, "trialdata": {"revealed_states": [], "num_clicks_accrued": [0, 0, 0, 0, 0, 0, 0, 0, 0, 0, 0, 0, 0], "stateRewards": ["", -2, 8, -48, 48, 4, -8, -48, 48, 4, -4, -24, 48], "withholdReward": true, "trial_id": "mdp_144739116828", "block": "test2", "trialIndex": 50, "score": 49, "costs": 0, "simulationMode": [null, null, null], "rewards": [4, -8, 48], "path": ["0", "0", "5", "6", "8"], "rt": [3253, 309, 197], "actions": ["right", "right", "down"], "actionTimes": [4388, 5192, 5894], "queries": {"click": {"state": {"target": [], "time": []}, "edge": {"target": [], "time": []}}, "mouseover": {"state": {"target": [], "time": []}, "edge": {"target": [], "time": []}}, "mouseout": {"state": {"target": [], "time": []}, "edge": {"target": [], "time": []}}}, "displayed_time": "9.14", "trialTime": 10229, "trial_type": "mouselab-mdp", "trial_index": 58, "time_elapsed": 1078680, "internal_node_id": "0.0-4.0-3.0-18.0"}}, {"uniqueid": "w99662994:a90790615", "current_trial": 59, "dateTime": 1664368956771, "trialdata": {"revealed_states": [], "num_clicks_accrued": [0, 0, 0, 0, 0, 0, 0, 0, 0, 0, 0, 0, 0], "stateRewards": ["", -4, 8, 24, -24, 4, 8, -24, -48, 2, 4, 24, -24], "withholdReward": false, "trial_id": "mdp_782187007008", "block": "test2", "trialIndex": 51, "score": 33, "costs": 0, "simulationMode": [null, null, null], "rewards": [-4, 8, 24], "path": ["0", "0", "1", "2", "3"], "rt": [720, 141, 73], "actions": ["up", "up", "right"], "actionTimes": [1812, 2454, 3020], "queries": {"click": {"state": {"target": [], "time": []}, "edge": {"target": [], "time": []}}, "mouseover": {"state": {"target": [], "time": []}, "edge": {"target": [], "time": []}}, "mouseout": {"state": {"target": [], "time": []}, "edge": {"target": [], "time": []}}}, "displayed_time": "10.10", "trialTime": 11114, "trial_type": "mouselab-mdp", "trial_index": 59, "time_elapsed": 1089884, "internal_node_id": "0.0-4.0-3.0-19.0"}}, {"uniqueid": "w99662994:a90790615", "current_trial": 60, "dateTime": 1664368967853, "trialdata": {"revealed_states": [], "num_clicks_accrued": [0, 0, 0, 0, 0, 0, 0, 0, 0, 0, 0, 0, 0], "stateRewards": ["", -4, 8, 24, -24, -2, 4, -24, 48, -2, 8, -48, -24], "withholdReward": true, "trial_id": "mdp_799359103169", "block": "test2", "trialIndex": 52, "score": -15, "costs": 0, "simulationMode": [null, null, null], "rewards": [-4, 8, -24], "path": ["0", "0", "1", "2", "4"], "rt": [762, 240, 292], "actions": ["up", "up", "left"], "actionTimes": [1874, 2612, 3410], "queries": {"click": {"state": {"target": [], "time": []}, "edge": {"target": [], "time": []}}, "mouseover": {"state": {"target": [], "time": []}, "edge": {"target": [], "time": []}}, "mouseout": {"state": {"target": [], "time": []}, "edge": {"target": [], "time": []}}}, "displayed_time": "10.12", "trialTime": 10987, "trial_type": "mouselab-mdp", "trial_index": 60, "time_elapsed": 1100967, "internal_node_id": "0.0-4.0-3.0-20.0"}}, {"uniqueid": "w99662994:a90790615", "current_trial": 61, "dateTime": 1664368978812, "trialdata": {"revealed_states": [], "num_clicks_accrued": [0, 0, 0, 0, 0, 0, 0, 0, 0, 0, 0, 0, 0], "stateRewards": ["", 2, -8, 24, 24, 4, -4, -24, -48, 4, 8, 24, 24], "withholdReward": true, "trial_id": "mdp_249803813713", "block": "test2", "trialIndex": 53, "score": 23, "costs": 0, "simulationMode": [null, null, null], "rewards": [2, -8, 24], "path": ["0", "0", "1", "2", "3"], "rt": [861, 172, 152], "actions": ["up", "up", "right"], "actionTimes": [1820, 2492, 3152], "queries": {"click": {"state": {"target": [], "time": []}, "edge": {"target": [], "time": []}}, "mouseover": {"state": {"target": [], "time": []}, "edge": {"target": [], "time": []}}, "mouseout": {"state": {"target": [], "time": []}, "edge": {"target": [], "time": []}}}, "displayed_time": "9.96", "trialTime": 10859, "trial_type": "mouselab-mdp", "trial_index": 61, "time_elapsed": 1111926, "internal_node_id": "0.0-4.0-3.0-21.0"}}, {"uniqueid": "w99662994:a90790615", "current_trial": 62, "dateTime": 1664368990512, "trialdata": {"revealed_states": [], "num_clicks_accrued": [0, 0, 0, 0, 0, 0, 0, 0, 0, 0, 0, 0, 0], "stateRewards": ["", -4, -4, 24, -24, 4, 4, 24, 48, 4, -4, 48, -48], "withholdReward": false, "trial_id": "mdp_522385334882", "block": "test2", "trialIndex": 54, "score": 53, "costs": 0, "simulationMode": [null, null, null], "rewards": [4, -4, 48], "path": ["0", "0", "9", "10", "11"], "rt": [657, 173, 207], "actions": ["left", "left", "up"], "actionTimes": [2964, 3642, 4345], "queries": {"click": {"state": {"target": [], "time": []}, "edge": {"target": [], "time": []}}, "mouseover": {"state": {"target": [], "time": []}, "edge": {"target": [], "time": []}}, "mouseout": {"state": {"target": ["0"], "time": [1546]}, "edge": {"target": [], "time": []}}}, "displayed_time": "10.32", "trialTime": 11611, "trial_type": "mouselab-mdp", "trial_index": 62, "time_elapsed": 1123626, "internal_node_id": "0.0-4.0-3.0-22.0"}}, {"uniqueid": "w99662994:a90790615", "current_trial": 63, "dateTime": 1664369003425, "trialdata": {"revealed_states": [], "num_clicks_accrued": [0, 0, 0, 0, 0, 0, 0, 0, 0, 0, 0, 0, 0], "stateRewards": ["", -2, 4, 48, -24, 2, 8, 24, 48, 2, 4, -24, -48], "withholdReward": false, "trial_id": "mdp_892412058587", "block": "test2", "trialIndex": 55, "score": -37, "costs": 0, "simulationMode": [null, null, null], "rewards": [2, 4, -48], "path": ["0", "0", "9", "10", "12"], "rt": [689, 311, 549], "actions": ["left", "left", "down"], "actionTimes": [1792, 2594, 3666], "queries": {"click": {"state": {"target": [], "time": []}, "edge": {"target": [], "time": []}}, "mouseover": {"state": {"target": [], "time": []}, "edge": {"target": [], "time": []}}, "mouseout": {"state": {"target": [], "time": []}, "edge": {"target": [], "time": []}}}, "displayed_time": "11.11", "trialTime": 12787, "trial_type": "mouselab-mdp", "trial_index": 63, "time_elapsed": 1136539, "internal_node_id": "0.0-4.0-3.0-23.0"}}, {"uniqueid": "w99662994:a90790615", "current_trial": 64, "dateTime": 1664369015187, "trialdata": {"revealed_states": [], "num_clicks_accrued": [0, 0, 0, 0, 0, 0, 0, 0, 0, 0, 0, 0, 0], "stateRewards": ["", -4, -4, -24, -24, -2, 4, 48, -24, -2, -4, -24, 48], "withholdReward": true, "trial_id": "mdp_855903341564", "block": "test2", "trialIndex": 56, "score": -25, "costs": 0, "simulationMode": [null, null, null], "rewards": [-2, -4, -24], "path": ["0", "0", "9", "10", "11"], "rt": [3181, 182, 176], "actions": ["left", "left", "up"], "actionTimes": [4573, 5257, 5934], "queries": {"click": {"state": {"target": [], "time": []}, "edge": {"target": [], "time": []}}, "mouseover": {"state": {"target": [], "time": []}, "edge": {"target": [], "time": []}}, "mouseout": {"state": {"target": [], "time": []}, "edge": {"target": [], "time": []}}}, "displayed_time": "10.40", "trialTime": 11656, "trial_type": "mouselab-mdp", "trial_index": 64, "time_elapsed": 1148300, "internal_node_id": "0.0-4.0-3.0-24.0"}}, {"uniqueid": "w99662994:a90790615", "current_trial": 65, "dateTime": 1664369025250, "trialdata": {"revealed_states": [], "num_clicks_accrued": [0, 0, 0, 0, 0, 0, 0, 0, 0, 0, 0, 0, 0], "stateRewards": ["", -2, -8, 48, 24, 2, 4, 24, -24, -2, -4, 48, -48], "withholdReward": true, "trial_id": "mdp_411152402386", "block": "test2", "trialIndex": 57, "score": -13, "costs": 0, "simulationMode": [null, null, null], "rewards": [2, 4, -24], "path": ["0", "0", "5", "6", "8"], "rt": [690, 148, 164], "actions": ["right", "right", "down"], "actionTimes": [1525, 2177, 2861], "queries": {"click": {"state": {"target": [], "time": []}, "edge": {"target": [], "time": []}}, "mouseover": {"state": {"target": [], "time": []}, "edge": {"target": [], "time": []}}, "mouseout": {"state": {"target": [], "time": []}, "edge": {"target": [], "time": []}}}, "displayed_time": "8.85", "trialTime": 9957, "trial_type": "mouselab-mdp", "trial_index": 65, "time_elapsed": 1158363, "internal_node_id": "0.0-4.0-3.0-25.0"}}, {"uniqueid": "w99662994:a90790615", "current_trial": 66, "dateTime": 1664369038660, "trialdata": {"revealed_states": [], "num_clicks_accrued": [0, 0, 0, 0, 0, 0, 0, 0, 0, 0, 0, 0, 0], "stateRewards": ["", -2, -8, -48, 24, 2, -4, -48, 48, 2, 4, 24, -24], "withholdReward": true, "trial_id": "mdp_849341543762", "block": "test2", "trialIndex": 58, "score": -45, "costs": 0, "simulationMode": [null, null, null], "rewards": [2, -4, -48], "path": ["0", "0", "5", "6", "7"], "rt": [553, 888, 480], "actions": ["right", "right", "up"], "actionTimes": [2757, 4136, 5110], "queries": {"click": {"state": {"target": [], "time": []}, "edge": {"target": [], "time": []}}, "mouseover": {"state": {"target": [], "time": []}, "edge": {"target": [], "time": []}}, "mouseout": {"state": {"target": ["0"], "time": [1469]}, "edge": {"target": [], "time": []}}}, "displayed_time": "12.21", "trialTime": 13303, "trial_type": "mouselab-mdp", "trial_index": 66, "time_elapsed": 1171773, "internal_node_id": "0.0-4.0-3.0-26.0"}}, {"uniqueid": "w99662994:a90790615", "current_trial": 67, "dateTime": 1664369048663, "trialdata": {"revealed_states": [], "num_clicks_accrued": [0, 0, 0, 0, 0, 0, 0, 0, 0, 0, 0, 0, 0], "stateRewards": ["", 2, 4, 48, 48, -2, 4, 48, -24, -4, 8, -48, 48], "withholdReward": true, "trial_id": "mdp_407586865939", "block": "test2", "trialIndex": 59, "score": 59, "costs": 0, "simulationMode": [null, null, null], "rewards": [2, 4, 48], "path": ["0", "0", "1", "2", "4"], "rt": [771, 155, 193], "actions": ["up", "up", "left"], "actionTimes": [1684, 2333, 3019], "queries": {"click": {"state": {"target": [], "time": []}, "edge": {"target": [], "time": []}}, "mouseover": {"state": {"target": [], "time": []}, "edge": {"target": [], "time": []}}, "mouseout": {"state": {"target": [], "time": []}, "edge": {"target": [], "time": []}}}, "displayed_time": "8.92", "trialTime": 9899, "trial_type": "mouselab-mdp", "trial_index": 67, "time_elapsed": 1181777, "internal_node_id": "0.0-4.0-3.0-27.0"}}, {"uniqueid": "w99662994:a90790615", "current_trial": 68, "dateTime": 1664369059781, "trialdata": {"revealed_states": [], "num_clicks_accrued": [0, 0, 0, 0, 0, 0, 0, 0, 0, 0, 0, 0, 0], "stateRewards": ["", -2, -4, -24, -48, -2, 8, -48, 24, 4, -4, -24, -24], "withholdReward": true, "trial_id": "mdp_915304165774", "block": "test2", "trialIndex": 60, "score": -25, "costs": 0, "simulationMode": [null, null, null], "rewards": [-2, -4, -24], "path": ["0", "0", "1", "2", "3"], "rt": [625, 155, 107], "actions": ["up", "up", "right"], "actionTimes": [1534, 2188, 2792], "queries": {"click": {"state": {"target": [], "time": []}, "edge": {"target": [], "time": []}}, "mouseover": {"state": {"target": [], "time": []}, "edge": {"target": [], "time": []}}, "mouseout": {"state": {"target": [], "time": []}, "edge": {"target": [], "time": []}}}, "displayed_time": "9.92", "trialTime": 11024, "trial_type": "mouselab-mdp", "trial_index": 68, "time_elapsed": 1192894, "internal_node_id": "0.0-4.0-3.0-28.0"}}, {"uniqueid": "w99662994:a90790615", "current_trial": 69, "dateTime": 1664369070374, "trialdata": {"revealed_states": [], "num_clicks_accrued": [0, 0, 0, 0, 0, 0, 0, 0, 0, 0, 0, 0, 0], "stateRewards": ["", 4, -8, 24, 48, 2, -4, 48, 48, 4, -8, 48, 48], "withholdReward": true, "trial_id": "mdp_962498334245", "block": "test2", "trialIndex": 61, "score": 49, "costs": 0, "simulationMode": [null, null, null], "rewards": [4, -8, 48], "path": ["0", "0", "1", "2", "4"], "rt": [700, 116, 537], "actions": ["up", "up", "left"], "actionTimes": [1750, 2363, 3400], "queries": {"click": {"state": {"target": [], "time": []}, "edge": {"target": [], "time": []}}, "mouseover": {"state": {"target": [], "time": []}, "edge": {"target": [], "time": []}}, "mouseout": {"state": {"target": [], "time": []}, "edge": {"target": [], "time": []}}}, "displayed_time": "9.06", "trialTime": 10496, "trial_type": "mouselab-mdp", "trial_index": 69, "time_elapsed": 1203487, "internal_node_id": "0.0-4.0-3.0-29.0"}}, {"uniqueid": "w99662994:a90790615", "current_trial": 70, "dateTime": 1664369076960, "trialdata": {"rt": 6576, "stimulus": "<h1> End of block! </h1>\n\nYou have reached the end of the block 2/4. If you need a short break, feel free to take one now before moving on.\n\n<br><br>\nIn the next block, you will complete another 30 rounds of this game.\n\n<br><br>\n<div style='text-align: center;'>Press <code>space</code> to begin.</div>\n<br><br>\n<div style='text-align: center;'>(If the experiment doesn't continue, try clicking on the text and then pressing <code>space</code>.)</div>", "response": " ", "trial_id": "mdp_ready_3", "trial_type": "html-keyboard-response", "trial_index": 70, "time_elapsed": 1210074, "internal_node_id": "0.0-4.0-4.0"}}, {"uniqueid": "w99662994:a90790615", "current_trial": 71, "dateTime": 1664369087025, "trialdata": {"revealed_states": [], "num_clicks_accrued": [0, 0, 0, 0, 0, 0, 0, 0, 0, 0, 0, 0, 0], "stateRewards": ["", 2, 8, 48, -48, -2, -4, -24, 24, 4, -4, 48, -48], "withholdReward": true, "trial_id": "mdp_105734044587", "block": "test3", "trialIndex": 62, "score": 63, "costs": 0, "simulationMode": [null, null, null], "rewards": [2, 8, 48], "path": ["0", "0", "1", "2", "3"], "rt": [1426, 213, 91], "actions": ["up", "up", "right"], "actionTimes": [2567, 3296, 3910], "queries": {"click": {"state": {"target": [], "time": []}, "edge": {"target": [], "time": []}}, "mouseover": {"state": {"target": [], "time": []}, "edge": {"target": [], "time": []}}, "mouseout": {"state": {"target": [], "time": []}, "edge": {"target": [], "time": []}}}, "displayed_time": "9.15", "trialTime": 9969, "trial_type": "mouselab-mdp", "trial_index": 71, "time_elapsed": 1220139, "internal_node_id": "0.0-4.0-5.0-0.0"}}, {"uniqueid": "w99662994:a90790615", "current_trial": 72, "dateTime": 1664369099699, "trialdata": {"revealed_states": [], "num_clicks_accrued": [0, 0, 0, 0, 0, 0, 0, 0, 0, 0, 0, 0, 0], "stateRewards": ["", 2, -4, -24, -24, -2, -8, -48, 24, -4, -8, 24, 24], "withholdReward": false, "trial_id": "mdp_521351546461", "block": "test3", "trialIndex": 63, "score": -21, "costs": 0, "simulationMode": [null, null, null], "rewards": [2, -4, -24], "path": ["0", "0", "1", "2", "3"], "rt": [906, 215, 861], "actions": ["up", "up", "right"], "actionTimes": [1924, 2639, 3998], "queries": {"click": {"state": {"target": [], "time": []}, "edge": {"target": [], "time": []}}, "mouseover": {"state": {"target": [], "time": []}, "edge": {"target": [], "time": []}}, "mouseout": {"state": {"target": [], "time": []}, "edge": {"target": [], "time": []}}}, "displayed_time": "11.03", "trialTime": 12563, "trial_type": "mouselab-mdp", "trial_index": 72, "time_elapsed": 1232812, "internal_node_id": "0.0-4.0-5.0-1.0"}}, {"uniqueid": "w99662994:a90790615", "current_trial": 73, "dateTime": 1664369110767, "trialdata": {"revealed_states": [], "num_clicks_accrued": [0, 0, 0, 0, 0, 0, 0, 0, 0, 0, 0, 0, 0], "stateRewards": ["", -2, 8, -24, 24, 2, -8, 48, -24, 2, 8, -24, -24], "withholdReward": true, "trial_id": "mdp_674708270444", "block": "test3", "trialIndex": 64, "score": 47, "costs": 0, "simulationMode": [null, null, null], "rewards": [2, -8, 48], "path": ["0", "0", "5", "6", "7"], "rt": [875, 320, 135], "actions": ["right", "right", "up"], "actionTimes": [1905, 2722, 3374], "queries": {"click": {"state": {"target": [], "time": []}, "edge": {"target": [], "time": []}}, "mouseover": {"state": {"target": [], "time": []}, "edge": {"target": [], "time": []}}, "mouseout": {"state": {"target": [], "time": []}, "edge": {"target": [], "time": []}}}, "displayed_time": "10.04", "trialTime": 10962, "trial_type": "mouselab-mdp", "trial_index": 73, "time_elapsed": 1243881, "internal_node_id": "0.0-4.0-5.0-2.0"}}, {"uniqueid": "w99662994:a90790615", "current_trial": 74, "dateTime": 1664369121292, "trialdata": {"revealed_states": [], "num_clicks_accrued": [0, 0, 0, 0, 0, 0, 0, 0, 0, 0, 0, 0, 0], "stateRewards": ["", 2, 4, 48, -48, 2, 4, 24, -24, 2, -4, -24, -48], "withholdReward": true, "trial_id": "mdp_706591889062", "block": "test3", "trialIndex": 65, "score": -37, "costs": 0, "simulationMode": [null, null, null], "rewards": [2, 4, -48], "path": ["0", "0", "1", "2", "4"], "rt": [1131, 58, 104], "actions": ["up", "up", "left"], "actionTimes": [2074, 2634, 3247], "queries": {"click": {"state": {"target": [], "time": []}, "edge": {"target": [], "time": []}}, "mouseover": {"state": {"target": [], "time": []}, "edge": {"target": [], "time": []}}, "mouseout": {"state": {"target": [], "time": []}, "edge": {"target": [], "time": []}}}, "displayed_time": "8.95", "trialTime": 10427, "trial_type": "mouselab-mdp", "trial_index": 74, "time_elapsed": 1254405, "internal_node_id": "0.0-4.0-5.0-3.0"}}, {"uniqueid": "w99662994:a90790615", "current_trial": 75, "dateTime": 1664369131868, "trialdata": {"revealed_states": [], "num_clicks_accrued": [0, 0, 0, 0, 0, 0, 0, 0, 0, 0, 0, 0, 0], "stateRewards": ["", 4, 4, 48, -48, -2, -8, -48, -24, 2, 4, -24, -48], "withholdReward": true, "trial_id": "mdp_239929662917", "block": "test3", "trialIndex": 66, "score": -13, "costs": 0, "simulationMode": [null, null, null], "rewards": [2, 4, -24], "path": ["0", "0", "9", "10", "11"], "rt": [674, 116, 234], "actions": ["left", "left", "up"], "actionTimes": [2128, 2743, 3494], "queries": {"click": {"state": {"target": [], "time": []}, "edge": {"target": [], "time": []}}, "mouseover": {"state": {"target": [], "time": []}, "edge": {"target": [], "time": []}}, "mouseout": {"state": {"target": [], "time": []}, "edge": {"target": [], "time": []}}}, "displayed_time": "9.47", "trialTime": 10434, "trial_type": "mouselab-mdp", "trial_index": 75, "time_elapsed": 1264981, "internal_node_id": "0.0-4.0-5.0-4.0"}}, {"uniqueid": "w99662994:a90790615", "current_trial": 76, "dateTime": 1664369142932, "trialdata": {"revealed_states": [], "num_clicks_accrued": [0, 0, 0, 0, 0, 0, 0, 0, 0, 0, 0, 0, 0], "stateRewards": ["", -2, 4, 24, 48, 2, 4, -48, -48, -2, 8, 48, -24], "withholdReward": false, "trial_id": "mdp_305701202606", "block": "test3", "trialIndex": 67, "score": -13, "costs": 0, "simulationMode": [null, null, null], "rewards": [-2, 8, -24], "path": ["0", "0", "9", "10", "12"], "rt": [551, 508, 303], "actions": ["left", "left", "down"], "actionTimes": [1406, 2403, 3200], "queries": {"click": {"state": {"target": [], "time": []}, "edge": {"target": [], "time": []}}, "mouseover": {"state": {"target": [], "time": []}, "edge": {"target": [], "time": []}}, "mouseout": {"state": {"target": [], "time": []}, "edge": {"target": [], "time": []}}}, "displayed_time": "9.87", "trialTime": 10969, "trial_type": "mouselab-mdp", "trial_index": 76, "time_elapsed": 1276046, "internal_node_id": "0.0-4.0-5.0-5.0"}}, {"uniqueid": "w99662994:a90790615", "current_trial": 77, "dateTime": 1664369153956, "trialdata": {"revealed_states": [], "num_clicks_accrued": [0, 0, 0, 0, 0, 0, 0, 0, 0, 0, 0, 0, 0], "stateRewards": ["", -2, 8, -24, 24, -4, -8, -24, 48, -2, -8, -48, 48], "withholdReward": true, "trial_id": "mdp_238332601315", "block": "test3", "trialIndex": 68, "score": -31, "costs": 0, "simulationMode": [null, null, null], "rewards": [-4, -8, -24], "path": ["0", "0", "5", "6", "7"], "rt": [1129, 358, 240], "actions": ["right", "right", "up"], "actionTimes": [2256, 3112, 3845], "queries": {"click": {"state": {"target": [], "time": []}, "edge": {"target": [], "time": []}}, "mouseover": {"state": {"target": [], "time": []}, "edge": {"target": [], "time": []}}, "mouseout": {"state": {"target": [], "time": []}, "edge": {"target": [], "time": []}}}, "displayed_time": "10.14", "trialTime": 10932, "trial_type": "mouselab-mdp", "trial_index": 77, "time_elapsed": 1287070, "internal_node_id": "0.0-4.0-5.0-6.0"}}, {"uniqueid": "w99662994:a90790615", "current_trial": 78, "dateTime": 1664369165204, "trialdata": {"revealed_states": [], "num_clicks_accrued": [0, 0, 0, 0, 0, 0, 0, 0, 0, 0, 0, 0, 0], "stateRewards": ["", -2, -8, -24, 24, -2, -8, -48, 24, -2, -8, 24, 24], "withholdReward": true, "trial_id": "mdp_336617436097", "block": "test3", "trialIndex": 69, "score": -29, "costs": 0, "simulationMode": [null, null, null], "rewards": [-2, -8, -24], "path": ["0", "0", "1", "2", "3"], "rt": [997, 237, 49], "actions": ["up", "up", "right"], "actionTimes": [2006, 2738, 3284], "queries": {"click": {"state": {"target": [], "time": []}, "edge": {"target": [], "time": []}}, "mouseover": {"state": {"target": [], "time": []}, "edge": {"target": [], "time": []}}, "mouseout": {"state": {"target": [], "time": []}, "edge": {"target": [], "time": []}}}, "displayed_time": "10.01", "trialTime": 11144, "trial_type": "mouselab-mdp", "trial_index": 78, "time_elapsed": 1298318, "internal_node_id": "0.0-4.0-5.0-7.0"}}, {"uniqueid": "w99662994:a90790615", "current_trial": 79, "dateTime": 1664369176152, "trialdata": {"revealed_states": [], "num_clicks_accrued": [0, 0, 0, 0, 0, 0, 0, 0, 0, 0, 0, 0, 0], "stateRewards": ["", 2, -4, 48, -48, -2, 8, -48, 24, -2, -8, 48, 48], "withholdReward": true, "trial_id": "mdp_949326095747", "block": "test3", "trialIndex": 70, "score": -45, "costs": 0, "simulationMode": [null, null, null], "rewards": [2, -4, -48], "path": ["0", "0", "1", "2", "4"], "rt": [1229, 227, 75], "actions": ["up", "up", "left"], "actionTimes": [2376, 3100, 3681], "queries": {"click": {"state": {"target": [], "time": []}, "edge": {"target": [], "time": []}}, "mouseover": {"state": {"target": [], "time": []}, "edge": {"target": [], "time": []}}, "mouseout": {"state": {"target": [], "time": []}, "edge": {"target": [], "time": []}}}, "displayed_time": "10.16", "trialTime": 10846, "trial_type": "mouselab-mdp", "trial_index": 79, "time_elapsed": 1309265, "internal_node_id": "0.0-4.0-5.0-8.0"}}, {"uniqueid": "w99662994:a90790615", "current_trial": 80, "dateTime": 1664369186273, "trialdata": {"revealed_states": [], "num_clicks_accrued": [0, 0, 0, 0, 0, 0, 0, 0, 0, 0, 0, 0, 0], "stateRewards": ["", 2, 4, -48, -24, 2, 8, 24, 48, -2, 4, 48, -48], "withholdReward": true, "trial_id": "mdp_551894842204", "block": "test3", "trialIndex": 71, "score": -13, "costs": 0, "simulationMode": [null, null, null], "rewards": [2, 4, -24], "path": ["0", "0", "1", "2", "4"], "rt": [683, 240, 400], "actions": ["up", "up", "left"], "actionTimes": [1622, 2358, 3252], "queries": {"click": {"state": {"target": [], "time": []}, "edge": {"target": [], "time": []}}, "mouseover": {"state": {"target": [], "time": []}, "edge": {"target": [], "time": []}}, "mouseout": {"state": {"target": [], "time": []}, "edge": {"target": [], "time": []}}}, "displayed_time": "8.95", "trialTime": 10013, "trial_type": "mouselab-mdp", "trial_index": 80, "time_elapsed": 1319387, "internal_node_id": "0.0-4.0-5.0-9.0"}}, {"uniqueid": "w99662994:a90790615", "current_trial": 81, "dateTime": 1664369197047, "trialdata": {"revealed_states": [], "num_clicks_accrued": [0, 0, 0, 0, 0, 0, 0, 0, 0, 0, 0, 0, 0], "stateRewards": ["", 2, 4, -24, -48, 4, -4, 24, 48, -4, -4, -24, 48], "withholdReward": true, "trial_id": "mdp_181958792175", "block": "test3", "trialIndex": 72, "score": -13, "costs": 0, "simulationMode": [null, null, null], "rewards": [2, 4, -24], "path": ["0", "0", "1", "2", "3"], "rt": [887, 228, 112], "actions": ["up", "up", "right"], "actionTimes": [1760, 2496, 3130], "queries": {"click": {"state": {"target": [], "time": []}, "edge": {"target": [], "time": []}}, "mouseover": {"state": {"target": [], "time": []}, "edge": {"target": [], "time": []}}, "mouseout": {"state": {"target": [], "time": []}, "edge": {"target": [], "time": []}}}, "displayed_time": "9.88", "trialTime": 10670, "trial_type": "mouselab-mdp", "trial_index": 81, "time_elapsed": 1330161, "internal_node_id": "0.0-4.0-5.0-10.0"}}, {"uniqueid": "w99662994:a90790615", "current_trial": 82, "dateTime": 1664369206898, "trialdata": {"revealed_states": [], "num_clicks_accrued": [0, 0, 0, 0, 0, 0, 0, 0, 0, 0, 0, 0, 0], "stateRewards": ["", -2, -8, 24, -48, 4, 4, -24, -48, -2, -8, -48, 24], "withholdReward": true, "trial_id": "mdp_556006673466", "block": "test3", "trialIndex": 73, "score": -35, "costs": 0, "simulationMode": [null, null, null], "rewards": [4, 4, -48], "path": ["0", "0", "5", "6", "8"], "rt": [582, 209, 198], "actions": ["right", "right", "down"], "actionTimes": [1554, 2261, 2997], "queries": {"click": {"state": {"target": [], "time": []}, "edge": {"target": [], "time": []}}, "mouseover": {"state": {"target": [], "time": []}, "edge": {"target": [], "time": []}}, "mouseout": {"state": {"target": [], "time": []}, "edge": {"target": [], "time": []}}}, "displayed_time": "8.97", "trialTime": 9754, "trial_type": "mouselab-mdp", "trial_index": 82, "time_elapsed": 1340012, "internal_node_id": "0.0-4.0-5.0-11.0"}}, {"uniqueid": "w99662994:a90790615", "current_trial": 83, "dateTime": 1664369218002, "trialdata": {"revealed_states": [], "num_clicks_accrued": [0, 0, 0, 0, 0, 0, 0, 0, 0, 0, 0, 0, 0], "stateRewards": ["", -2, 8, 24, -48, -4, -8, -24, -48, -4, 8, -24, 48], "withholdReward": true, "trial_id": "mdp_464339499860", "block": "test3", "trialIndex": 74, "score": 35, "costs": 0, "simulationMode": [null, null, null], "rewards": [-2, 8, 24], "path": ["0", "0", "1", "2", "3"], "rt": [673, 130, 37], "actions": ["up", "up", "right"], "actionTimes": [1501, 2130, 2688], "queries": {"click": {"state": {"target": [], "time": []}, "edge": {"target": [], "time": []}}, "mouseover": {"state": {"target": [], "time": []}, "edge": {"target": [], "time": []}}, "mouseout": {"state": {"target": [], "time": []}, "edge": {"target": [], "time": []}}}, "displayed_time": "9.84", "trialTime": 10991, "trial_type": "mouselab-mdp", "trial_index": 83, "time_elapsed": 1351116, "internal_node_id": "0.0-4.0-5.0-12.0"}}, {"uniqueid": "w99662994:a90790615", "current_trial": 84, "dateTime": 1664369229470, "trialdata": {"revealed_states": [], "num_clicks_accrued": [0, 0, 0, 0, 0, 0, 0, 0, 0, 0, 0, 0, 0], "stateRewards": ["", 2, -4, -24, -48, -2, 8, -24, 48, -2, 8, 24, -48], "withholdReward": true, "trial_id": "mdp_566582551557", "block": "test3", "trialIndex": 75, "score": -13, "costs": 0, "simulationMode": [null, null, null], "rewards": [-2, 8, -24], "path": ["0", "0", "5", "6", "7"], "rt": [774, 65, 88], "actions": ["right", "right", "up"], "actionTimes": [2640, 3200, 3789], "queries": {"click": {"state": {"target": [], "time": []}, "edge": {"target": [], "time": []}}, "mouseover": {"state": {"target": [], "time": []}, "edge": {"target": [], "time": []}}, "mouseout": {"state": {"target": [], "time": []}, "edge": {"target": [], "time": []}}}, "displayed_time": "10.87", "trialTime": 11359, "trial_type": "mouselab-mdp", "trial_index": 84, "time_elapsed": 1362584, "internal_node_id": "0.0-4.0-5.0-13.0"}}, {"uniqueid": "w99662994:a90790615", "current_trial": 85, "dateTime": 1664369241051, "trialdata": {"revealed_states": [], "num_clicks_accrued": [0, 0, 0, 0, 0, 0, 0, 0, 0, 0, 0, 0, 0], "stateRewards": ["", 2, -8, -24, 48, 4, -8, -24, -24, 2, 8, -24, 24], "withholdReward": false, "trial_id": "mdp_480787552818", "block": "test3", "trialIndex": 76, "score": -9, "costs": 0, "simulationMode": [null, null, null], "rewards": [2, 8, -24], "path": ["0", "0", "9", "10", "11"], "rt": [675, 377, 420], "actions": ["left", "left", "up"], "actionTimes": [1821, 2692, 3604], "queries": {"click": {"state": {"target": [], "time": []}, "edge": {"target": [], "time": []}}, "mouseover": {"state": {"target": [], "time": []}, "edge": {"target": [], "time": []}}, "mouseout": {"state": {"target": [], "time": []}, "edge": {"target": [], "time": []}}}, "displayed_time": "10.16", "trialTime": 11471, "trial_type": "mouselab-mdp", "trial_index": 85, "time_elapsed": 1374165, "internal_node_id": "0.0-4.0-5.0-14.0"}}, {"uniqueid": "w99662994:a90790615", "current_trial": 86, "dateTime": 1664369253956, "trialdata": {"revealed_states": [], "num_clicks_accrued": [0, 0, 0, 0, 0, 0, 0, 0, 0, 0, 0, 0, 0], "stateRewards": ["", 2, -4, 24, 24, 2, 4, 24, 24, -4, 8, 24, 48], "withholdReward": false, "trial_id": "mdp_268430387178", "block": "test3", "trialIndex": 77, "score": 57, "costs": 0, "simulationMode": [null, null, null], "rewards": [-4, 8, 48], "path": ["0", "0", "9", "10", "12"], "rt": [781, 417, 371], "actions": ["left", "left", "down"], "actionTimes": [2347, 3257, 4130], "queries": {"click": {"state": {"target": [], "time": []}, "edge": {"target": [], "time": []}}, "mouseover": {"state": {"target": [], "time": []}, "edge": {"target": [], "time": []}}, "mouseout": {"state": {"target": [], "time": []}, "edge": {"target": [], "time": []}}}, "displayed_time": "11.58", "trialTime": 12800, "trial_type": "mouselab-mdp", "trial_index": 86, "time_elapsed": 1387069, "internal_node_id": "0.0-4.0-5.0-15.0"}}, {"uniqueid": "w99662994:a90790615", "current_trial": 87, "dateTime": 1664369265199, "trialdata": {"revealed_states": [], "num_clicks_accrued": [0, 0, 0, 0, 0, 0, 0, 0, 0, 0, 0, 0, 0], "stateRewards": ["", 4, 4, -48, -24, -2, -4, 48, 24, -4, 4, 24, -48], "withholdReward": true, "trial_id": "mdp_617383046444", "block": "test3", "trialIndex": 78, "score": -43, "costs": 0, "simulationMode": [null, null, null], "rewards": [-4, 4, -48], "path": ["0", "0", "9", "10", "12"], "rt": [700, 357, 394], "actions": ["left", "left", "down"], "actionTimes": [1856, 2711, 3596], "queries": {"click": {"state": {"target": [], "time": []}, "edge": {"target": [], "time": []}}, "mouseover": {"state": {"target": [], "time": []}, "edge": {"target": [], "time": []}}, "mouseout": {"state": {"target": [], "time": []}, "edge": {"target": [], "time": []}}}, "displayed_time": "10.17", "trialTime": 11137, "trial_type": "mouselab-mdp", "trial_index": 87, "time_elapsed": 1398313, "internal_node_id": "0.0-4.0-5.0-16.0"}}, {"uniqueid": "w99662994:a90790615", "current_trial": 88, "dateTime": 1664369279353, "trialdata": {"revealed_states": [], "num_clicks_accrued": [0, 0, 0, 0, 0, 0, 0, 0, 0, 0, 0, 0, 0], "stateRewards": ["", 2, -4, -48, -48, -2, -4, -24, -48, -2, 8, 24, 24], "withholdReward": true, "trial_id": "mdp_656069446729", "block": "test3", "trialIndex": 79, "score": 35, "costs": 0, "simulationMode": [null, null, null], "rewards": [-2, 8, 24], "path": ["0", "0", "9", "10", "11"], "rt": [1738, 1281, 313], "actions": ["left", "left", "up"], "actionTimes": [5708, 7495, 8311], "queries": {"click": {"state": {"target": [], "time": []}, "edge": {"target": [], "time": []}}, "mouseover": {"state": {"target": [], "time": []}, "edge": {"target": [], "time": []}}, "mouseout": {"state": {"target": [], "time": []}, "edge": {"target": [], "time": []}}}, "displayed_time": "12.98", "trialTime": 14035, "trial_type": "mouselab-mdp", "trial_index": 88, "time_elapsed": 1412467, "internal_node_id": "0.0-4.0-5.0-17.0"}}, {"uniqueid": "w99662994:a90790615", "current_trial": 89, "dateTime": 1664369290099, "trialdata": {"revealed_states": [], "num_clicks_accrued": [0, 0, 0, 0, 0, 0, 0, 0, 0, 0, 0, 0, 0], "stateRewards": ["", 4, -8, -24, 24, 2, -4, 24, 24, 2, -4, 48, 48], "withholdReward": true, "trial_id": "mdp_457607480918", "block": "test3", "trialIndex": 80, "score": 27, "costs": 0, "simulationMode": [null, null, null], "rewards": [2, -4, 24], "path": ["0", "0", "5", "6", "8"], "rt": [686, 357, 392], "actions": ["right", "right", "down"], "actionTimes": [1661, 2517, 3420], "queries": {"click": {"state": {"target": [], "time": []}, "edge": {"target": [], "time": []}}, "mouseover": {"state": {"target": [], "time": []}, "edge": {"target": [], "time": []}}, "mouseout": {"state": {"target": [], "time": []}, "edge": {"target": [], "time": []}}}, "displayed_time": "9.98", "trialTime": 10642, "trial_type": "mouselab-mdp", "trial_index": 89, "time_elapsed": 1423212, "internal_node_id": "0.0-4.0-5.0-18.0"}}, {"uniqueid": "w99662994:a90790615", "current_trial": 90, "dateTime": 1664369301223, "trialdata": {"revealed_states": [], "num_clicks_accrued": [0, 0, 0, 0, 0, 0, 0, 0, 0, 0, 0, 0, 0], "stateRewards": ["", 4, 4, -24, -48, -4, 4, -48, 24, 4, -8, -48, 48], "withholdReward": true, "trial_id": "mdp_566768794366", "block": "test3", "trialIndex": 81, "score": -35, "costs": 0, "simulationMode": [null, null, null], "rewards": [4, 4, -48], "path": ["0", "0", "1", "2", "4"], "rt": [701, 164, 377], "actions": ["up", "up", "left"], "actionTimes": [1652, 2313, 3210], "queries": {"click": {"state": {"target": [], "time": []}, "edge": {"target": [], "time": []}}, "mouseover": {"state": {"target": [], "time": []}, "edge": {"target": [], "time": []}}, "mouseout": {"state": {"target": [], "time": []}, "edge": {"target": [], "time": []}}}, "displayed_time": "8.96", "trialTime": 11021, "trial_type": "mouselab-mdp", "trial_index": 90, "time_elapsed": 1434337, "internal_node_id": "0.0-4.0-5.0-19.0"}}, {"uniqueid": "w99662994:a90790615", "current_trial": 91, "dateTime": 1664369313687, "trialdata": {"revealed_states": [], "num_clicks_accrued": [0, 0, 0, 0, 0, 0, 0, 0, 0, 0, 0, 0, 0], "stateRewards": ["", -2, -4, -24, 48, -4, 8, 48, 48, 2, 8, -48, -24], "withholdReward": true, "trial_id": "mdp_136376573354", "block": "test3", "trialIndex": 82, "score": -25, "costs": 0, "simulationMode": [null, null, null], "rewards": [-2, -4, -24], "path": ["0", "0", "1", "2", "3"], "rt": [4494, 344, 424], "actions": ["up", "up", "right"], "actionTimes": [8897, 9748, 10677], "queries": {"click": {"state": {"target": [], "time": []}, "edge": {"target": [], "time": []}}, "mouseover": {"state": {"target": [], "time": []}, "edge": {"target": [], "time": []}}, "mouseout": {"state": {"target": [], "time": []}, "edge": {"target": [], "time": []}}}, "displayed_time": "11.42", "trialTime": 12356, "trial_type": "mouselab-mdp", "trial_index": 91, "time_elapsed": 1446800, "internal_node_id": "0.0-4.0-5.0-20.0"}}, {"uniqueid": "w99662994:a90790615", "current_trial": 92, "dateTime": 1664369325901, "trialdata": {"revealed_states": [], "num_clicks_accrued": [0, 0, 0, 0, 0, 0, 0, 0, 0, 0, 0, 0, 0], "stateRewards": ["", -2, 4, -24, 24, -4, -8, 24, -48, -4, -4, -48, -24], "withholdReward": true, "trial_id": "mdp_753137520419", "block": "test3", "trialIndex": 83, "score": -55, "costs": 0, "simulationMode": [null, null, null], "rewards": [-4, -8, -48], "path": ["0", "0", "5", "6", "8"], "rt": [967, 179, 216], "actions": ["right", "right", "down"], "actionTimes": [2097, 2799, 3536], "queries": {"click": {"state": {"target": [], "time": []}, "edge": {"target": [], "time": []}}, "mouseover": {"state": {"target": [], "time": []}, "edge": {"target": [], "time": []}}, "mouseout": {"state": {"target": [], "time": []}, "edge": {"target": [], "time": []}}}, "displayed_time": "10.14", "trialTime": 12086, "trial_type": "mouselab-mdp", "trial_index": 92, "time_elapsed": 1459014, "internal_node_id": "0.0-4.0-5.0-21.0"}}, {"uniqueid": "w99662994:a90790615", "current_trial": 93, "dateTime": 1664369337229, "trialdata": {"revealed_states": [], "num_clicks_accrued": [0, 0, 0, 0, 0, 0, 0, 0, 0, 0, 0, 0, 0], "stateRewards": ["", 2, 4, 48, 48, -2, 4, 48, -24, -4, 8, -48, 48], "withholdReward": true, "trial_id": "mdp_407586865939", "block": "test3", "trialIndex": 84, "score": 55, "costs": 0, "simulationMode": [null, null, null], "rewards": [-2, 4, 48], "path": ["0", "0", "5", "6", "7"], "rt": [896, 172, 89], "actions": ["right", "right", "up"], "actionTimes": [2166, 2838, 3439], "queries": {"click": {"state": {"target": [], "time": []}, "edge": {"target": [], "time": []}}, "mouseover": {"state": {"target": [], "time": []}, "edge": {"target": [], "time": []}}, "mouseout": {"state": {"target": [], "time": []}, "edge": {"target": [], "time": []}}}, "displayed_time": "10.28", "trialTime": 11226, "trial_type": "mouselab-mdp", "trial_index": 93, "time_elapsed": 1470342, "internal_node_id": "0.0-4.0-5.0-22.0"}}, {"uniqueid": "w99662994:a90790615", "current_trial": 94, "dateTime": 1664369349433, "trialdata": {"revealed_states": [], "num_clicks_accrued": [0, 0, 0, 0, 0, 0, 0, 0, 0, 0, 0, 0, 0], "stateRewards": ["", 2, 4, 48, 24, -4, 8, 48, 48, 2, -4, -48, -24], "withholdReward": true, "trial_id": "mdp_822099887466", "block": "test3", "trialIndex": 85, "score": 57, "costs": 0, "simulationMode": [null, null, null], "rewards": [-4, 8, 48], "path": ["0", "0", "5", "6", "7"], "rt": [1894, 377, 383], "actions": ["right", "right", "up"], "actionTimes": [3026, 3897, 4785], "queries": {"click": {"state": {"target": [], "time": []}, "edge": {"target": [], "time": []}}, "mouseover": {"state": {"target": [], "time": []}, "edge": {"target": [], "time": []}}, "mouseout": {"state": {"target": [], "time": []}, "edge": {"target": [], "time": []}}}, "displayed_time": "11.14", "trialTime": 12100, "trial_type": "mouselab-mdp", "trial_index": 94, "time_elapsed": 1482547, "internal_node_id": "0.0-4.0-5.0-23.0"}}, {"uniqueid": "w99662994:a90790615", "current_trial": 95, "dateTime": 1664369362101, "trialdata": {"revealed_states": [], "num_clicks_accrued": [0, 0, 0, 0, 0, 0, 0, 0, 0, 0, 0, 0, 0], "stateRewards": ["", 4, -8, -48, 48, -2, 8, -48, 48, -2, -4, 24, -48], "withholdReward": false, "trial_id": "mdp_400558136089", "block": "test3", "trialIndex": 86, "score": -49, "costs": 0, "simulationMode": [null, null, null], "rewards": [-2, -4, -48], "path": ["0", "0", "9", "10", "12"], "rt": [1231, 126, 649], "actions": ["left", "left", "down"], "actionTimes": [4590, 5221, 6361], "queries": {"click": {"state": {"target": [], "time": []}, "edge": {"target": [], "time": []}}, "mouseover": {"state": {"target": [], "time": []}, "edge": {"target": [], "time": []}}, "mouseout": {"state": {"target": [], "time": []}, "edge": {"target": [], "time": []}}}, "displayed_time": "11.37", "trialTime": 12560, "trial_type": "mouselab-mdp", "trial_index": 95, "time_elapsed": 1495214, "internal_node_id": "0.0-4.0-5.0-24.0"}}, {"uniqueid": "w99662994:a90790615", "current_trial": 96, "dateTime": 1664369373399, "trialdata": {"revealed_states": [], "num_clicks_accrued": [0, 0, 0, 0, 0, 0, 0, 0, 0, 0, 0, 0, 0], "stateRewards": ["", -4, -8, -24, -48, -2, -8, 24, -48, -4, -8, 24, -48], "withholdReward": false, "trial_id": "mdp_621812384092", "block": "test3", "trialIndex": 87, "score": 17, "costs": 0, "simulationMode": [null, null, null], "rewards": [-4, -8, 24], "path": ["0", "0", "9", "10", "11"], "rt": [704, 142, 98], "actions": ["left", "left", "up"], "actionTimes": [1762, 2419, 3012], "queries": {"click": {"state": {"target": [], "time": []}, "edge": {"target": [], "time": []}}, "mouseover": {"state": {"target": [], "time": []}, "edge": {"target": [], "time": []}}, "mouseout": {"state": {"target": [], "time": []}, "edge": {"target": [], "time": []}}}, "displayed_time": "10.06", "trialTime": 11191, "trial_type": "mouselab-mdp", "trial_index": 96, "time_elapsed": 1506513, "internal_node_id": "0.0-4.0-5.0-25.0"}}, {"uniqueid": "w99662994:a90790615", "current_trial": 97, "dateTime": 1664369384421, "trialdata": {"revealed_states": [], "num_clicks_accrued": [0, 0, 0, 0, 0, 0, 0, 0, 0, 0, 0, 0, 0], "stateRewards": ["", 2, 8, 48, -24, -4, 4, 48, 24, -2, 8, 24, 24], "withholdReward": true, "trial_id": "mdp_123436106791", "block": "test3", "trialIndex": 88, "score": 35, "costs": 0, "simulationMode": [null, null, null], "rewards": [-2, 8, 24], "path": ["0", "0", "9", "10", "11"], "rt": [594, 145, 127], "actions": ["left", "left", "up"], "actionTimes": [1518, 2163, 2780], "queries": {"click": {"state": {"target": [], "time": []}, "edge": {"target": [], "time": []}}, "mouseover": {"state": {"target": [], "time": []}, "edge": {"target": [], "time": []}}, "mouseout": {"state": {"target": [], "time": []}, "edge": {"target": [], "time": []}}}, "displayed_time": "9.93", "trialTime": 10870, "trial_type": "mouselab-mdp", "trial_index": 97, "time_elapsed": 1517535, "internal_node_id": "0.0-4.0-5.0-26.0"}}, {"uniqueid": "w99662994:a90790615", "current_trial": 98, "dateTime": 1664369393621, "trialdata": {"revealed_states": [], "num_clicks_accrued": [0, 0, 0, 0, 0, 0, 0, 0, 0, 0, 0, 0, 0], "stateRewards": ["", 2, 4, 48, -48, 2, 8, -24, 48, 4, 8, 48, -48], "withholdReward": true, "trial_id": "mdp_110142964375", "block": "test3", "trialIndex": 89, "score": -9, "costs": 0, "simulationMode": [null, null, null], "rewards": [2, 8, -24], "path": ["0", "0", "5", "6", "7"], "rt": [1400, 411, 271], "actions": ["right", "right", "up"], "actionTimes": [2674, 3597, 4366], "queries": {"click": {"state": {"target": [], "time": []}, "edge": {"target": [], "time": []}}, "mouseover": {"state": {"target": [], "time": []}, "edge": {"target": [], "time": []}}, "mouseout": {"state": {"target": [], "time": []}, "edge": {"target": [], "time": []}}}, "displayed_time": "8.28", "trialTime": 9077, "trial_type": "mouselab-mdp", "trial_index": 98, "time_elapsed": 1526734, "internal_node_id": "0.0-4.0-5.0-27.0"}}, {"uniqueid": "w99662994:a90790615", "current_trial": 99, "dateTime": 1664369405054, "trialdata": {"revealed_states": [], "num_clicks_accrued": [0, 0, 0, 0, 0, 0, 0, 0, 0, 0, 0, 0, 0], "stateRewards": ["", -4, -4, -24, 24, -4, 4, -24, 48, -2, 4, 48, -48], "withholdReward": true, "trial_id": "mdp_774757609669", "block": "test3", "trialIndex": 90, "score": 21, "costs": 0, "simulationMode": [null, null, null], "rewards": [-4, -4, 24], "path": ["0", "0", "1", "2", "4"], "rt": [767, 263, 400], "actions": ["up", "up", "left"], "actionTimes": [1684, 2464, 3360], "queries": {"click": {"state": {"target": [], "time": []}, "edge": {"target": [], "time": []}}, "mouseover": {"state": {"target": [], "time": []}, "edge": {"target": [], "time": []}}, "mouseout": {"state": {"target": [], "time": []}, "edge": {"target": [], "time": []}}}, "displayed_time": "9.93", "trialTime": 11308, "trial_type": "mouselab-mdp", "trial_index": 99, "time_elapsed": 1538168, "internal_node_id": "0.0-4.0-5.0-28.0"}}, {"uniqueid": "w99662994:a90790615", "current_trial": 100, "dateTime": 1664369416663, "trialdata": {"revealed_states": [], "num_clicks_accrued": [0, 0, 0, 0, 0, 0, 0, 0, 0, 0, 0, 0, 0], "stateRewards": ["", 4, 4, 24, -48, 2, -8, -24, -48, 4, 8, 48, 48], "withholdReward": false, "trial_id": "mdp_592471239511", "block": "test3", "trialIndex": 91, "score": 37, "costs": 0, "simulationMode": [null, null, null], "rewards": [4, 4, 24], "path": ["0", "0", "1", "2", "3"], "rt": [980, 28, 41], "actions": ["up", "up", "right"], "actionTimes": [2246, 2772, 3318], "queries": {"click": {"state": {"target": [], "time": []}, "edge": {"target": [], "time": []}}, "mouseover": {"state": {"target": [], "time": []}, "edge": {"target": [], "time": []}}, "mouseout": {"state": {"target": [], "time": []}, "edge": {"target": [], "time": []}}}, "displayed_time": "10.27", "trialTime": 11501, "trial_type": "mouselab-mdp", "trial_index": 100, "time_elapsed": 1549777, "internal_node_id": "0.0-4.0-5.0-29.0"}}, {"uniqueid": "w99662994:a90790615", "current_trial": 101, "dateTime": 1664369421182, "trialdata": {"rt": 4505, "stimulus": "<h1> End of block! </h1>\n\nYou have reached the end of the block 3/4. If you need a short break, feel free to take one now before moving on.\n\n<br><br>\nIn the next block, you will complete another 30 rounds of this game.\n\n<br><br>\n<div style='text-align: center;'>Press <code>space</code> to begin.</div>\n<br><br>\n<div style='text-align: center;'>(If the experiment doesn't continue, try clicking on the text and then pressing <code>space</code>.)</div>", "response": " ", "trial_id": "mdp_ready_4", "trial_type": "html-keyboard-response", "trial_index": 101, "time_elapsed": 1554295, "internal_node_id": "0.0-4.0-6.0"}}, {"uniqueid": "w99662994:a90790615", "current_trial": 102, "dateTime": 1664369432291, "trialdata": {"revealed_states": [], "num_clicks_accrued": [0, 0, 0, 0, 0, 0, 0, 0, 0, 0, 0, 0, 0], "stateRewards": ["", 2, 4, -48, 48, -4, 8, -48, -24, -4, -4, 48, 48], "withholdReward": true, "trial_id": "mdp_613582696541", "block": "test4", "trialIndex": 92, "score": -39, "costs": 0, "simulationMode": [null, null, null], "rewards": [-4, 8, -48], "path": ["0", "0", "5", "6", "7"], "rt": [952, 240, 176], "actions": ["right", "right", "up"], "actionTimes": [1946, 2687, 3374], "queries": {"click": {"state": {"target": [], "time": []}, "edge": {"target": [], "time": []}}, "mouseover": {"state": {"target": [], "time": []}, "edge": {"target": [], "time": []}}, "mouseout": {"state": {"target": [], "time": []}, "edge": {"target": [], "time": []}}}, "displayed_time": "10.01", "trialTime": 11001, "trial_type": "mouselab-mdp", "trial_index": 102, "time_elapsed": 1565404, "internal_node_id": "0.0-4.0-7.0-0.0"}}, {"uniqueid": "w99662994:a90790615", "current_trial": 103, "dateTime": 1664369443299, "trialdata": {"revealed_states": [], "num_clicks_accrued": [0, 0, 0, 0, 0, 0, 0, 0, 0, 0, 0, 0, 0], "stateRewards": ["", -2, -8, 24, -48, -4, 8, -48, -24, 4, 8, -24, 24], "withholdReward": false, "trial_id": "mdp_940444641142", "block": "test4", "trialIndex": 93, "score": -15, "costs": 0, "simulationMode": [null, null, null], "rewards": [-4, 8, -24], "path": ["0", "0", "5", "6", "8"], "rt": [607, 180, 148], "actions": ["right", "right", "down"], "actionTimes": [1554, 2233, 2883], "queries": {"click": {"state": {"target": [], "time": []}, "edge": {"target": [], "time": []}}, "mouseover": {"state": {"target": [], "time": []}, "edge": {"target": [], "time": []}}, "mouseout": {"state": {"target": [], "time": []}, "edge": {"target": [], "time": []}}}, "displayed_time": "9.95", "trialTime": 10895, "trial_type": "mouselab-mdp", "trial_index": 103, "time_elapsed": 1576412, "internal_node_id": "0.0-4.0-7.0-1.0"}}, {"uniqueid": "w99662994:a90790615", "current_trial": 104, "dateTime": 1664369454268, "trialdata": {"revealed_s