{"condition": 0, "counterbalance": 0, "assignmentId": "a93852479", "workerId": "w30890258", "hitId": "h61139721", "currenttrial": 965, "bonus": 0, "data": [{"uniqueid": "w30890258:a93852479", "current_trial": 0, "dateTime": 1664367820200, "trialdata": {"success": true, "trial_type": "fullscreen", "trial_index": 0, "time_elapsed": 4058, "internal_node_id": "0.0-0.0"}}, {"uniqueid": "w30890258:a93852479", "current_trial": 1, "dateTime": 1664367849477, "trialdata": {"view_history": [{"page_index": 0, "viewing_time": 29274}], "rt": 29275, "trial_id": "exp_instructions_distractor", "trial_type": "instructions", "trial_index": 1, "time_elapsed": 33336, "internal_node_id": "0.0-1.0"}}, {"uniqueid": "w30890258:a93852479", "current_trial": 2, "dateTime": 1664367879784, "trialdata": {"view_history": [{"page_index": 0, "viewing_time": 30305}], "rt": 30306, "trial_id": "color_game_instructions", "trial_type": "instructions", "trial_index": 2, "time_elapsed": 63643, "internal_node_id": "0.0-2.0"}}, {"uniqueid": "w30890258:a93852479", "current_trial": 3, "dateTime": 1664367892824, "trialdata": {"rt": 13039, "stimulus": "<h1> Get ready to start the game! </h1>\n\nThank you for reading the instructions. Get ready start with the first of 5 block(s) of this game.\n<br><br>\nIn this first block, you will complete 90 rounds of this game before moving on.\n<br><br>\nRemember, the better you perform, the bigger your bonus will be!\n<br><br>\n<div style='text-align: center;'>Press <code>space</code> to begin.</div>", "response": " ", "trial_id": "stroop_1_ready_1", "trial_type": "html-keyboard-response", "trial_index": 3, "time_elapsed": 76683, "internal_node_id": "0.0-3.0"}}, {"uniqueid": "w30890258:a93852479", "current_trial": 4, "dateTime": 1664367894048, "trialdata": {"rt": 1219, "stimulus": "<p id='stroop-text' class='stroop-yellow'>RED</p>", "response": "y", "stimulus-type": "incongruent", "word": "red", "color": "yellow", "correct_response": "y", "trial_id": "stroop-trial-1-incongruent-15", "trial_type": "html-keyboard-response", "trial_index": 4, "time_elapsed": 77906, "internal_node_id": "0.0-4.0-0.0"}}, {"uniqueid": "w30890258:a93852479", "current_trial": 5, "dateTime": 1664367895560, "trialdata": {"rt": 1011, "stimulus": "<p id='stroop-text' class='stroop-blue'>BLUE</p>", "response": "b", "stimulus-type": "congruent", "word": "blue", "color": "blue", "correct_response": "b", "trial_id": "stroop-trial-1-congruent-5", "trial_type": "html-keyboard-response", "trial_index": 5, "time_elapsed": 79418, "internal_node_id": "0.0-4.0-1.0"}}, {"uniqueid": "w30890258:a93852479", "current_trial": 6, "dateTime": 1664367896992, "trialdata": {"rt": 931, "stimulus": "<p id='stroop-text' class='stroop-blue'>YELLOW</p>", "response": "y", "stimulus-type": "incongruent", "word": "yellow", "color": "blue", "correct_response": "b", "trial_id": "stroop-trial-1-incongruent-11", "trial_type": "html-keyboard-response", "trial_index": 6, "time_elapsed": 80851, "internal_node_id": "0.0-4.0-2.0"}}, {"uniqueid": "w30890258:a93852479", "current_trial": 7, "dateTime": 1664367898816, "trialdata": {"rt": 1322, "stimulus": "<p id='stroop-text' class='stroop-blue'>RED</p>", "response": "b", "stimulus-type": "incongruent", "word": "red", "color": "blue", "correct_response": "b", "trial_id": "stroop-trial-1-incongruent-5", "trial_type": "html-keyboard-response", "trial_index": 7, "time_elapsed": 82675, "internal_node_id": "0.0-4.0-3.0"}}, {"uniqueid": "w30890258:a93852479", "current_trial": 8, "dateTime": 1664367900672, "trialdata": {"rt": 1355, "stimulus": "<p id='stroop-text' class='stroop-green'>SHIP</p>", "response": "g", "stimulus-type": "unrelated", "word": "SHIP", "color": "green", "correct_response": "g", "trial_id": "stroop-trial-1-unrelated-28", "trial_type": "html-keyboard-response", "trial_index": 8, "time_elapsed": 84531, "internal_node_id": "0.0-4.0-4.0"}}, {"uniqueid": "w30890258:a93852479", "current_trial": 9, "dateTime": 1664367902264, "trialdata": {"rt": 1091, "stimulus": "<p id='stroop-text' class='stroop-red'>RED</p>", "response": "r", "stimulus-type": "congruent", "word": "red", "color": "red", "correct_response": "r", "trial_id": "stroop-trial-1-congruent-6", "trial_type": "html-keyboard-response", "trial_index": 9, "time_elapsed": 86123, "internal_node_id": "0.0-4.0-5.0"}}, {"uniqueid": "w30890258:a93852479", "current_trial": 10, "dateTime": 1664367904489, "trialdata": {"rt": 1723, "stimulus": "<p id='stroop-text' class='stroop-yellow'>GREEN</p>", "response": "y", "stimulus-type": "incongruent", "word": "green", "color": "yellow", "correct_response": "y", "trial_id": "stroop-trial-1-incongruent-3", "trial_type": "html-keyboard-response", "trial_index": 10, "time_elapsed": 88348, "internal_node_id": "0.0-4.0-6.0"}}, {"uniqueid": "w30890258:a93852479", "current_trial": 11, "dateTime": 1664367905905, "trialdata": {"rt": 915, "stimulus": "<p id='stroop-text' class='stroop-green'>GREEN</p>", "response": "g", "stimulus-type": "congruent", "word": "green", "color": "green", "correct_response": "g", "trial_id": "stroop-trial-1-congruent-14", "trial_type": "html-keyboard-response", "trial_index": 11, "time_elapsed": 89764, "internal_node_id": "0.0-4.0-7.0"}}, {"uniqueid": "w30890258:a93852479", "current_trial": 12, "dateTime": 1664367907329, "trialdata": {"rt": 922, "stimulus": "<p id='stroop-text' class='stroop-red'>RED</p>", "response": "r", "stimulus-type": "congruent", "word": "red", "color": "red", "correct_response": "r", "trial_id": "stroop-trial-1-congruent-8", "trial_type": "html-keyboard-response", "trial_index": 12, "time_elapsed": 91188, "internal_node_id": "0.0-4.0-8.0"}}, {"uniqueid": "w30890258:a93852479", "current_trial": 13, "dateTime": 1664367908561, "trialdata": {"rt": 731, "stimulus": "<p id='stroop-text' class='stroop-blue'>GREEN</p>", "response": "b", "stimulus-type": "incongruent", "word": "green", "color": "blue", "correct_response": "b", "trial_id": "stroop-trial-1-incongruent-30", "trial_type": "html-keyboard-response", "trial_index": 13, "time_elapsed": 92420, "internal_node_id": "0.0-4.0-9.0"}}, {"uniqueid": "w30890258:a93852479", "current_trial": 14, "dateTime": 1664367910209, "trialdata": {"rt": 1146, "stimulus": "<p id='stroop-text' class='stroop-yellow'>YELLOW</p>", "response": "y", "stimulus-type": "congruent", "word": "yellow", "color": "yellow", "correct_response": "y", "trial_id": "stroop-trial-1-congruent-19", "trial_type": "html-keyboard-response", "trial_index": 14, "time_elapsed": 94068, "internal_node_id": "0.0-4.0-10.0"}}, {"uniqueid": "w30890258:a93852479", "current_trial": 15, "dateTime": 1664367911665, "trialdata": {"rt": 955, "stimulus": "<p id='stroop-text' class='stroop-yellow'>YELLOW</p>", "response": "y", "stimulus-type": "congruent", "word": "yellow", "color": "yellow", "correct_response": "y", "trial_id": "stroop-trial-1-congruent-13", "trial_type": "html-keyboard-response", "trial_index": 15, "time_elapsed": 95524, "internal_node_id": "0.0-4.0-11.0"}}, {"uniqueid": "w30890258:a93852479", "current_trial": 16, "dateTime": 1664367912986, "trialdata": {"rt": 819, "stimulus": "<p id='stroop-text' class='stroop-blue'>BOTTLE</p>", "response": "b", "stimulus-type": "unrelated", "word": "BOTTLE", "color": "blue", "correct_response": "b", "trial_id": "stroop-trial-1-unrelated-27", "trial_type": "html-keyboard-response", "trial_index": 16, "time_elapsed": 96844, "internal_node_id": "0.0-4.0-12.0"}}, {"uniqueid": "w30890258:a93852479", "current_trial": 17, "dateTime": 1664367914466, "trialdata": {"rt": 975, "stimulus": "<p id='stroop-text' class='stroop-yellow'>GREEN</p>", "response": "y", "stimulus-type": "incongruent", "word": "green", "color": "yellow", "correct_response": "y", "trial_id": "stroop-trial-1-incongruent-24", "trial_type": "html-keyboard-response", "trial_index": 17, "time_elapsed": 98325, "internal_node_id": "0.0-4.0-13.0"}}, {"uniqueid": "w30890258:a93852479", "current_trial": 18, "dateTime": 1664367915810, "trialdata": {"rt": 842, "stimulus": "<p id='stroop-text' class='stroop-green'>RED</p>", "response": "r", "stimulus-type": "incongruent", "word": "red", "color": "green", "correct_response": "g", "trial_id": "stroop-trial-1-incongruent-10", "trial_type": "html-keyboard-response", "trial_index": 18, "time_elapsed": 99669, "internal_node_id": "0.0-4.0-14.0"}}, {"uniqueid": "w30890258:a93852479", "current_trial": 19, "dateTime": 1664367917730, "trialdata": {"rt": 1418, "stimulus": "<p id='stroop-text' class='stroop-blue'>STONE</p>", "response": "b", "stimulus-type": "unrelated", "word": "STONE", "color": "blue", "correct_response": "b", "trial_id": "stroop-trial-1-unrelated-29", "trial_type": "html-keyboard-response", "trial_index": 19, "time_elapsed": 101589, "internal_node_id": "0.0-4.0-15.0"}}, {"uniqueid": "w30890258:a93852479", "current_trial": 20, "dateTime": 1664367919098, "trialdata": {"rt": 860, "stimulus": "<p id='stroop-text' class='stroop-red'>SHIP</p>", "response": "r", "stimulus-type": "unrelated", "word": "SHIP", "color": "red", "correct_response": "r", "trial_id": "stroop-trial-1-unrelated-24", "trial_type": "html-keyboard-response", "trial_index": 20, "time_elapsed": 102957, "internal_node_id": "0.0-4.0-16.0"}}, {"uniqueid": "w30890258:a93852479", "current_trial": 21, "dateTime": 1664367920434, "trialdata": {"rt": 828, "stimulus": "<p id='stroop-text' class='stroop-red'>RED</p>", "response": "r", "stimulus-type": "congruent", "word": "red", "color": "red", "correct_response": "r", "trial_id": "stroop-trial-1-congruent-12", "trial_type": "html-keyboard-response", "trial_index": 21, "time_elapsed": 104293, "internal_node_id": "0.0-4.0-17.0"}}, {"uniqueid": "w30890258:a93852479", "current_trial": 22, "dateTime": 1664367921731, "trialdata": {"rt": 795, "stimulus": "<p id='stroop-text' class='stroop-red'>CHAIR</p>", "response": "r", "stimulus-type": "unrelated", "word": "CHAIR", "color": "red", "correct_response": "r", "trial_id": "stroop-trial-1-unrelated-7", "trial_type": "html-keyboard-response", "trial_index": 22, "time_elapsed": 105590, "internal_node_id": "0.0-4.0-18.0"}}, {"uniqueid": "w30890258:a93852479", "current_trial": 23, "dateTime": 1664367922979, "trialdata": {"rt": 747, "stimulus": "<p id='stroop-text' class='stroop-blue'>BLUE</p>", "response": "b", "stimulus-type": "congruent", "word": "blue", "color": "blue", "correct_response": "b", "trial_id": "stroop-trial-1-congruent-9", "trial_type": "html-keyboard-response", "trial_index": 23, "time_elapsed": 106837, "internal_node_id": "0.0-4.0-19.0"}}, {"uniqueid": "w30890258:a93852479", "current_trial": 24, "dateTime": 1664367924371, "trialdata": {"rt": 891, "stimulus": "<p id='stroop-text' class='stroop-yellow'>SHIP</p>", "response": "y", "stimulus-type": "unrelated", "word": "SHIP", "color": "yellow", "correct_response": "y", "trial_id": "stroop-trial-1-unrelated-10", "trial_type": "html-keyboard-response", "trial_index": 24, "time_elapsed": 108230, "internal_node_id": "0.0-4.0-20.0"}}, {"uniqueid": "w30890258:a93852479", "current_trial": 25, "dateTime": 1664367925787, "trialdata": {"rt": 915, "stimulus": "<p id='stroop-text' class='stroop-blue'>BLUE</p>", "response": "b", "stimulus-type": "congruent", "word": "blue", "color": "blue", "correct_response": "b", "trial_id": "stroop-trial-1-congruent-2", "trial_type": "html-keyboard-response", "trial_index": 25, "time_elapsed": 109646, "internal_node_id": "0.0-4.0-21.0"}}, {"uniqueid": "w30890258:a93852479", "current_trial": 26, "dateTime": 1664367927011, "trialdata": {"rt": 723, "stimulus": "<p id='stroop-text' class='stroop-red'>RED</p>", "response": "r", "stimulus-type": "congruent", "word": "red", "color": "red", "correct_response": "r", "trial_id": "stroop-trial-1-congruent-3", "trial_type": "html-keyboard-response", "trial_index": 26, "time_elapsed": 110870, "internal_node_id": "0.0-4.0-22.0"}}, {"uniqueid": "w30890258:a93852479", "current_trial": 27, "dateTime": 1664367928596, "trialdata": {"rt": 1082, "stimulus": "<p id='stroop-text' class='stroop-yellow'>BLUE</p>", "response": "y", "stimulus-type": "incongruent", "word": "blue", "color": "yellow", "correct_response": "y", "trial_id": "stroop-trial-1-incongruent-7", "trial_type": "html-keyboard-response", "trial_index": 27, "time_elapsed": 112454, "internal_node_id": "0.0-4.0-23.0"}}, {"uniqueid": "w30890258:a93852479", "current_trial": 28, "dateTime": 1664367930180, "trialdata": {"rt": 1082, "stimulus": "<p id='stroop-text' class='stroop-green'>YELLOW</p>", "response": "g", "stimulus-type": "incongruent", "word": "yellow", "color": "green", "correct_response": "g", "trial_id": "stroop-trial-1-incongruent-14", "trial_type": "html-keyboard-response", "trial_index": 28, "time_elapsed": 114038, "internal_node_id": "0.0-4.0-24.0"}}, {"uniqueid": "w30890258:a93852479", "current_trial": 29, "dateTime": 1664367931628, "trialdata": {"rt": 946, "stimulus": "<p id='stroop-text' class='stroop-yellow'>WINDOW</p>", "response": "y", "stimulus-type": "unrelated", "word": "WINDOW", "color": "yellow", "correct_response": "y", "trial_id": "stroop-trial-1-unrelated-6", "trial_type": "html-keyboard-response", "trial_index": 29, "time_elapsed": 115487, "internal_node_id": "0.0-4.0-25.0"}}, {"uniqueid": "w30890258:a93852479", "current_trial": 30, "dateTime": 1664367933012, "trialdata": {"rt": 882, "stimulus": "<p id='stroop-text' class='stroop-green'>GREEN</p>", "response": "g", "stimulus-type": "congruent", "word": "green", "color": "green", "correct_response": "g", "trial_id": "stroop-trial-1-congruent-23", "trial_type": "html-keyboard-response", "trial_index": 30, "time_elapsed": 116871, "internal_node_id": "0.0-4.0-26.0"}}, {"uniqueid": "w30890258:a93852479", "current_trial": 31, "dateTime": 1664367934628, "trialdata": {"rt": 1115, "stimulus": "<p id='stroop-text' class='stroop-blue'>RED</p>", "response": "b", "stimulus-type": "incongruent", "word": "red", "color": "blue", "correct_response": "b", "trial_id": "stroop-trial-1-incongruent-17", "trial_type": "html-keyboard-response", "trial_index": 31, "time_elapsed": 118487, "internal_node_id": "0.0-4.0-27.0"}}, {"uniqueid": "w30890258:a93852479", "current_trial": 32, "dateTime": 1664367936012, "trialdata": {"rt": 883, "stimulus": "<p id='stroop-text' class='stroop-green'>SHIP</p>", "response": "g", "stimulus-type": "unrelated", "word": "SHIP", "color": "green", "correct_response": "g", "trial_id": "stroop-trial-1-unrelated-9", "trial_type": "html-keyboard-response", "trial_index": 32, "time_elapsed": 119871, "internal_node_id": "0.0-4.0-28.0"}}, {"uniqueid": "w30890258:a93852479", "current_trial": 33, "dateTime": 1664367937292, "trialdata": {"rt": 778, "stimulus": "<p id='stroop-text' class='stroop-blue'>BLUE</p>", "response": "b", "stimulus-type": "congruent", "word": "blue", "color": "blue", "correct_response": "b", "trial_id": "stroop-trial-1-congruent-29", "trial_type": "html-keyboard-response", "trial_index": 33, "time_elapsed": 121151, "internal_node_id": "0.0-4.0-29.0"}}, {"uniqueid": "w30890258:a93852479", "current_trial": 34, "dateTime": 1664367938469, "trialdata": {"rt": 675, "stimulus": "<p id='stroop-text' class='stroop-yellow'>YELLOW</p>", "response": "y", "stimulus-type": "congruent", "word": "yellow", "color": "yellow", "correct_response": "y", "trial_id": "stroop-trial-1-congruent-17", "trial_type": "html-keyboard-response", "trial_index": 34, "time_elapsed": 122327, "internal_node_id": "0.0-4.0-30.0"}}, {"uniqueid": "w30890258:a93852479", "current_trial": 35, "dateTime": 1664367939837, "trialdata": {"rt": 866, "stimulus": "<p id='stroop-text' class='stroop-red'>RED</p>", "response": "r", "stimulus-type": "congruent", "word": "red", "color": "red", "correct_response": "r", "trial_id": "stroop-trial-1-congruent-30", "trial_type": "html-keyboard-response", "trial_index": 35, "time_elapsed": 123696, "internal_node_id": "0.0-4.0-31.0"}}, {"uniqueid": "w30890258:a93852479", "current_trial": 36, "dateTime": 1664367941477, "trialdata": {"rt": 1139, "stimulus": "<p id='stroop-text' class='stroop-blue'>GREEN</p>", "response": "b", "stimulus-type": "incongruent", "word": "green", "color": "blue", "correct_response": "b", "trial_id": "stroop-trial-1-incongruent-18", "trial_type": "html-keyboard-response", "trial_index": 36, "time_elapsed": 125336, "internal_node_id": "0.0-4.0-32.0"}}, {"uniqueid": "w30890258:a93852479", "current_trial": 37, "dateTime": 1664367942717, "trialdata": {"rt": 738, "stimulus": "<p id='stroop-text' class='stroop-blue'>BRIDGE</p>", "response": "b", "stimulus-type": "unrelated", "word": "BRIDGE", "color": "blue", "correct_response": "b", "trial_id": "stroop-trial-1-unrelated-11", "trial_type": "html-keyboard-response", "trial_index": 37, "time_elapsed": 126576, "internal_node_id": "0.0-4.0-33.0"}}, {"uniqueid": "w30890258:a93852479", "current_trial": 38, "dateTime": 1664367944901, "trialdata": {"rt": 1683, "stimulus": "<p id='stroop-text' class='stroop-green'>YELLOW</p>", "response": "g", "stimulus-type": "incongruent", "word": "yellow", "color": "green", "correct_response": "g", "trial_id": "stroop-trial-1-incongruent-12", "trial_type": "html-keyboard-response", "trial_index": 38, "time_elapsed": 128760, "internal_node_id": "0.0-4.0-34.0"}}, {"uniqueid": "w30890258:a93852479", "current_trial": 39, "dateTime": 1664367946381, "trialdata": {"rt": 978, "stimulus": "<p id='stroop-text' class='stroop-green'>YELLOW</p>", "response": "g", "stimulus-type": "incongruent", "word": "yellow", "color": "green", "correct_response": "g", "trial_id": "stroop-trial-1-incongruent-22", "trial_type": "html-keyboard-response", "trial_index": 39, "time_elapsed": 130240, "internal_node_id": "0.0-4.0-35.0"}}, {"uniqueid": "w30890258:a93852479", "current_trial": 40, "dateTime": 1664367947622, "trialdata": {"rt": 739, "stimulus": "<p id='stroop-text' class='stroop-blue'>STONE</p>", "response": "b", "stimulus-type": "unrelated", "word": "STONE", "color": "blue", "correct_response": "b", "trial_id": "stroop-trial-1-unrelated-14", "trial_type": "html-keyboard-response", "trial_index": 40, "time_elapsed": 131481, "internal_node_id": "0.0-4.0-36.0"}}, {"uniqueid": "w30890258:a93852479", "current_trial": 41, "dateTime": 1664367949078, "trialdata": {"rt": 954, "stimulus": "<p id='stroop-text' class='stroop-green'>GREEN</p>", "response": "g", "stimulus-type": "congruent", "word": "green", "color": "green", "correct_response": "g", "trial_id": "stroop-trial-1-congruent-26", "trial_type": "html-keyboard-response", "trial_index": 41, "time_elapsed": 132937, "internal_node_id": "0.0-4.0-37.0"}}, {"uniqueid": "w30890258:a93852479", "current_trial": 42, "dateTime": 1664367950278, "trialdata": {"rt": 698, "stimulus": "<p id='stroop-text' class='stroop-green'>WINDOW</p>", "response": "g", "stimulus-type": "unrelated", "word": "WINDOW", "color": "green", "correct_response": "g", "trial_id": "stroop-trial-1-unrelated-8", "trial_type": "html-keyboard-response", "trial_index": 42, "time_elapsed": 134137, "internal_node_id": "0.0-4.0-38.0"}}, {"uniqueid": "w30890258:a93852479", "current_trial": 43, "dateTime": 1664367951254, "trialdata": {"rt": 474, "stimulus": "<p id='stroop-text' class='stroop-green'>BRAIN</p>", "response": "g", "stimulus-type": "unrelated", "word": "BRAIN", "color": "green", "correct_response": "g", "trial_id": "stroop-trial-1-unrelated-12", "trial_type": "html-keyboard-response", "trial_index": 43, "time_elapsed": 135113, "internal_node_id": "0.0-4.0-39.0"}}, {"uniqueid": "w30890258:a93852479", "current_trial": 44, "dateTime": 1664367952582, "trialdata": {"rt": 821, "stimulus": "<p id='stroop-text' class='stroop-red'>YELLOW</p>", "response": "r", "stimulus-type": "incongruent", "word": "yellow", "color": "red", "correct_response": "r", "trial_id": "stroop-trial-1-incongruent-13", "trial_type": "html-keyboard-response", "trial_index": 44, "time_elapsed": 136441, "internal_node_id": "0.0-4.0-40.0"}}, {"uniqueid": "w30890258:a93852479", "current_trial": 45, "dateTime": 1664367953758, "trialdata": {"rt": 675, "stimulus": "<p id='stroop-text' class='stroop-blue'>RED</p>", "response": "b", "stimulus-type": "incongruent", "word": "red", "color": "blue", "correct_response": "b", "trial_id": "stroop-trial-1-incongruent-20", "trial_type": "html-keyboard-response", "trial_index": 45, "time_elapsed": 137617, "internal_node_id": "0.0-4.0-41.0"}}, {"uniqueid": "w30890258:a93852479", "current_trial": 46, "dateTime": 1664367954974, "trialdata": {"rt": 714, "stimulus": "<p id='stroop-text' class='stroop-green'>GREEN</p>", "response": "g", "stimulus-type": "congruent", "word": "green", "color": "green", "correct_response": "g", "trial_id": "stroop-trial-1-congruent-4", "trial_type": "html-keyboard-response", "trial_index": 46, "time_elapsed": 138833, "internal_node_id": "0.0-4.0-42.0"}}, {"uniqueid": "w30890258:a93852479", "current_trial": 47, "dateTime": 1664367956287, "trialdata": {"rt": 811, "stimulus": "<p id='stroop-text' class='stroop-red'>BOAT</p>", "response": "r", "stimulus-type": "unrelated", "word": "BOAT", "color": "red", "correct_response": "r", "trial_id": "stroop-trial-1-unrelated-23", "trial_type": "html-keyboard-response", "trial_index": 47, "time_elapsed": 140145, "internal_node_id": "0.0-4.0-43.0"}}, {"uniqueid": "w30890258:a93852479", "current_trial": 48, "dateTime": 1664367957663, "trialdata": {"rt": 874, "stimulus": "<p id='stroop-text' class='stroop-green'>BLUE</p>", "response": "g", "stimulus-type": "incongruent", "word": "blue", "color": "green", "correct_response": "g", "trial_id": "stroop-trial-1-incongruent-19", "trial_type": "html-keyboard-response", "trial_index": 48, "time_elapsed": 141522, "internal_node_id": "0.0-4.0-44.0"}}, {"uniqueid": "w30890258:a93852479", "current_trial": 49, "dateTime": 1664367959047, "trialdata": {"rt": 882, "stimulus": "<p id='stroop-text' class='stroop-red'>STONE</p>", "response": "r", "stimulus-type": "unrelated", "word": "STONE", "color": "red", "correct_response": "r", "trial_id": "stroop-trial-1-unrelated-20", "trial_type": "html-keyboard-response", "trial_index": 49, "time_elapsed": 142906, "internal_node_id": "0.0-4.0-45.0"}}, {"uniqueid": "w30890258:a93852479", "current_trial": 50, "dateTime": 1664367960327, "trialdata": {"rt": 779, "stimulus": "<p id='stroop-text' class='stroop-yellow'>BLUE</p>", "response": "y", "stimulus-type": "incongruent", "word": "blue", "color": "yellow", "correct_response": "y", "trial_id": "stroop-trial-1-incongruent-4", "trial_type": "html-keyboard-response", "trial_index": 50, "time_elapsed": 144186, "internal_node_id": "0.0-4.0-46.0"}}, {"uniqueid": "w30890258:a93852479", "current_trial": 51, "dateTime": 1664367961935, "trialdata": {"rt": 1105, "stimulus": "<p id='stroop-text' class='stroop-red'>RED</p>", "response": "r", "stimulus-type": "congruent", "word": "red", "color": "red", "correct_response": "r", "trial_id": "stroop-trial-1-congruent-11", "trial_type": "html-keyboard-response", "trial_index": 51, "time_elapsed": 145794, "internal_node_id": "0.0-4.0-47.0"}}, {"uniqueid": "w30890258:a93852479", "current_trial": 52, "dateTime": 1664367963104, "trialdata": {"rt": 667, "stimulus": "<p id='stroop-text' class='stroop-red'>RED</p>", "response": "r", "stimulus-type": "congruent", "word": "red", "color": "red", "correct_response": "r", "trial_id": "stroop-trial-1-congruent-28", "trial_type": "html-keyboard-response", "trial_index": 52, "time_elapsed": 146962, "internal_node_id": "0.0-4.0-48.0"}}, {"uniqueid": "w30890258:a93852479", "current_trial": 53, "dateTime": 1664367964584, "trialdata": {"rt": 978, "stimulus": "<p id='stroop-text' class='stroop-blue'>YELLOW</p>", "response": "b", "stimulus-type": "incongruent", "word": "yellow", "color": "blue", "correct_response": "b", "trial_id": "stroop-trial-1-incongruent-8", "trial_type": "html-keyboard-response", "trial_index": 53, "time_elapsed": 148442, "internal_node_id": "0.0-4.0-49.0"}}, {"uniqueid": "w30890258:a93852479", "current_trial": 54, "dateTime": 1664367966184, "trialdata": {"rt": 1098, "stimulus": "<p id='stroop-text' class='stroop-yellow'>GREEN</p>", "response": "y", "stimulus-type": "incongruent", "word": "green", "color": "yellow", "correct_response": "y", "trial_id": "stroop-trial-1-incongruent-21", "trial_type": "html-keyboard-response", "trial_index": 54, "time_elapsed": 150042, "internal_node_id": "0.0-4.0-50.0"}}, {"uniqueid": "w30890258:a93852479", "current_trial": 55, "dateTime": 1664367967448, "trialdata": {"rt": 762, "stimulus": "<p id='stroop-text' class='stroop-yellow'>FORK</p>", "response": "y", "stimulus-type": "unrelated", "word": "FORK", "color": "yellow", "correct_response": "y", "trial_id": "stroop-trial-1-unrelated-26", "trial_type": "html-keyboard-response", "trial_index": 55, "time_elapsed": 151307, "internal_node_id": "0.0-4.0-51.0"}}, {"uniqueid": "w30890258:a93852479", "current_trial": 56, "dateTime": 1664367968920, "trialdata": {"rt": 960, "stimulus": "<p id='stroop-text' class='stroop-red'>BLUE</p>", "response": "r", "stimulus-type": "incongruent", "word": "blue", "color": "red", "correct_response": "r", "trial_id": "stroop-trial-1-incongruent-25", "trial_type": "html-keyboard-response", "trial_index": 56, "time_elapsed": 152779, "internal_node_id": "0.0-4.0-52.0"}}, {"uniqueid": "w30890258:a93852479", "current_trial": 57, "dateTime": 1664367970176, "trialdata": {"rt": 754, "stimulus": "<p id='stroop-text' class='stroop-yellow'>YELLOW</p>", "response": "y", "stimulus-type": "congruent", "word": "yellow", "color": "yellow", "correct_response": "y", "trial_id": "stroop-trial-1-congruent-22", "trial_type": "html-keyboard-response", "trial_index": 57, "time_elapsed": 154035, "internal_node_id": "0.0-4.0-53.0"}}, {"uniqueid": "w30890258:a93852479", "current_trial": 58, "dateTime": 1664367971592, "trialdata": {"rt": 914, "stimulus": "<p id='stroop-text' class='stroop-blue'>RED</p>", "response": "b", "stimulus-type": "incongruent", "word": "red", "color": "blue", "correct_response": "b", "trial_id": "stroop-trial-1-incongruent-26", "trial_type": "html-keyboard-response", "trial_index": 58, "time_elapsed": 155451, "internal_node_id": "0.0-4.0-54.0"}}, {"uniqueid": "w30890258:a93852479", "current_trial": 59, "dateTime": 1664367972800, "trialdata": {"rt": 707, "stimulus": "<p id='stroop-text' class='stroop-green'>GREEN</p>", "response": "g", "stimulus-type": "congruent", "word": "green", "color": "green", "correct_response": "g", "trial_id": "stroop-trial-1-congruent-21", "trial_type": "html-keyboard-response", "trial_index": 59, "time_elapsed": 156659, "internal_node_id": "0.0-4.0-55.0"}}, {"uniqueid": "w30890258:a93852479", "current_trial": 60, "dateTime": 1664367974104, "trialdata": {"rt": 802, "stimulus": "<p id='stroop-text' class='stroop-blue'>SHIP</p>", "response": "b", "stimulus-type": "unrelated", "word": "SHIP", "color": "blue", "correct_response": "b", "trial_id": "stroop-trial-1-unrelated-21", "trial_type": "html-keyboard-response", "trial_index": 60, "time_elapsed": 157963, "internal_node_id": "0.0-4.0-56.0"}}, {"uniqueid": "w30890258:a93852479", "current_trial": 61, "dateTime": 1664367975344, "trialdata": {"rt": 739, "stimulus": "<p id='stroop-text' class='stroop-yellow'>WINDOW</p>", "response": "y", "stimulus-type": "unrelated", "word": "WINDOW", "color": "yellow", "correct_response": "y", "trial_id": "stroop-trial-1-unrelated-5", "trial_type": "html-keyboard-response", "trial_index": 61, "time_elapsed": 159203, "internal_node_id": "0.0-4.0-57.0"}}, {"uniqueid": "w30890258:a93852479", "current_trial": 62, "dateTime": 1664367976609, "trialdata": {"rt": 763, "stimulus": "<p id='stroop-text' class='stroop-green'>STONE</p>", "response": "g", "stimulus-type": "unrelated", "word": "STONE", "color": "green", "correct_response": "g", "trial_id": "stroop-trial-1-unrelated-3", "trial_type": "html-keyboard-response", "trial_index": 62, "time_elapsed": 160467, "internal_node_id": "0.0-4.0-58.0"}}, {"uniqueid": "w30890258:a93852479", "current_trial": 63, "dateTime": 1664367977985, "trialdata": {"rt": 874, "stimulus": "<p id='stroop-text' class='stroop-green'>BOAT</p>", "response": "g", "stimulus-type": "unrelated", "word": "BOAT", "color": "green", "correct_response": "g", "trial_id": "stroop-trial-1-unrelated-18", "trial_type": "html-keyboard-response", "trial_index": 63, "time_elapsed": 161843, "internal_node_id": "0.0-4.0-59.0"}}, {"uniqueid": "w30890258:a93852479", "current_trial": 64, "dateTime": 1664367978985, "trialdata": {"rt": 498, "stimulus": "<p id='stroop-text' class='stroop-green'>GREEN</p>", "response": "g", "stimulus-type": "congruent", "word": "green", "color": "green", "correct_response": "g", "trial_id": "stroop-trial-1-congruent-20", "trial_type": "html-keyboard-response", "trial_index": 64, "time_elapsed": 162844, "internal_node_id": "0.0-4.0-60.0"}}, {"uniqueid": "w30890258:a93852479", "current_trial": 65, "dateTime": 1664367979849, "trialdata": {"rt": 362, "stimulus": "<p id='stroop-text' class='stroop-green'>BLUE</p>", "response": "g", "stimulus-type": "incongruent", "word": "blue", "color": "green", "correct_response": "g", "trial_id": "stroop-trial-1-incongruent-23", "trial_type": "html-keyboard-response", "trial_index": 65, "time_elapsed": 163708, "internal_node_id": "0.0-4.0-61.0"}}, {"uniqueid": "w30890258:a93852479", "current_trial": 66, "dateTime": 1664367981025, "trialdata": {"rt": 675, "stimulus": "<p id='stroop-text' class='stroop-red'>BLUE</p>", "response": "r", "stimulus-type": "incongruent", "word": "blue", "color": "red", "correct_response": "r", "trial_id": "stroop-trial-1-incongruent-2", "trial_type": "html-keyboard-response", "trial_index": 66, "time_elapsed": 164884, "internal_node_id": "0.0-4.0-62.0"}}, {"uniqueid": "w30890258:a93852479", "current_trial": 67, "dateTime": 1664367982209, "trialdata": {"rt": 683, "stimulus": "<p id='stroop-text' class='stroop-green'>BOTTLE</p>", "response": "g", "stimulus-type": "unrelated", "word": "BOTTLE", "color": "green", "correct_response": "g", "trial_id": "stroop-trial-1-unrelated-16", "trial_type": "html-keyboard-response", "trial_index": 67, "time_elapsed": 166068, "internal_node_id": "0.0-4.0-63.0"}}, {"uniqueid": "w30890258:a93852479", "current_trial": 68, "dateTime": 1664367983386, "trialdata": {"rt": 675, "stimulus": "<p id='stroop-text' class='stroop-blue'>BLUE</p>", "response": "b", "stimulus-type": "congruent", "word": "blue", "color": "blue", "correct_response": "b", "trial_id": "stroop-trial-1-congruent-10", "trial_type": "html-keyboard-response", "trial_index": 68, "time_elapsed": 167244, "internal_node_id": "0.0-4.0-64.0"}}, {"uniqueid": "w30890258:a93852479", "current_trial": 69, "dateTime": 1664367984666, "trialdata": {"rt": 778, "stimulus": "<p id='stroop-text' class='stroop-green'>FORK</p>", "response": "g", "stimulus-type": "unrelated", "word": "FORK", "color": "green", "correct_response": "g", "trial_id": "stroop-trial-1-unrelated-2", "trial_type": "html-keyboard-response", "trial_index": 69, "time_elapsed": 168524, "internal_node_id": "0.0-4.0-65.0"}}, {"uniqueid": "w30890258:a93852479", "current_trial": 70, "dateTime": 1664367985922, "trialdata": {"rt": 754, "stimulus": "<p id='stroop-text' class='stroop-green'>YELLOW</p>", "response": "g", "stimulus-type": "incongruent", "word": "yellow", "color": "green", "correct_response": "g", "trial_id": "stroop-trial-1-incongruent-9", "trial_type": "html-keyboard-response", "trial_index": 70, "time_elapsed": 169780, "internal_node_id": "0.0-4.0-66.0"}}, {"uniqueid": "w30890258:a93852479", "current_trial": 71, "dateTime": 1664367986890, "trialdata": {"rt": 467, "stimulus": "<p id='stroop-text' class='stroop-green'>MONKEY</p>", "response": "g", "stimulus-type": "unrelated", "word": "MONKEY", "color": "green", "correct_response": "g", "trial_id": "stroop-trial-1-unrelated-4", "trial_type": "html-keyboard-response", "trial_index": 71, "time_elapsed": 170748, "internal_node_id": "0.0-4.0-67.0"}}, {"uniqueid": "w30890258:a93852479", "current_trial": 72, "dateTime": 1664367988122, "trialdata": {"rt": 725, "stimulus": "<p id='stroop-text' class='stroop-blue'>MONKEY</p>", "response": "b", "stimulus-type": "unrelated", "word": "MONKEY", "color": "blue", "correct_response": "b", "trial_id": "stroop-trial-1-unrelated-25", "trial_type": "html-keyboard-response", "trial_index": 72, "time_elapsed": 171981, "internal_node_id": "0.0-4.0-68.0"}}, {"uniqueid": "w30890258:a93852479", "current_trial": 73, "dateTime": 1664367989466, "trialdata": {"rt": 843, "stimulus": "<p id='stroop-text' class='stroop-yellow'>BOTTLE</p>", "response": "y", "stimulus-type": "unrelated", "word": "BOTTLE", "color": "yellow", "correct_response": "y", "trial_id": "stroop-trial-1-unrelated-19", "trial_type": "html-keyboard-response", "trial_index": 73, "time_elapsed": 173325, "internal_node_id": "0.0-4.0-69.0"}}, {"uniqueid": "w30890258:a93852479", "current_trial": 74, "dateTime": 1664367990930, "trialdata": {"rt": 963, "stimulus": "<p id='stroop-text' class='stroop-green'>GREEN</p>", "response": "g", "stimulus-type": "congruent", "word": "green", "color": "green", "correct_response": "g", "trial_id": "stroop-trial-1-congruent-24", "trial_type": "html-keyboard-response", "trial_index": 74, "time_elapsed": 174789, "internal_node_id": "0.0-4.0-70.0"}}, {"uniqueid": "w30890258:a93852479", "current_trial": 75, "dateTime": 1664367992410, "trialdata": {"rt": 979, "stimulus": "<p id='stroop-text' class='stroop-yellow'>BLUE</p>", "response": "y", "stimulus-type": "incongruent", "word": "blue", "color": "yellow", "correct_response": "y", "trial_id": "stroop-trial-1-incongruent-6", "trial_type": "html-keyboard-response", "trial_index": 75, "time_elapsed": 176269, "internal_node_id": "0.0-4.0-71.0"}}, {"uniqueid": "w30890258:a93852479", "current_trial": 76, "dateTime": 1664367994267, "trialdata": {"rt": 1355, "stimulus": "<p id='stroop-text' class='stroop-blue'>WINDOW</p>", "response": "b", "stimulus-type": "unrelated", "word": "WINDOW", "color": "blue", "correct_response": "b", "trial_id": "stroop-trial-1-unrelated-22", "trial_type": "html-keyboard-response", "trial_index": 76, "time_elapsed": 178125, "internal_node_id": "0.0-4.0-72.0"}}, {"uniqueid": "w30890258:a93852479", "current_trial": 77, "dateTime": 1664367995619, "trialdata": {"rt": 850, "stimulus": "<p id='stroop-text' class='stroop-green'>CHAIR</p>", "response": "g", "stimulus-type": "unrelated", "word": "CHAIR", "color": "green", "correct_response": "g", "trial_id": "stroop-trial-1-unrelated-17", "trial_type": "html-keyboard-response", "trial_index": 77, "time_elapsed": 179477, "internal_node_id": "0.0-4.0-73.0"}}, {"uniqueid": "w30890258:a93852479", "current_trial": 78, "dateTime": 1664367996915, "trialdata": {"rt": 788, "stimulus": "<p id='stroop-text' class='stroop-yellow'>YELLOW</p>", "response": "y", "stimulus-type": "congruent", "word": "yellow", "color": "yellow", "correct_response": "y", "trial_id": "stroop-trial-1-congruent-25", "trial_type": "html-keyboard-response", "trial_index": 78, "time_elapsed": 180774, "internal_node_id": "0.0-4.0-74.0"}}, {"uniqueid": "w30890258:a93852479", "current_trial": 79, "dateTime": 1664367998275, "trialdata": {"rt": 858, "stimulus": "<p id='stroop-text' class='stroop-green'>YELLOW</p>", "response": "g", "stimulus-type": "incongruent", "word": "yellow", "color": "green", "correct_response": "g", "trial_id": "stroop-trial-1-incongruent-28", "trial_type": "html-keyboard-response", "trial_index": 79, "time_elapsed": 182134, "internal_node_id": "0.0-4.0-75.0"}}, {"uniqueid": "w30890258:a93852479", "current_trial": 80, "dateTime": 1664367999635, "trialdata": {"rt": 859, "stimulus": "<p id='stroop-text' class='stroop-red'>BRAIN</p>", "response": "r", "stimulus-type": "unrelated", "word": "BRAIN", "color": "red", "correct_response": "r", "trial_id": "stroop-trial-1-unrelated-15", "trial_type": "html-keyboard-response", "trial_index": 80, "time_elapsed": 183494, "internal_node_id": "0.0-4.0-76.0"}}, {"uniqueid": "w30890258:a93852479", "current_trial": 81, "dateTime": 1664368001027, "trialdata": {"rt": 890, "stimulus": "<p id='stroop-text' class='stroop-green'>GREEN</p>", "response": "g", "stimulus-type": "congruent", "word": "green", "color": "green", "correct_response": "g", "trial_id": "stroop-trial-1-congruent-27", "trial_type": "html-keyboard-response", "trial_index": 81, "time_elapsed": 184886, "internal_node_id": "0.0-4.0-77.0"}}, {"uniqueid": "w30890258:a93852479", "current_trial": 82, "dateTime": 1664368002227, "trialdata": {"rt": 699, "stimulus": "<p id='stroop-text' class='stroop-green'>GREEN</p>", "response": "g", "stimulus-type": "congruent", "word": "green", "color": "green", "correct_response": "g", "trial_id": "stroop-trial-1-congruent-7", "trial_type": "html-keyboard-response", "trial_index": 82, "time_elapsed": 186086, "internal_node_id": "0.0-4.0-78.0"}}, {"uniqueid": "w30890258:a93852479", "current_trial": 83, "dateTime": 1664368003492, "trialdata": {"rt": 752, "stimulus": "<p id='stroop-text' class='stroop-blue'>BLUE</p>", "response": "b", "stimulus-type": "congruent", "word": "blue", "color": "blue", "correct_response": "b", "trial_id": "stroop-trial-1-congruent-16", "trial_type": "html-keyboard-response", "trial_index": 83, "time_elapsed": 187350, "internal_node_id": "0.0-4.0-79.0"}}, {"uniqueid": "w30890258:a93852479", "current_trial": 84, "dateTime": 1664368005100, "trialdata": {"rt": 1107, "stimulus": "<p id='stroop-text' class='stroop-yellow'>GREEN</p>", "response": "y", "stimulus-type": "incongruent", "word": "green", "color": "yellow", "correct_response": "y", "trial_id": "stroop-trial-1-incongruent-16", "trial_type": "html-keyboard-response", "trial_index": 84, "time_elapsed": 188959, "internal_node_id": "0.0-4.0-80.0"}}, {"uniqueid": "w30890258:a93852479", "current_trial": 85, "dateTime": 1664368007188, "trialdata": {"rt": 1586, "stimulus": "<p id='stroop-text' class='stroop-yellow'>GREEN</p>", "response": "y", "stimulus-type": "incongruent", "word": "green", "color": "yellow", "correct_response": "y", "trial_id": "stroop-trial-1-incongruent-1", "trial_type": "html-keyboard-response", "trial_index": 85, "time_elapsed": 191047, "internal_node_id": "0.0-4.0-81.0"}}, {"uniqueid": "w30890258:a93852479", "current_trial": 86, "dateTime": 1664368008476, "trialdata": {"rt": 786, "stimulus": "<p id='stroop-text' class='stroop-red'>RED</p>", "response": "r", "stimulus-type": "congruent", "word": "red", "color": "red", "correct_response": "r", "trial_id": "stroop-trial-1-congruent-18", "trial_type": "html-keyboard-response", "trial_index": 86, "time_elapsed": 192335, "internal_node_id": "0.0-4.0-82.0"}}, {"uniqueid": "w30890258:a93852479", "current_trial": 87, "dateTime": 1664368010028, "trialdata": {"rt": 1051, "stimulus": "<p id='stroop-text' class='stroop-green'>BLUE</p>", "response": "g", "stimulus-type": "incongruent", "word": "blue", "color": "green", "correct_response": "g", "trial_id": "stroop-trial-1-incongruent-27", "trial_type": "html-keyboard-response", "trial_index": 87, "time_elapsed": 193887, "internal_node_id": "0.0-4.0-83.0"}}, {"uniqueid": "w30890258:a93852479", "current_trial": 88, "dateTime": 1664368011388, "trialdata": {"rt": 858, "stimulus": "<p id='stroop-text' class='stroop-red'>FORK</p>", "response": "r", "stimulus-type": "unrelated", "word": "FORK", "color": "red", "correct_response": "r", "trial_id": "stroop-trial-1-unrelated-1", "trial_type": "html-keyboard-response", "trial_index": 88, "time_elapsed": 195247, "internal_node_id": "0.0-4.0-84.0"}}, {"uniqueid": "w30890258:a93852479", "current_trial": 89, "dateTime": 1664368012749, "trialdata": {"rt": 858, "stimulus": "<p id='stroop-text' class='stroop-green'>GREEN</p>", "response": "g", "stimulus-type": "congruent", "word": "green", "color": "green", "correct_response": "g", "trial_id": "stroop-trial-1-congruent-1", "trial_type": "html-keyboard-response", "trial_index": 89, "time_elapsed": 196607, "internal_node_id": "0.0-4.0-85.0"}}, {"uniqueid": "w30890258:a93852479", "current_trial": 90, "dateTime": 1664368014085, "trialdata": {"rt": 834, "stimulus": "<p id='stroop-text' class='stroop-yellow'>BRAIN</p>", "response": "y", "stimulus-type": "unrelated", "word": "BRAIN", "color": "yellow", "correct_response": "y", "trial_id": "stroop-trial-1-unrelated-30", "trial_type": "html-keyboard-response", "trial_index": 90, "time_elapsed": 197944, "internal_node_id": "0.0-4.0-86.0"}}, {"uniqueid": "w30890258:a93852479", "current_trial": 91, "dateTime": 1664368015645, "trialdata": {"rt": 1059, "stimulus": "<p id='stroop-text' class='stroop-blue'>GREEN</p>", "response": "b", "stimulus-type": "incongruent", "word": "green", "color": "blue", "correct_response": "b", "trial_id": "stroop-trial-1-incongruent-29", "trial_type": "html-keyboard-response", "trial_index": 91, "time_elapsed": 199504, "internal_node_id": "0.0-4.0-87.0"}}, {"uniqueid": "w30890258:a93852479", "current_trial": 92, "dateTime": 1664368016901, "trialdata": {"rt": 755, "stimulus": "<p id='stroop-text' class='stroop-red'>RED</p>", "response": "r", "stimulus-type": "congruent", "word": "red", "color": "red", "correct_response": "r", "trial_id": "stroop-trial-1-congruent-15", "trial_type": "html-keyboard-response", "trial_index": 92, "time_elapsed": 200760, "internal_node_id": "0.0-4.0-88.0"}}, {"uniqueid": "w30890258:a93852479", "current_trial": 93, "dateTime": 1664368018101, "trialdata": {"rt": 699, "stimulus": "<p id='stroop-text' class='stroop-red'>DOG</p>", "response": "r", "stimulus-type": "unrelated", "word": "DOG", "color": "red", "correct_response": "r", "trial_id": "stroop-trial-1-unrelated-13", "trial_type": "html-keyboard-response", "trial_index": 93, "time_elapsed": 201960, "internal_node_id": "0.0-4.0-89.0"}}, {"uniqueid": "w30890258:a93852479", "current_trial": 94, "dateTime": 1664368026166, "trialdata": {"rt": 7563, "stimulus": "  <h1> End of block! </h1>\n\n  You have reached the end of the block 1/5. If you need a short break, feel free to take one now before moving on.\n\n  <br><br>\n  In the next block, you will complete another 90 rounds of this game.\n\n  <br><br>\n  <div style='text-align: center;'>Press <code>space</code> to begin.</div>\n  <br><br>\n<div style='text-align: center;'>(If the experiment doesn't continue, try clicking on the text and then pressing <code>space</code>.)</div>", "response": " ", "trial_id": "stroop_1_ready_2", "trial_type": "html-keyboard-response", "trial_index": 94, "time_elapsed": 210025, "internal_node_id": "0.0-5.0"}}, {"uniqueid": "w30890258:a93852479", "current_trial": 95, "dateTime": 1664368027166, "trialdata": {"rt": 999, "stimulus": "<p id='stroop-text' class='stroop-green'>RED</p>", "response": "g", "stimulus-type": "incongruent", "word": "red", "color": "green", "correct_response": "g", "trial_id": "stroop-trial-1-incongruent-14", "trial_type": "html-keyboard-response", "trial_index": 95, "time_elapsed": 211025, "internal_node_id": "0.0-6.0-0.0"}}, {"uniqueid": "w30890258:a93852479", "current_trial": 96, "dateTime": 1664368028326, "trialdata": {"rt": 658, "stimulus": "<p id='stroop-text' class='stroop-red'>RED</p>", "response": "r", "stimulus-type": "congruent", "word": "red", "color": "red", "correct_response": "r", "trial_id": "stroop-trial-1-congruent-24", "trial_type": "html-keyboard-response", "trial_index": 96, "time_elapsed": 212185, "internal_node_id": "0.0-6.0-1.0"}}, {"uniqueid": "w30890258:a93852479", "current_trial": 97, "dateTime": 1664368029542, "trialdata": {"rt": 715, "stimulus": "<p id='stroop-text' class='stroop-blue'>BLUE</p>", "response": "b", "stimulus-type": "congruent", "word": "blue", "color": "blue", "correct_response": "b", "trial_id": "stroop-trial-1-congruent-25", "trial_type": "html-keyboard-response", "trial_index": 97, "time_elapsed": 213401, "internal_node_id": "0.0-6.0-2.0"}}, {"uniqueid": "w30890258:a93852479", "current_trial": 98, "dateTime": 1664368031183, "trialdata": {"rt": 1138, "stimulus": "<p id='stroop-text' class='stroop-blue'>YELLOW</p>", "response": "b", "stimulus-type": "incongruent", "word": "yellow", "color": "blue", "correct_response": "b", "trial_id": "stroop-trial-1-incongruent-20", "trial_type": "html-keyboard-response", "trial_index": 98, "time_elapsed": 215041, "internal_node_id": "0.0-6.0-3.0"}}, {"uniqueid": "w30890258:a93852479", "current_trial": 99, "dateTime": 1664368032527, "trialdata": {"rt": 843, "stimulus": "<p id='stroop-text' class='stroop-yellow'>BLUE</p>", "response": "y", "stimulus-type": "incongruent", "word": "blue", "color": "yellow", "correct_response": "y", "trial_id": "stroop-trial-1-incongruent-17", "trial_type": "html-keyboard-response", "trial_index": 99, "time_elapsed": 216386, "internal_node_id": "0.0-6.0-4.0"}}, {"uniqueid": "w30890258:a93852479", "current_trial": 100, "dateTime": 1664368033687, "trialdata": {"rt": 659, "stimulus": "<p id='stroop-text' class='stroop-red'>WINDOW</p>", "response": "r", "stimulus-type": "unrelated", "word": "WINDOW", "color": "red", "correct_response": "r", "trial_id": "stroop-trial-1-unrelated-23", "trial_type": "html-keyboard-response", "trial_index": 100, "time_elapsed": 217546, "internal_node_id": "0.0-6.0-5.0"}}, {"uniqueid": "w30890258:a93852479", "current_trial": 101, "dateTime": 1664368034903, "trialdata": {"rt": 714, "stimulus": "<p id='stroop-text' class='stroop-red'>BRIDGE</p>", "response": "r", "stimulus-type": "unrelated", "word": "BRIDGE", "color": "red", "correct_response": "r", "trial_id": "stroop-trial-1-unrelated-3", "trial_type": "html-keyboard-response", "trial_index": 101, "time_elapsed": 218762, "internal_node_id": "0.0-6.0-6.0"}}, {"uniqueid": "w30890258:a93852479", "current_trial": 102, "dateTime": 1664368036087, "trialdata": {"rt": 683, "stimulus": "<p id='stroop-text' class='stroop-red'>SHIP</p>", "response": "r", "stimulus-type": "unrelated", "word": "SHIP", "color": "red", "correct_response": "r", "trial_id": "stroop-trial-1-unrelated-21", "trial_type": "html-keyboard-response", "trial_index": 102, "time_elapsed": 219946, "internal_node_id": "0.0-6.0-7.0"}}, {"uniqueid": "w30890258:a93852479", "current_trial": 103, "dateTime": 1664368036960, "trialdata": {"rt": 370, "stimulus": "<p id='stroop-text' class='stroop-red'>RED</p>", "response": "r", "stimulus-type": "congruent", "word": "red", "color": "red", "correct_response": "r", "trial_id": "stroop-trial-1-congruent-27", "trial_type": "html-keyboard-response", "trial_index": 103, "time_elapsed": 220818, "internal_node_id": "0.0-6.0-8.0"}}, {"uniqueid": "w30890258:a93852479", "current_trial": 104, "dateTime": 1664368038312, "trialdata": {"rt": 851, "stimulus": "<p id='stroop-text' class='stroop-green'>WINDOW</p>", "response": "g", "stimulus-type": "unrelated", "word": "WINDOW", "color": "green", "correct_response": "g", "trial_id": "stroop-trial-1-unrelated-16", "trial_type": "html-keyboard-response", "trial_index": 104, "time_elapsed": 222170, "internal_node_id": "0.0-6.0-9.0"}}, {"uniqueid": "w30890258:a93852479", "current_trial": 105, "dateTime": 1664368039232, "trialdata": {"rt": 418, "stimulus": "<p id='stroop-text' class='stroop-green'>GREEN</p>", "response": "g", "stimulus-type": "congruent", "word": "green", "color": "green", "correct_response": "g", "trial_id": "stroop-trial-1-congruent-20", "trial_type": "html-keyboard-response", "trial_index": 105, "time_elapsed": 223090, "internal_node_id": "0.0-6.0-10.0"}}, {"uniqueid": "w30890258:a93852479", "current_trial": 106, "dateTime": 1664368040712, "trialdata": {"rt": 978, "stimulus": "<p id='stroop-text' class='stroop-blue'>SHIP</p>", "response": "b", "stimulus-type": "unrelated", "word": "SHIP", "color": "blue", "correct_response": "b", "trial_id": "stroop-trial-1-unrelated-28", "trial_type": "html-keyboard-response", "trial_index": 106, "time_elapsed": 224571, "internal_node_id": "0.0-6.0-11.0"}}, {"uniqueid": "w30890258:a93852479", "current_trial": 107, "dateTime": 1664368042448, "trialdata": {"rt": 1234, "stimulus": "<p id='stroop-text' class='stroop-green'>BRIDGE</p>", "response": "g", "stimulus-type": "unrelated", "word": "BRIDGE", "color": "green", "correct_response": "g", "trial_id": "stroop-trial-1-unrelated-8", "trial_type": "html-keyboard-response", "trial_index": 107, "time_elapsed": 226307, "internal_node_id": "0.0-6.0-12.0"}}, {"uniqueid": "w30890258:a93852479", "current_trial": 108, "dateTime": 1664368044120, "trialdata": {"rt": 1170, "stimulus": "<p id='stroop-text' class='stroop-yellow'>DOG</p>", "response": "y", "stimulus-type": "unrelated", "word": "DOG", "color": "yellow", "correct_response": "y", "trial_id": "stroop-trial-1-unrelated-20", "trial_type": "html-keyboard-response", "trial_index": 108, "time_elapsed": 227979, "internal_node_id": "0.0-6.0-13.0"}}, {"uniqueid": "w30890258:a93852479", "current_trial": 109, "dateTime": 1664368045216, "trialdata": {"rt": 594, "stimulus": "<p id='stroop-text' class='stroop-yellow'>BOAT</p>", "response": "y", "stimulus-type": "unrelated", "word": "BOAT", "color": "yellow", "correct_response": "y", "trial_id": "stroop-trial-1-unrelated-2", "trial_type": "html-keyboard-response", "trial_index": 109, "time_elapsed": 229075, "internal_node_id": "0.0-6.0-14.0"}}, {"uniqueid": "w30890258:a93852479", "current_trial": 110, "dateTime": 1664368046168, "trialdata": {"rt": 450, "stimulus": "<p id='stroop-text' class='stroop-yellow'>YELLOW</p>", "response": "y", "stimulus-type": "congruent", "word": "yellow", "color": "yellow", "correct_response": "y", "trial_id": "stroop-trial-1-congruent-19", "trial_type": "html-keyboard-response", "trial_index": 110, "time_elapsed": 230027, "internal_node_id": "0.0-6.0-15.0"}}, {"uniqueid": "w30890258:a93852479", "current_trial": 111, "dateTime": 1664368047057, "trialdata": {"rt": 386, "stimulus": "<p id='stroop-text' class='stroop-yellow'>WINDOW</p>", "response": "y", "stimulus-type": "unrelated", "word": "WINDOW", "color": "yellow", "correct_response": "y", "trial_id": "stroop-trial-1-unrelated-7", "trial_type": "html-keyboard-response", "trial_index": 111, "time_elapsed": 230915, "internal_node_id": "0.0-6.0-16.0"}}, {"uniqueid": "w30890258:a93852479", "current_trial": 112, "dateTime": 1664368048337, "trialdata": {"rt": 778, "stimulus": "<p id='stroop-text' class='stroop-red'>YELLOW</p>", "response": "r", "stimulus-type": "incongruent", "word": "yellow", "color": "red", "correct_response": "r", "trial_id": "stroop-trial-1-incongruent-15", "trial_type": "html-keyboard-response", "trial_index": 112, "time_elapsed": 232195, "internal_node_id": "0.0-6.0-17.0"}}, {"uniqueid": "w30890258:a93852479", "current_trial": 113, "dateTime": 1664368049625, "trialdata": {"rt": 786, "stimulus": "<p id='stroop-text' class='stroop-yellow'>YELLOW</p>", "response": "y", "stimulus-type": "congruent", "word": "yellow", "color": "yellow", "correct_response": "y", "trial_id": "stroop-trial-1-congruent-30", "trial_type": "html-keyboard-response", "trial_index": 113, "time_elapsed": 233484, "internal_node_id": "0.0-6.0-18.0"}}, {"uniqueid": "w30890258:a93852479", "current_trial": 114, "dateTime": 1664368050905, "trialdata": {"rt": 779, "stimulus": "<p id='stroop-text' class='stroop-blue'>SHIP</p>", "response": "b", "stimulus-type": "unrelated", "word": "SHIP", "color": "blue", "correct_response": "b", "trial_id": "stroop-trial-1-unrelated-27", "trial_type": "html-keyboard-response", "trial_index": 114, "time_elapsed": 234764, "internal_node_id": "0.0-6.0-19.0"}}, {"uniqueid": "w30890258:a93852479", "current_trial": 115, "dateTime": 1664368052289, "trialdata": {"rt": 883, "stimulus": "<p id='stroop-text' class='stroop-red'>GREEN</p>", "response": "r", "stimulus-type": "incongruent", "word": "green", "color": "red", "correct_response": "r", "trial_id": "stroop-trial-1-incongruent-28", "trial_type": "html-keyboard-response", "trial_index": 115, "time_elapsed": 236148, "internal_node_id": "0.0-6.0-20.0"}}, {"uniqueid": "w30890258:a93852479", "current_trial": 116, "dateTime": 1664368053513, "trialdata": {"rt": 722, "stimulus": "<p id='stroop-text' class='stroop-red'>RED</p>", "response": "r", "stimulus-type": "congruent", "word": "red", "color": "red", "correct_response": "r", "trial_id": "stroop-trial-1-congruent-2", "trial_type": "html-keyboard-response", "trial_index": 116, "time_elapsed": 237372, "internal_node_id": "0.0-6.0-21.0"}}, {"uniqueid": "w30890258:a93852479", "current_trial": 117, "dateTime": 1664368054657, "trialdata": {"rt": 643, "stimulus": "<p id='stroop-text' class='stroop-red'>BLUE</p>", "response": "r", "stimulus-type": "incongruent", "word": "blue", "color": "red", "correct_response": "r", "trial_id": "stroop-trial-1-incongruent-8", "trial_type": "html-keyboard-response", "trial_index": 117, "time_elapsed": 238516, "internal_node_id": "0.0-6.0-22.0"}}, {"uniqueid": "w30890258:a93852479", "current_trial": 118, "dateTime": 1664368055905, "trialdata": {"rt": 746, "stimulus": "<p id='stroop-text' class='stroop-yellow'>YELLOW</p>", "response": "y", "stimulus-type": "congruent", "word": "yellow", "color": "yellow", "correct_response": "y", "trial_id": "stroop-trial-1-congruent-5", "trial_type": "html-keyboard-response", "trial_index": 118, "time_elapsed": 239764, "internal_node_id": "0.0-6.0-23.0"}}, {"uniqueid": "w30890258:a93852479", "current_trial": 119, "dateTime": 1664368056978, "trialdata": {"rt": 570, "stimulus": "<p id='stroop-text' class='stroop-yellow'>MONKEY</p>", "response": "y", "stimulus-type": "unrelated", "word": "MONKEY", "color": "yellow", "correct_response": "y", "trial_id": "stroop-trial-1-unrelated-18", "trial_type": "html-keyboard-response", "trial_index": 119, "time_elapsed": 240837, "internal_node_id": "0.0-6.0-24.0"}}, {"uniqueid": "w30890258:a93852479", "current_trial": 120, "dateTime": 1664368058290, "trialdata": {"rt": 811, "stimulus": "<p id='stroop-text' class='stroop-red'>STONE</p>", "response": "r", "stimulus-type": "unrelated", "word": "STONE", "color": "red", "correct_response": "r", "trial_id": "stroop-trial-1-unrelated-25", "trial_type": "html-keyboard-response", "trial_index": 120, "time_elapsed": 242149, "internal_node_id": "0.0-6.0-25.0"}}, {"uniqueid": "w30890258:a93852479", "current_trial": 121, "dateTime": 1664368059506, "trialdata": {"rt": 715, "stimulus": "<p id='stroop-text' class='stroop-red'>RED</p>", "response": "r", "stimulus-type": "congruent", "word": "red", "color": "red", "correct_response": "r", "trial_id": "stroop-trial-1-congruent-18", "trial_type": "html-keyboard-response", "trial_index": 121, "time_elapsed": 243365, "internal_node_id": "0.0-6.0-26.0"}}, {"uniqueid": "w30890258:a93852479", "current_trial": 122, "dateTime": 1664368060778, "trialdata": {"rt": 771, "stimulus": "<p id='stroop-text' class='stroop-yellow'>DOG</p>", "response": "y", "stimulus-type": "unrelated", "word": "DOG", "color": "yellow", "correct_response": "y", "trial_id": "stroop-trial-1-unrelated-29", "trial_type": "html-keyboard-response", "trial_index": 122, "time_elapsed": 244637, "internal_node_id": "0.0-6.0-27.0"}}, {"uniqueid": "w30890258:a93852479", "current_trial": 123, "dateTime": 1664368062138, "trialdata": {"rt": 859, "stimulus": "<p id='stroop-text' class='stroop-red'>BOTTLE</p>", "response": "r", "stimulus-type": "unrelated", "word": "BOTTLE", "color": "red", "correct_response": "r", "trial_id": "stroop-trial-1-unrelated-15", "trial_type": "html-keyboard-response", "trial_index": 123, "time_elapsed": 245997, "internal_node_id": "0.0-6.0-28.0"}}, {"uniqueid": "w30890258:a93852479", "current_trial": 124, "dateTime": 1664368063370, "trialdata": {"rt": 729, "stimulus": "<p id='stroop-text' class='stroop-yellow'>FORK</p>", "response": "y", "stimulus-type": "unrelated", "word": "FORK", "color": "yellow", "correct_response": "y", "trial_id": "stroop-trial-1-unrelated-10", "trial_type": "html-keyboard-response", "trial_index": 124, "time_elapsed": 247229, "internal_node_id": "0.0-6.0-29.0"}}, {"uniqueid": "w30890258:a93852479", "current_trial": 125, "dateTime": 1664368064794, "trialdata": {"rt": 918, "stimulus": "<p id='stroop-text' class='stroop-red'>GREEN</p>", "response": "r", "stimulus-type": "incongruent", "word": "green", "color": "red", "correct_response": "r", "trial_id": "stroop-trial-1-incongruent-11", "trial_type": "html-keyboard-response", "trial_index": 125, "time_elapsed": 248653, "internal_node_id": "0.0-6.0-30.0"}}, {"uniqueid": "w30890258:a93852479", "current_trial": 126, "dateTime": 1664368066011, "trialdata": {"rt": 714, "stimulus": "<p id='stroop-text' class='stroop-red'>STONE</p>", "response": "r", "stimulus-type": "unrelated", "word": "STONE", "color": "red", "correct_response": "r", "trial_id": "stroop-trial-1-unrelated-30", "trial_type": "html-keyboard-response", "trial_index": 126, "time_elapsed": 249869, "internal_node_id": "0.0-6.0-31.0"}}, {"uniqueid": "w30890258:a93852479", "current_trial": 127, "dateTime": 1664368067259, "trialdata": {"rt": 746, "stimulus": "<p id='stroop-text' class='stroop-yellow'>RED</p>", "response": "y", "stimulus-type": "incongruent", "word": "red", "color": "yellow", "correct_response": "y", "trial_id": "stroop-trial-1-incongruent-2", "trial_type": "html-keyboard-response", "trial_index": 127, "time_elapsed": 251118, "internal_node_id": "0.0-6.0-32.0"}}, {"uniqueid": "w30890258:a93852479", "current_trial": 128, "dateTime": 1664368068627, "trialdata": {"rt": 867, "stimulus": "<p id='stroop-text' class='stroop-green'>YELLOW</p>", "response": "g", "stimulus-type": "incongruent", "word": "yellow", "color": "green", "correct_response": "g", "trial_id": "stroop-trial-1-incongruent-12", "trial_type": "html-keyboard-response", "trial_index": 128, "time_elapsed": 252486, "internal_node_id": "0.0-6.0-33.0"}}, {"uniqueid": "w30890258:a93852479", "current_trial": 129, "dateTime": 1664368070019, "trialdata": {"rt": 883, "stimulus": "<p id='stroop-text' class='stroop-blue'>YELLOW</p>", "response": "b", "stimulus-type": "incongruent", "word": "yellow", "color": "blue", "correct_response": "b", "trial_id": "stroop-trial-1-incongruent-3", "trial_type": "html-keyboard-response", "trial_index": 129, "time_elapsed": 253878, "internal_node_id": "0.0-6.0-34.0"}}, {"uniqueid": "w30890258:a93852479", "current_trial": 130, "dateTime": 1664368071411, "trialdata": {"rt": 891, "stimulus": "<p id='stroop-text' class='stroop-yellow'>YELLOW</p>", "response": "y", "stimulus-type": "congruent", "word": "yellow", "color": "yellow", "correct_response": "y", "trial_id": "stroop-trial-1-congruent-1", "trial_type": "html-keyboard-response", "trial_index": 130, "time_elapsed": 255270, "internal_node_id": "0.0-6.0-35.0"}}, {"uniqueid": "w30890258:a93852479", "current_trial": 131, "dateTime": 1664368072715, "trialdata": {"rt": 803, "stimulus": "<p id='stroop-text' class='stroop-blue'>MONKEY</p>", "response": "b", "stimulus-type": "unrelated", "word": "MONKEY", "color": "blue", "correct_response": "b", "trial_id": "stroop-trial-1-unrelated-24", "trial_type": "html-keyboard-response", "trial_index": 131, "time_elapsed": 256574, "internal_node_id": "0.0-6.0-36.0"}}, {"uniqueid": "w30890258:a93852479", "current_trial": 132, "dateTime": 1664368074044, "trialdata": {"rt": 826, "stimulus": "<p id='stroop-text' class='stroop-red'>FORK</p>", "response": "r", "stimulus-type": "unrelated", "word": "FORK", "color": "red", "correct_response": "r", "trial_id": "stroop-trial-1-unrelated-12", "trial_type": "html-keyboard-response", "trial_index": 132, "time_elapsed": 257902, "internal_node_id": "0.0-6.0-37.0"}}, {"uniqueid": "w30890258:a93852479", "current_trial": 133, "dateTime": 1664368075412, "trialdata": {"rt": 857, "stimulus": "<p id='stroop-text' class='stroop-yellow'>RED</p>", "response": "y", "stimulus-type": "incongruent", "word": "red", "color": "yellow", "correct_response": "y", "trial_id": "stroop-trial-1-incongruent-7", "trial_type": "html-keyboard-response", "trial_index": 133, "time_elapsed": 259270, "internal_node_id": "0.0-6.0-38.0"}}, {"uniqueid": "w30890258:a93852479", "current_trial": 134, "dateTime": 1664368076548, "trialdata": {"rt": 634, "stimulus": "<p id='stroop-text' class='stroop-red'>BLUE</p>", "response": "b", "stimulus-type": "incongruent", "word": "blue", "color": "red", "correct_response": "r", "trial_id": "stroop-trial-1-incongruent-13", "trial_type": "html-keyboard-response", "trial_index": 134, "time_elapsed": 260407, "internal_node_id": "0.0-6.0-39.0"}}, {"uniqueid": "w30890258:a93852479", "current_trial": 135, "dateTime": 1664368078108, "trialdata": {"rt": 1059, "stimulus": "<p id='stroop-text' class='stroop-green'>GREEN</p>", "response": "g", "stimulus-type": "congruent", "word": "green", "color": "green", "correct_response": "g", "trial_id": "stroop-trial-1-congruent-23", "trial_type": "html-keyboard-response", "trial_index": 135, "time_elapsed": 261967, "internal_node_id": "0.0-6.0-40.0"}}, {"uniqueid": "w30890258:a93852479", "current_trial": 136, "dateTime": 1664368079365, "trialdata": {"rt": 755, "stimulus": "<p id='stroop-text' class='stroop-red'>RED</p>", "response": "r", "stimulus-type": "congruent", "word": "red", "color": "red", "correct_response": "r", "trial_id": "stroop-trial-1-congruent-29", "trial_type": "html-keyboard-response", "trial_index": 136, "time_elapsed": 263223, "internal_node_id": "0.0-6.0-41.0"}}, {"uniqueid": "w30890258:a93852479", "current_trial": 137, "dateTime": 1664368080684, "trialdata": {"rt": 818, "stimulus": "<p id='stroop-text' class='stroop-green'>GREEN</p>", "response": "g", "stimulus-type": "congruent", "word": "green", "color": "green", "correct_response": "g", "trial_id": "stroop-trial-1-congruent-15", "trial_type": "html-keyboard-response", "trial_index": 137, "time_elapsed": 264543, "internal_node_id": "0.0-6.0-42.0"}}, {"uniqueid": "w30890258:a93852479", "current_trial": 138, "dateTime": 1664368081964, "trialdata": {"rt": 778, "stimulus": "<p id='stroop-text' class='stroop-yellow'>BLUE</p>", "response": "y", "stimulus-type": "incongruent", "word": "blue", "color": "yellow", "correct_response": "y", "trial_id": "stroop-trial-1-incongruent-27", "trial_type": "html-keyboard-response", "trial_index": 138, "time_elapsed": 265823, "internal_node_id": "0.0-6.0-43.0"}}, {"uniqueid": "w30890258:a93852479", "current_trial": 139, "dateTime": 1664368083277, "trialdata": {"rt": 810, "stimulus": "<p id='stroop-text' class='stroop-red'>RED</p>", "response": "r", "stimulus-type": "congruent", "word": "red", "color": "red", "correct_response": "r", "trial_id": "stroop-trial-1-congruent-4", "trial_type": "html-keyboard-response", "trial_index": 139, "time_elapsed": 267135, "internal_node_id": "0.0-6.0-44.0"}}, {"uniqueid": "w30890258:a93852479", "current_trial": 140, "dateTime": 1664368084453, "trialdata": {"rt": 674, "stimulus": "<p id='stroop-text' class='stroop-blue'>BLUE</p>", "response": "b", "stimulus-type": "congruent", "word": "blue", "color": "blue", "correct_response": "b", "trial_id": "stroop-trial-1-congruent-8", "trial_type": "html-keyboard-response", "trial_index": 140, "time_elapsed": 268312, "internal_node_id": "0.0-6.0-45.0"}}, {"uniqueid": "w30890258:a93852479", "current_trial": 141, "dateTime": 1664368085517, "trialdata": {"rt": 562, "stimulus": "<p id='stroop-text' class='stroop-blue'>RED</p>", "response": "b", "stimulus-type": "incongruent", "word": "red", "color": "blue", "correct_response": "b", "trial_id": "stroop-trial-1-incongruent-30", "trial_type": "html-keyboard-response", "trial_index": 141, "time_elapsed": 269376, "internal_node_id": "0.0-6.0-46.0"}}, {"uniqueid": "w30890258:a93852479", "current_trial": 142, "dateTime": 1664368086565, "trialdata": {"rt": 546, "stimulus": "<p id='stroop-text' class='stroop-blue'>WINDOW</p>", "response": "b", "stimulus-type": "unrelated", "word": "WINDOW", "color": "blue", "correct_response": "b", "trial_id": "stroop-trial-1-unrelated-6", "trial_type": "html-keyboard-response", "trial_index": 142, "time_elapsed": 270424, "internal_node_id": "0.0-6.0-47.0"}}, {"uniqueid": "w30890258:a93852479", "current_trial": 143, "dateTime": 1664368087885, "trialdata": {"rt": 818, "stimulus": "<p id='stroop-text' class='stroop-green'>YELLOW</p>", "response": "g", "stimulus-type": "incongruent", "word": "yellow", "color": "green", "correct_response": "g", "trial_id": "stroop-trial-1-incongruent-21", "trial_type": "html-keyboard-response", "trial_index": 143, "time_elapsed": 271744, "internal_node_id": "0.0-6.0-48.0"}}, {"uniqueid": "w30890258:a93852479", "current_trial": 144, "dateTime": 1664368088797, "trialdata": {"rt": 411, "stimulus": "<p id='stroop-text' class='stroop-green'>GREEN</p>", "response": "g", "stimulus-type": "congruent", "word": "green", "color": "green", "correct_response": "g", "trial_id": "stroop-trial-1-congruent-7", "trial_type": "html-keyboard-response", "trial_index": 144, "time_elapsed": 272656, "internal_node_id": "0.0-6.0-49.0"}}, {"uniqueid": "w30890258:a93852479", "current_trial": 145, "dateTime": 1664368089733, "trialdata": {"rt": 426, "stimulus": "<p id='stroop-text' class='stroop-green'>BLUE</p>", "response": "g", "stimulus-type": "incongruent", "word": "blue", "color": "green", "correct_response": "g", "trial_id": "stroop-trial-1-incongruent-1", "trial_type": "html-keyboard-response", "trial_index": 145, "time_elapsed": 273592, "internal_node_id": "0.0-6.0-50.0"}}, {"uniqueid": "w30890258:a93852479", "current_trial": 146, "dateTime": 1664368090613, "trialdata": {"rt": 378, "stimulus": "<p id='stroop-text' class='stroop-green'>YELLOW</p>", "response": "g", "stimulus-type": "incongruent", "word": "yellow", "color": "green", "correct_response": "g", "trial_id": "stroop-trial-1-incongruent-9", "trial_type": "html-keyboard-response", "trial_index": 146, "time_elapsed": 274472, "internal_node_id": "0.0-6.0-51.0"}}, {"uniqueid": "w30890258:a93852479", "current_trial": 147, "dateTime": 1664368091461, "trialdata": {"rt": 346, "stimulus": "<p id='stroop-text' class='stroop-green'>BRAIN</p>", "response": "g", "stimulus-type": "unrelated", "word": "BRAIN", "color": "green", "correct_response": "g", "trial_id": "stroop-trial-1-unrelated-5", "trial_type": "html-keyboard-response", "trial_index": 147, "time_elapsed": 275320, "internal_node_id": "0.0-6.0-52.0"}}, {"uniqueid": "w30890258:a93852479", "current_trial": 148, "dateTime": 1664368092789, "trialdata": {"rt": 826, "stimulus": "<p id='stroop-text' class='stroop-blue'>BRAIN</p>", "response": "b", "stimulus-type": "unrelated", "word": "BRAIN", "color": "blue", "correct_response": "b", "trial_id": "stroop-trial-1-unrelated-13", "trial_type": "html-keyboard-response", "trial_index": 148, "time_elapsed": 276648, "internal_node_id": "0.0-6.0-53.0"}}, {"uniqueid": "w30890258:a93852479", "current_trial": 149, "dateTime": 1664368094085, "trialdata": {"rt": 794, "stimulus": "<p id='stroop-text' class='stroop-yellow'>CHAIR</p>", "response": "y", "stimulus-type": "unrelated", "word": "CHAIR", "color": "yellow", "correct_response": "y", "trial_id": "stroop-trial-1-unrelated-1", "trial_type": "html-keyboard-response", "trial_index": 149, "time_elapsed": 277944, "internal_node_id": "0.0-6.0-54.0"}}, {"uniqueid": "w30890258:a93852479", "current_trial": 150, "dateTime": 1664368095669, "trialdata": {"rt": 1083, "stimulus": "<p id='stroop-text' class='stroop-red'>BLUE</p>", "response": "r", "stimulus-type": "incongruent", "word": "blue", "color": "red", "correct_response": "r", "trial_id": "stroop-trial-1-incongruent-24", "trial_type": "html-keyboard-response", "trial_index": 150, "time_elapsed": 279528, "internal_node_id": "0.0-6.0-55.0"}}, {"uniqueid": "w30890258:a93852479", "current_trial": 151, "dateTime": 1664368097278, "trialdata": {"rt": 1106, "stimulus": "<p id='stroop-text' class='stroop-blue'>BLUE</p>", "response": "b", "stimulus-type": "congruent", "word": "blue", "color": "blue", "correct_response": "b", "trial_id": "stroop-trial-1-congruent-21", "trial_type": "html-keyboard-response", "trial_index": 151, "time_elapsed": 281136, "internal_node_id": "0.0-6.0-56.0"}}, {"uniqueid": "w30890258:a93852479", "current_trial": 152, "dateTime": 1664368098614, "trialdata": {"rt": 834, "stimulus": "<p id='stroop-text' class='stroop-red'>RED</p>", "response": "r", "stimulus-type": "congruent", "word": "red", "color": "red", "correct_response": "r", "trial_id": "stroop-trial-1-congruent-16", "trial_type": "html-keyboard-response", "trial_index": 152, "time_elapsed": 282473, "internal_node_id": "0.0-6.0-57.0"}}, {"uniqueid": "w30890258:a93852479", "current_trial": 153, "dateTime": 1664368099526, "trialdata": {"rt": 410, "stimulus": "<p id='stroop-text' class='stroop-red'>RED</p>", "response": "r", "stimulus-type": "congruent", "word": "red", "color": "red", "correct_response": "r", "trial_id": "stroop-trial-1-congruent-12", "trial_type": "html-keyboard-response", "trial_index": 153, "time_elapsed": 283385, "internal_node_id": "0.0-6.0-58.0"}}, {"uniqueid": "w30890258:a93852479", "current_trial": 154, "dateTime": 1664368100398, "trialdata": {"rt": 370, "stimulus": "<p id='stroop-text' class='stroop-red'>RED</p>", "response": "r", "stimulus-type": "congruent", "word": "red", "color": "red", "correct_response": "r", "trial_id": "stroop-trial-1-congruent-14", "trial_type": "html-keyboard-response", "trial_index": 154, "time_elapsed": 284257, "internal_node_id": "0.0-6.0-59.0"}}, {"uniqueid": "w30890258:a93852479", "current_trial": 155, "dateTime": 1664368101206, "trialdata": {"rt": 306, "stimulus": "<p id='stroop-text' class='stroop-red'>RED</p>", "response": "r", "stimulus-type": "congruent", "word": "red", "color": "red", "correct_response": "r", "trial_id": "stroop-trial-1-congruent-22", "trial_type": "html-keyboard-response", "trial_index": 155, "time_elapsed": 285065, "internal_node_id": "0.0-6.0-60.0"}}, {"uniqueid": "w30890258:a93852479", "current_trial": 156, "dateTime": 1664368102262, "trialdata": {"rt": 554, "stimulus": "<p id='stroop-text' class='stroop-green'>GREEN</p>", "response": "g", "stimulus-type": "congruent", "word": "green", "color": "green", "correct_response": "g", "trial_id": "stroop-trial-1-congruent-3", "trial_type": "html-keyboard-response", "trial_index": 156, "time_elapsed": 286121, "internal_node_id": "0.0-6.0-61.0"}}, {"uniqueid": "w30890258:a93852479", "current_trial": 157, "dateTime": 1664368103126, "trialdata": {"rt": 362, "stimulus": "<p id='stroop-text' class='stroop-green'>GREEN</p>", "response": "g", "stimulus-type": "congruent", "word": "green", "color": "green", "correct_response": "g", "trial_id": "stroop-trial-1-congruent-9", "trial_type": "html-keyboard-response", "trial_index": 157, "time_elapsed": 286985, "internal_node_id": "0.0-6.0-62.0"}}, {"uniqueid": "w30890258:a93852479", "current_trial": 158, "dateTime": 1664368104190, "trialdata": {"rt": 562, "stimulus": "<p id='stroop-text' class='stroop-blue'>STONE</p>", "response": "b", "stimulus-type": "unrelated", "word": "STONE", "color": "blue", "correct_response": "b", "trial_id": "stroop-trial-1-unrelated-11", "trial_type": "html-keyboard-response", "trial_index": 158, "time_elapsed": 288049, "internal_node_id": "0.0-6.0-63.0"}}, {"uniqueid": "w30890258:a93852479", "current_trial": 159, "dateTime": 1664368105239, "trialdata": {"rt": 546, "stimulus": "<p id='stroop-text' class='stroop-green'>RED</p>", "response": "g", "stimulus-type": "incongruent", "word": "red", "color": "green", "correct_response": "g", "trial_id": "stroop-trial-1-incongruent-19", "trial_type": "html-keyboard-response", "trial_index": 159, "time_elapsed": 289097, "internal_node_id": "0.0-6.0-64.0"}}, {"uniqueid": "w30890258:a93852479", "current_trial": 160, "dateTime": 1664368106711, "trialdata": {"rt": 971, "stimulus": "<p id='stroop-text' class='stroop-blue'>RED</p>", "response": "b", "stimulus-type": "incongruent", "word": "red", "color": "blue", "correct_response": "b", "trial_id": "stroop-trial-1-incongruent-25", "trial_type": "html-keyboard-response", "trial_index": 160, "time_elapsed": 290569, "internal_node_id": "0.0-6.0-65.0"}}, {"uniqueid": "w30890258:a93852479", "current_trial": 161, "dateTime": 1664368107671, "trialdata": {"rt": 445, "stimulus": "<p id='stroop-text' class='stroop-blue'>BLUE</p>", "response": "b", "stimulus-type": "congruent", "word": "blue", "color": "blue", "correct_response": "b", "trial_id": "stroop-trial-1-congruent-17", "trial_type": "html-keyboard-response", "trial_index": 161, "time_elapsed": 291530, "internal_node_id": "0.0-6.0-66.0"}}, {"uniqueid": "w30890258:a93852479", "current_trial": 162, "dateTime": 1664368108655, "trialdata": {"rt": 482, "stimulus": "<p id='stroop-text' class='stroop-green'>GREEN</p>", "response": "g", "stimulus-type": "congruent", "word": "green", "color": "green", "correct_response": "g", "trial_id": "stroop-trial-1-congruent-11", "trial_type": "html-keyboard-response", "trial_index": 162, "time_elapsed": 292514, "internal_node_id": "0.0-6.0-67.0"}}, {"uniqueid": "w30890258:a93852479", "current_trial": 163, "dateTime": 1664368109807, "trialdata": {"rt": 643, "stimulus": "<p id='stroop-text' class='stroop-green'>BLUE</p>", "response": "g", "stimulus-type": "incongruent", "word": "blue", "color": "green", "correct_response": "g", "trial_id": "stroop-trial-1-incongruent-29", "trial_type": "html-keyboard-response", "trial_index": 163, "time_elapsed": 293666, "internal_node_id": "0.0-6.0-68.0"}}, {"uniqueid": "w30890258:a93852479", "current_trial": 164, "dateTime": 1664368110831, "trialdata": {"rt": 518, "stimulus": "<p id='stroop-text' class='stroop-blue'>BOAT</p>", "response": "b", "stimulus-type": "unrelated", "word": "BOAT", "color": "blue", "correct_response": "b", "trial_id": "stroop-trial-1-unrelated-22", "trial_type": "html-keyboard-response", "trial_index": 164, "time_elapsed": 294690, "internal_node_id": "0.0-6.0-69.0"}}, {"uniqueid": "w30890258:a93852479", "current_trial": 165, "dateTime": 1664368111847, "trialdata": {"rt": 514, "stimulus": "<p id='stroop-text' class='stroop-green'>MONKEY</p>", "response": "b", "stimulus-type": "unrelated", "word": "MONKEY", "color": "green", "correct_response": "g", "trial_id": "stroop-trial-1-unrelated-19", "trial_type": "html-keyboard-response", "trial_index": 165, "time_elapsed": 295706, "internal_node_id": "0.0-6.0-70.0"}}, {"uniqueid": "w30890258:a93852479", "current_trial": 166, "dateTime": 1664368113007, "trialdata": {"rt": 657, "stimulus": "<p id='stroop-text' class='stroop-blue'>BLUE</p>", "response": "b", "stimulus-type": "congruent", "word": "blue", "color": "blue", "correct_response": "b", "trial_id": "stroop-trial-1-congruent-13", "trial_type": "html-keyboard-response", "trial_index": 166, "time_elapsed": 296866, "internal_node_id": "0.0-6.0-71.0"}}, {"uniqueid": "w30890258:a93852479", "current_trial": 167, "dateTime": 1664368114392, "trialdata": {"rt": 882, "stimulus": "<p id='stroop-text' class='stroop-yellow'>GREEN</p>", "response": "y", "stimulus-type": "incongruent", "word": "green", "color": "yellow", "correct_response": "y", "trial_id": "stroop-trial-1-incongruent-26", "trial_type": "html-keyboard-response", "trial_index": 167, "time_elapsed": 298250, "internal_node_id": "0.0-6.0-72.0"}}, {"uniqueid": "w30890258:a93852479", "current_trial": 168, "dateTime": 1664368115552, "trialdata": {"rt": 658, "stimulus": "<p id='stroop-text' class='stroop-red'>RED</p>", "response": "r", "stimulus-type": "congruent", "word": "red", "color": "red", "correct_response": "r", "trial_id": "stroop-trial-1-congruent-10", "trial_type": "html-keyboard-response", "trial_index": 168, "time_elapsed": 299410, "internal_node_id": "0.0-6.0-73.0"}}, {"uniqueid": "w30890258:a93852479", "current_trial": 169, "dateTime": 1664368117064, "trialdata": {"rt": 1011, "stimulus": "<p id='stroop-text' class='stroop-green'>YELLOW</p>", "response": "g", "stimulus-type": "incongruent", "word": "yellow", "color": "green", "correct_response": "g", "trial_id": "stroop-trial-1-incongruent-5", "trial_type": "html-keyboard-response", "trial_index": 169, "time_elapsed": 300923, "internal_node_id": "0.0-6.0-74.0"}}, {"uniqueid": "w30890258:a93852479", "current_trial": 170, "dateTime": 1664368118376, "trialdata": {"rt": 810, "stimulus": "<p id='stroop-text' class='stroop-red'>BRIDGE</p>", "response": "r", "stimulus-type": "unrelated", "word": "BRIDGE", "color": "red", "correct_response": "r", "trial_id": "stroop-trial-1-unrelated-26", "trial_type": "html-keyboard-response", "trial_index": 170, "time_elapsed": 302235, "internal_node_id": "0.0-6.0-75.0"}}, {"uniqueid": "w30890258:a93852479", "current_trial": 171, "dateTime": 1664368119512, "trialdata": {"rt": 634, "stimulus": "<p id='stroop-text' class='stroop-green'>WINDOW</p>", "response": "g", "stimulus-type": "unrelated", "word": "WINDOW", "color": "green", "correct_response": "g", "trial_id": "stroop-trial-1-unrelated-9", "trial_type": "html-keyboard-response", "trial_index": 171, "time_elapsed": 303371, "internal_node_id": "0.0-6.0-76.0"}}, {"uniqueid": "w30890258:a93852479", "current_trial": 172, "dateTime": 1664368120448, "trialdata": {"rt": 434, "stimulus": "<p id='stroop-text' class='stroop-green'>BOTTLE</p>", "response": "g", "stimulus-type": "unrelated", "word": "BOTTLE", "color": "green", "correct_response": "g", "trial_id": "stroop-trial-1-unrelated-17", "trial_type": "html-keyboard-response", "trial_index": 172, "time_elapsed": 304307, "internal_node_id": "0.0-6.0-77.0"}}, {"uniqueid": "w30890258:a93852479", "current_trial": 173, "dateTime": 1664368121696, "trialdata": {"rt": 746, "stimulus": "<p id='stroop-text' class='stroop-blue'>YELLOW</p>", "response": "b", "stimulus-type": "incongruent", "word": "yellow", "color": "blue", "correct_response": "b", "trial_id": "stroop-trial-1-incongruent-6", "trial_type": "html-keyboard-response", "trial_index": 173, "time_elapsed": 305555, "internal_node_id": "0.0-6.0-78.0"}}, {"uniqueid": "w30890258:a93852479", "current_trial": 174, "dateTime": 1664368122848, "trialdata": {"rt": 643, "stimulus": "<p id='stroop-text' class='stroop-green'>YELLOW</p>", "response": "g", "stimulus-type": "incongruent", "word": "yellow", "color": "green", "correct_response": "g", "trial_id": "stroop-trial-1-incongruent-10", "trial_type": "html-keyboard-response", "trial_index": 174, "time_elapsed": 306707, "internal_node_id": "0.0-6.0-79.0"}}, {"uniqueid": "w30890258:a93852479", "current_trial": 175, "dateTime": 1664368124009, "trialdata": {"rt": 658, "stimulus": "<p id='stroop-text' class='stroop-yellow'>RED</p>", "response": "y", "stimulus-type": "incongruent", "word": "red", "color": "yellow", "correct_response": "y", "trial_id": "stroop-trial-1-incongruent-16", "trial_type": "html-keyboard-response", "trial_index": 175, "time_elapsed": 307867, "internal_node_id": "0.0-6.0-80.0"}}, {"uniqueid": "w30890258:a93852479", "current_trial": 176, "dateTime": 1664368125321, "trialdata": {"rt": 810, "stimulus": "<p id='stroop-text' class='stroop-blue'>RED</p>", "response": "g", "stimulus-type": "incongruent", "word": "red", "color": "blue", "correct_response": "b", "trial_id": "stroop-trial-1-incongruent-22", "trial_type": "html-keyboard-response", "trial_index": 176, "time_elapsed": 309180, "internal_node_id": "0.0-6.0-81.0"}}, {"uniqueid": "w30890258:a93852479", "current_trial": 177, "dateTime": 1664368127897, "trialdata": {"rt": 2074, "stimulus": "<p id='stroop-text' class='stroop-red'>RED</p>", "response": "r", "stimulus-type": "congruent", "word": "red", "color": "red", "correct_response": "r", "trial_id": "stroop-trial-1-congruent-26", "trial_type": "html-keyboard-response", "trial_index": 177, "time_elapsed": 311756, "internal_node_id": "0.0-6.0-82.0"}}, {"uniqueid": "w30890258:a93852479", "current_trial": 178, "dateTime": 1664368129385, "trialdata": {"rt": 986, "stimulus": "<p id='stroop-text' class='stroop-yellow'>YELLOW</p>", "response": "y", "stimulus-type": "congruent", "word": "yellow", "color": "yellow", "correct_response": "y", "trial_id": "stroop-trial-1-congruent-28", "trial_type": "html-keyboard-response", "trial_index": 178, "time_elapsed": 313244, "internal_node_id": "0.0-6.0-83.0"}}, {"uniqueid": "w30890258:a93852479", "current_trial": 179, "dateTime": 1664368130753, "trialdata": {"rt": 866, "stimulus": "<p id='stroop-text' class='stroop-red'>BOTTLE</p>", "response": "r", "stimulus-type": "unrelated", "word": "BOTTLE", "color": "red", "correct_response": "r", "trial_id": "stroop-trial-1-unrelated-14", "trial_type": "html-keyboard-response", "trial_index": 179, "time_elapsed": 314612, "internal_node_id": "0.0-6.0-84.0"}}, {"uniqueid": "w30890258:a93852479", "current_trial": 180, "dateTime": 1664368132114, "trialdata": {"rt": 858, "stimulus": "<p id='stroop-text' class='stroop-blue'>BRAIN</p>", "response": "b", "stimulus-type": "unrelated", "word": "BRAIN", "color": "blue", "correct_response": "b", "trial_id": "stroop-trial-1-unrelated-4", "trial_type": "html-keyboard-response", "trial_index": 180, "time_elapsed": 315973, "internal_node_id": "0.0-6.0-85.0"}}, {"uniqueid": "w30890258:a93852479", "current_trial": 181, "dateTime": 1664368133474, "trialdata": {"rt": 858, "stimulus": "<p id='stroop-text' class='stroop-green'>RED</p>", "response": "g", "stimulus-type": "incongruent", "word": "red", "color": "green", "correct_response": "g", "trial_id": "stroop-trial-1-incongruent-18", "trial_type": "html-keyboard-response", "trial_index": 181, "time_elapsed": 317333, "internal_node_id": "0.0-6.0-86.0"}}, {"uniqueid": "w30890258:a93852479", "current_trial": 182, "dateTime": 1664368134786, "trialdata": {"rt": 810, "stimulus": "<p id='stroop-text' class='stroop-blue'>BLUE</p>", "response": "b", "stimulus-type": "congruent", "word": "blue", "color": "blue", "correct_response": "b", "trial_id": "stroop-trial-1-congruent-6", "trial_type": "html-keyboard-response", "trial_index": 182, "time_elapsed": 318645, "internal_node_id": "0.0-6.0-87.0"}}, {"uniqueid": "w30890258:a93852479", "current_trial": 183, "dateTime": 1664368135994, "trialdata": {"rt": 706, "stimulus": "<p id='stroop-text' class='stroop-green'>YELLOW</p>", "response": "g", "stimulus-type": "incongruent", "word": "yellow", "color": "green", "correct_response": "g", "trial_id": "stroop-trial-1-incongruent-23", "trial_type": "html-keyboard-response", "trial_index": 183, "time_elapsed": 319853, "internal_node_id": "0.0-6.0-88.0"}}, {"uniqueid": "w30890258:a93852479", "current_trial": 184, "dateTime": 1664368137562, "trialdata": {"rt": 1066, "stimulus": "<p id='stroop-text' class='stroop-blue'>YELLOW</p>", "response": "b", "stimulus-type": "incongruent", "word": "yellow", "color": "blue", "correct_response": "b", "trial_id": "stroop-trial-1-incongruent-4", "trial_type": "html-keyboard-response", "trial_index": 184, "time_elapsed": 321421, "internal_node_id": "0.0-6.0-89.0"}}, {"uniqueid": "w30890258:a93852479", "current_trial": 185, "dateTime": 1664368139610, "trialdata": {"rt": 1546, "stimulus": "  <h1> End of block! </h1>\n\n  You have reached the end of the block 2/5. If you need a short break, feel free to take one now before moving on.\n\n  <br><br>\n  In the next block, you will complete another 90 rounds of this game.\n\n  <br><br>\n  <div style='text-align: center;'>Press <code>space</code> to begin.</div>\n  <br><br>\n<div style='text-align: center;'>(If the experiment doesn't continue, try clicking on the text and then pressing <code>space</code>.)</div>", "response": " ", "trial_id": "stroop_1_ready_3", "trial_type": "html-keyboard-response", "trial_index": 185, "time_elapsed": 323469, "internal_node_id": "0.0-7.0"}}, {"uniqueid": "w30890258:a93852479", "current_trial": 186, "dateTime": 1664368140563, "trialdata": {"rt": 950, "stimulus": "<p id='stroop-text' class='stroop-yellow'>BRIDGE</p>", "response": "y", "stimulus-type": "unrelated", "word": "BRIDGE", "color": "yellow", "correct_response": "y", "trial_id": "stroop-trial-1-unrelated-22", "trial_type": "html-keyboard-response", "trial_index": 186, "time_elapsed": 324421, "internal_node_id": "0.0-8.0-0.0"}}, {"uniqueid": "w30890258:a93852479", "current_trial": 187, "dateTime": 1664368141835, "trialdata": {"rt": 770, "stimulus": "<p id='stroop-text' class='stroop-green'>RED</p>", "response": "g", "stimulus-type": "incongruent", "word": "red", "color": "green", "correct_response": "g", "trial_id": "stroop-trial-1-incongruent-13", "trial_type": "html-keyboard-response", "trial_index": 187, "time_elapsed": 325693, "internal_node_id": "0.0-8.0-1.0"}}, {"uniqueid": "w30890258:a93852479", "current_trial": 188, "dateTime": 1664368142915, "trialdata": {"rt": 578, "stimulus": "<p id='stroop-text' class='stroop-green'>BLUE</p>", "response": "g", "stimulus-type": "incongruent", "word": "blue", "color": "green", "correct_response": "g", "trial_id": "stroop-trial-1-incongruent-8", "trial_type": "html-keyboard-response", "trial_index": 188, "time_elapsed": 326774, "internal_node_id": "0.0-8.0-2.0"}}, {"uniqueid": "w30890258:a93852479", "current_trial": 189, "dateTime": 1664368144147, "trialdata": {"rt": 730, "stimulus": "<p id='stroop-text' class='stroop-yellow'>BOTTLE</p>", "response": "y", "stimulus-type": "unrelated", "word": "BOTTLE", "color": "yellow", "correct_response": "y", "trial_id": "stroop-trial-1-unrelated-14", "trial_type": "html-keyboard-response", "trial_index": 189, "time_elapsed": 328006, "internal_node_id": "0.0-8.0-3.0"}}, {"uniqueid": "w30890258:a93852479", "current_trial": 190, "dateTime": 1664368145195, "trialdata": {"rt": 542, "stimulus": "<p id='stroop-text' class='stroop-green'>RED</p>", "response": "g", "stimulus-type": "incongruent", "word": "red", "color": "green", "correct_response": "g", "trial_id": "stroop-trial-1-incongruent-11", "trial_type": "html-keyboard-response", "trial_index": 190, "time_elapsed": 329054, "internal_node_id": "0.0-8.0-4.0"}}, {"uniqueid": "w30890258:a93852479", "current_trial": 191, "dateTime": 1664368146179, "trialdata": {"rt": 482, "stimulus": "<p id='stroop-text' class='stroop-green'>CHAIR</p>", "response": "g", "stimulus-type": "unrelated", "word": "CHAIR", "color": "green", "correct_response": "g", "trial_id": "stroop-trial-1-unrelated-28", "trial_type": "html-keyboard-response", "trial_index": 191, "time_elapsed": 330038, "internal_node_id": "0.0-8.0-5.0"}}, {"uniqueid": "w30890258:a93852479", "current_trial": 192, "dateTime": 1664368147395, "trialdata": {"rt": 714, "stimulus": "<p id='stroop-text' class='stroop-red'>GREEN</p>", "response": "r", "stimulus-type": "incongruent", "word": "green", "color": "red", "correct_response": "r", "trial_id": "stroop-trial-1-incongruent-19", "trial_type": "html-keyboard-response", "trial_index": 192, "time_elapsed": 331254, "internal_node_id": "0.0-8.0-6.0"}}, {"uniqueid": "w30890258:a93852479", "current_trial": 193, "dateTime": 1664368148532, "trialdata": {"rt": 633, "stimulus": "<p id='stroop-text' class='stroop-green'>YELLOW</p>", "response": "g", "stimulus-type": "incongruent", "word": "yellow", "color": "green", "correct_response": "g", "trial_id": "stroop-trial-1-incongruent-2", "trial_type": "html-keyboard-response", "trial_index": 193, "time_elapsed": 332390, "internal_node_id": "0.0-8.0-7.0"}}, {"uniqueid": "w30890258:a93852479", "current_trial": 194, "dateTime": 1664368149668, "trialdata": {"rt": 634, "stimulus": "<p id='stroop-text' class='stroop-yellow'>YELLOW</p>", "response": "y", "stimulus-type": "congruent", "word": "yellow", "color": "yellow", "correct_response": "y", "trial_id": "stroop-trial-1-congruent-4", "trial_type": "html-keyboard-response", "trial_index": 194, "time_elapsed": 333526, "internal_node_id": "0.0-8.0-8.0"}}, {"uniqueid": "w30890258:a93852479", "current_trial": 195, "dateTime": 1664368151004, "trialdata": {"rt": 834, "stimulus": "<p id='stroop-text' class='stroop-green'>YELLOW</p>", "response": "g", "stimulus-type": "incongruent", "word": "yellow", "color": "green", "correct_response": "g", "trial_id": "stroop-trial-1-incongruent-27", "trial_type": "html-keyboard-response", "trial_index": 195, "time_elapsed": 334862, "internal_node_id": "0.0-8.0-9.0"}}, {"uniqueid": "w30890258:a93852479", "current_trial": 196, "dateTime": 1664368152076, "trialdata": {"rt": 569, "stimulus": "<p id='stroop-text' class='stroop-green'>SHIP</p>", "response": "g", "stimulus-type": "unrelated", "word": "SHIP", "color": "green", "correct_response": "g", "trial_id": "stroop-trial-1-unrelated-21", "trial_type": "html-keyboard-response", "trial_index": 196, "time_elapsed": 335935, "internal_node_id": "0.0-8.0-10.0"}}, {"uniqueid": "w30890258:a93852479", "current_trial": 197, "dateTime": 1664368153252, "trialdata": {"rt": 675, "stimulus": "<p id='stroop-text' class='stroop-blue'>BOAT</p>", "response": "b", "stimulus-type": "unrelated", "word": "BOAT", "color": "blue", "correct_response": "b", "trial_id": "stroop-trial-1-unrelated-25", "trial_type": "html-keyboard-response", "trial_index": 197, "time_elapsed": 337111, "internal_node_id": "0.0-8.0-11.0"}}, {"uniqueid": "w30890258:a93852479", "current_trial": 198, "dateTime": 1664368154948, "trialdata": {"rt": 1194, "stimulus": "<p id='stroop-text' class='stroop-red'>RED</p>", "response": "r", "stimulus-type": "congruent", "word": "red", "color": "red", "correct_response": "r", "trial_id": "stroop-trial-1-congruent-21", "trial_type": "html-keyboard-response", "trial_index": 198, "time_elapsed": 338807, "internal_node_id": "0.0-8.0-12.0"}}, {"uniqueid": "w30890258:a93852479", "current_trial": 199, "dateTime": 1664368155908, "trialdata": {"rt": 458, "stimulus": "<p id='stroop-text' class='stroop-red'>BLUE</p>", "response": "r", "stimulus-type": "incongruent", "word": "blue", "color": "red", "correct_response": "r", "trial_id": "stroop-trial-1-incongruent-23", "trial_type": "html-keyboard-response", "trial_index": 199, "time_elapsed": 339767, "internal_node_id": "0.0-8.0-13.0"}}, {"uniqueid": "w30890258:a93852479", "current_trial": 200, "dateTime": 1664368157093, "trialdata": {"rt": 683, "stimulus": "<p id='stroop-text' class='stroop-yellow'>YELLOW</p>", "response": "y", "stimulus-type": "congruent", "word": "yellow", "color": "yellow", "correct_response": "y", "trial_id": "stroop-trial-1-congruent-23", "trial_type": "html-keyboard-response", "trial_index": 200, "time_elapsed": 340951, "internal_node_id": "0.0-8.0-14.0"}}, {"uniqueid": "w30890258:a93852479", "current_trial": 201, "dateTime": 1664368158132, "trialdata": {"rt": 537, "stimulus": "<p id='stroop-text' class='stroop-yellow'>GREEN</p>", "response": "y", "stimulus-type": "incongruent", "word": "green", "color": "yellow", "correct_response": "y", "trial_id": "stroop-trial-1-incongruent-7", "trial_type": "html-keyboard-response", "trial_index": 201, "time_elapsed": 341991, "internal_node_id": "0.0-8.0-15.0"}}, {"uniqueid": "w30890258:a93852479", "current_trial": 202, "dateTime": 1664368159173, "trialdata": {"rt": 538, "stimulus": "<p id='stroop-text' class='stroop-green'>GREEN</p>", "response": "g", "stimulus-type": "congruent", "word": "green", "color": "green", "correct_response": "g", "trial_id": "stroop-trial-1-congruent-15", "trial_type": "html-keyboard-response", "trial_index": 202, "time_elapsed": 343031, "internal_node_id": "0.0-8.0-16.0"}}, {"uniqueid": "w30890258:a93852479", "current_trial": 203, "dateTime": 1664368160477, "trialdata": {"rt": 802, "stimulus": "<p id='stroop-text' class='stroop-red'>RED</p>", "response": "r", "stimulus-type": "congruent", "word": "red", "color": "red", "correct_response": "r", "trial_id": "stroop-trial-1-congruent-30", "trial_type": "html-keyboard-response", "trial_index": 203, "time_elapsed": 344336, "internal_node_id": "0.0-8.0-17.0"}}, {"uniqueid": "w30890258:a93852479", "current_trial": 204, "dateTime": 1664368161493, "trialdata": {"rt": 507, "stimulus": "<p id='stroop-text' class='stroop-yellow'>GREEN</p>", "response": "y", "stimulus-type": "incongruent", "word": "green", "color": "yellow", "correct_response": "y", "trial_id": "stroop-trial-1-incongruent-26", "trial_type": "html-keyboard-response", "trial_index": 204, "time_elapsed": 345352, "internal_node_id": "0.0-8.0-18.0"}}, {"uniqueid": "w30890258:a93852479", "current_trial": 205, "dateTime": 1664368162637, "trialdata": {"rt": 642, "stimulus": "<p id='stroop-text' class='stroop-red'>YELLOW</p>", "response": "r", "stimulus-type": "incongruent", "word": "yellow", "color": "red", "correct_response": "r", "trial_id": "stroop-trial-1-incongruent-10", "trial_type": "html-keyboard-response", "trial_index": 205, "time_elapsed": 346496, "internal_node_id": "0.0-8.0-19.0"}}, {"uniqueid": "w30890258:a93852479", "current_trial": 206, "dateTime": 1664368163565, "trialdata": {"rt": 418, "stimulus": "<p id='stroop-text' class='stroop-red'>BLUE</p>", "response": "r", "stimulus-type": "incongruent", "word": "blue", "color": "red", "correct_response": "r", "trial_id": "stroop-trial-1-incongruent-25", "trial_type": "html-keyboard-response", "trial_index": 206, "time_elapsed": 347424, "internal_node_id": "0.0-8.0-20.0"}}, {"uniqueid": "w30890258:a93852479", "current_trial": 207, "dateTime": 1664368164774, "trialdata": {"rt": 706, "stimulus": "<p id='stroop-text' class='stroop-yellow'>BOTTLE</p>", "response": "y", "stimulus-type": "unrelated", "word": "BOTTLE", "color": "yellow", "correct_response": "y", "trial_id": "stroop-trial-1-unrelated-8", "trial_type": "html-keyboard-response", "trial_index": 207, "time_elapsed": 348632, "internal_node_id": "0.0-8.0-21.0"}}, {"uniqueid": "w30890258:a93852479", "current_trial": 208, "dateTime": 1664368165957, "trialdata": {"rt": 682, "stimulus": "<p id='stroop-text' class='stroop-blue'>BLUE</p>", "response": "b", "stimulus-type": "congruent", "word": "blue", "color": "blue", "correct_response": "b", "trial_id": "stroop-trial-1-congruent-7", "trial_type": "html-keyboard-response", "trial_index": 208, "time_elapsed": 349816, "internal_node_id": "0.0-8.0-22.0"}}, {"uniqueid": "w30890258:a93852479", "current_trial": 209, "dateTime": 1664368166853, "trialdata": {"rt": 394, "stimulus": "<p id='stroop-text' class='stroop-blue'>BLUE</p>", "response": "b", "stimulus-type": "congruent", "word": "blue", "color": "blue", "correct_response": "b", "trial_id": "stroop-trial-1-congruent-26", "trial_type": "html-keyboard-response", "trial_index": 209, "time_elapsed": 350712, "internal_node_id": "0.0-8.0-23.0"}}, {"uniqueid": "w30890258:a93852479", "current_trial": 210, "dateTime": 1664368167694, "trialdata": {"rt": 338, "stimulus": "<p id='stroop-text' class='stroop-blue'>GREEN</p>", "response": "b", "stimulus-type": "incongruent", "word": "green", "color": "blue", "correct_response": "b", "trial_id": "stroop-trial-1-incongruent-29", "trial_type": "html-keyboard-response", "trial_index": 210, "time_elapsed": 351552, "internal_node_id": "0.0-8.0-24.0"}}, {"uniqueid": "w30890258:a93852479", "current_trial": 211, "dateTime": 1664368169622, "trialdata": {"rt": 1426, "stimulus": "<p id='stroop-text' class='stroop-yellow'>BRAIN</p>", "response": "y", "stimulus-type": "unrelated", "word": "BRAIN", "color": "yellow", "correct_response": "y", "trial_id": "stroop-trial-1-unrelated-19", "trial_type": "html-keyboard-response", "trial_index": 211, "time_elapsed": 353481, "internal_node_id": "0.0-8.0-25.0"}}, {"uniqueid": "w30890258:a93852479", "current_trial": 212, "dateTime": 1664368170526, "trialdata": {"rt": 402, "stimulus": "<p id='stroop-text' class='stroop-yellow'>YELLOW</p>", "response": "y", "stimulus-type": "congruent", "word": "yellow", "color": "yellow", "correct_response": "y", "trial_id": "stroop-trial-1-congruent-19", "trial_type": "html-keyboard-response", "trial_index": 212, "time_elapsed": 354385, "internal_node_id": "0.0-8.0-26.0"}}, {"uniqueid": "w30890258:a93852479", "current_trial": 213, "dateTime": 1664368171710, "trialdata": {"rt": 682, "stimulus": "<p id='stroop-text' class='stroop-red'>RED</p>", "response": "r", "stimulus-type": "congruent", "word": "red", "color": "red", "correct_response": "r", "trial_id": "stroop-trial-1-congruent-3", "trial_type": "html-keyboard-response", "trial_index": 213, "time_elapsed": 355569, "internal_node_id": "0.0-8.0-27.0"}}, {"uniqueid": "w30890258:a93852479", "current_trial": 214, "dateTime": 1664368172982, "trialdata": {"rt": 770, "stimulus": "<p id='stroop-text' class='stroop-yellow'>GREEN</p>", "response": "y", "stimulus-type": "incongruent", "word": "green", "color": "yellow", "correct_response": "y", "trial_id": "stroop-trial-1-incongruent-21", "trial_type": "html-keyboard-response", "trial_index": 214, "time_elapsed": 356841, "internal_node_id": "0.0-8.0-28.0"}}, {"uniqueid": "w30890258:a93852479", "current_trial": 215, "dateTime": 1664368174319, "trialdata": {"rt": 834, "stimulus": "<p id='stroop-text' class='stroop-red'>BLUE</p>", "response": "r", "stimulus-type": "incongruent", "word": "blue", "color": "red", "correct_response": "r", "trial_id": "stroop-trial-1-incongruent-9", "trial_type": "html-keyboard-response", "trial_index": 215, "time_elapsed": 358177, "internal_node_id": "0.0-8.0-29.0"}}, {"uniqueid": "w30890258:a93852479", "current_trial": 216, "dateTime": 1664368175182, "trialdata": {"rt": 361, "stimulus": "<p id='stroop-text' class='stroop-red'>RED</p>", "response": "r", "stimulus-type": "congruent", "word": "red", "color": "red", "correct_response": "r", "trial_id": "stroop-trial-1-congruent-10", "trial_type": "html-keyboard-response", "trial_index": 216, "time_elapsed": 359041, "internal_node_id": "0.0-8.0-30.0"}}, {"uniqueid": "w30890258:a93852479", "current_trial": 217, "dateTime": 1664368176903, "trialdata": {"rt": 1218, "stimulus": "<p id='stroop-text' class='stroop-yellow'>MONKEY</p>", "response": "y", "stimulus-type": "unrelated", "word": "MONKEY", "color": "yellow", "correct_response": "y", "trial_id": "stroop-trial-1-unrelated-12", "trial_type": "html-keyboard-response", "trial_index": 217, "time_elapsed": 360762, "internal_node_id": "0.0-8.0-31.0"}}, {"uniqueid": "w30890258:a93852479", "current_trial": 218, "dateTime": 1664368178287, "trialdata": {"rt": 882, "stimulus": "<p id='stroop-text' class='stroop-blue'>MONKEY</p>", "response": "b", "stimulus-type": "unrelated", "word": "MONKEY", "color": "blue", "correct_response": "b", "trial_id": "stroop-trial-1-unrelated-23", "trial_type": "html-keyboard-response", "trial_index": 218, "time_elapsed": 362146, "internal_node_id": "0.0-8.0-32.0"}}, {"uniqueid": "w30890258:a93852479", "current_trial": 219, "dateTime": 1664368179151, "trialdata": {"rt": 362, "stimulus": "<p id='stroop-text' class='stroop-blue'>WINDOW</p>", "response": "b", "stimulus-type": "unrelated", "word": "WINDOW", "color": "blue", "correct_response": "b", "trial_id": "stroop-trial-1-unrelated-4", "trial_type": "html-keyboard-response", "trial_index": 219, "time_elapsed": 363010, "internal_node_id": "0.0-8.0-33.0"}}, {"uniqueid": "w30890258:a93852479", "current_trial": 220, "dateTime": 1664368180183, "trialdata": {"rt": 530, "stimulus": "<p id='stroop-text' class='stroop-green'>GREEN</p>", "response": "g", "stimulus-type": "congruent", "word": "green", "color": "green", "correct_response": "g", "trial_id": "stroop-trial-1-congruent-18", "trial_type": "html-keyboard-response", "trial_index": 220, "time_elapsed": 364042, "internal_node_id": "0.0-8.0-34.0"}}, {"uniqueid": "w30890258:a93852479", "current_trial": 221, "dateTime": 1664368181583, "trialdata": {"rt": 898, "stimulus": "<p id='stroop-text' class='stroop-yellow'>GREEN</p>", "response": "y", "stimulus-type": "incongruent", "word": "green", "color": "yellow", "correct_response": "y", "trial_id": "stroop-trial-1-incongruent-15", "trial_type": "html-keyboard-response", "trial_index": 221, "time_elapsed": 365442, "internal_node_id": "0.0-8.0-35.0"}}, {"uniqueid": "w30890258:a93852479", "current_trial": 222, "dateTime": 1664368182823, "trialdata": {"rt": 738, "stimulus": "<p id='stroop-text' class='stroop-red'>STONE</p>", "response": "r", "stimulus-type": "unrelated", "word": "STONE", "color": "red", "correct_response": "r", "trial_id": "stroop-trial-1-unrelated-30", "trial_type": "html-keyboard-response", "tr