{"condition": 1, "counterbalance": 0, "assignmentId": "a41585114", "workerId": "w65685342", "hitId": "h15930601", "currenttrial": 137, "bonus": 0, "data": [{"uniqueid": "w65685342:a41585114", "current_trial": 0, "dateTime": 1664873156400, "trialdata": {"success": true, "trial_type": "fullscreen", "trial_index": 0, "time_elapsed": 4722, "internal_node_id": "0.0-0.0"}}, {"uniqueid": "w65685342:a41585114", "current_trial": 1, "dateTime": 1664873177238, "trialdata": {"view_history": [{"page_index": 0, "viewing_time": 20812}], "rt": 20816, "trial_id": "exp_instructions_no_distractor", "trial_type": "instructions", "trial_index": 1, "time_elapsed": 25561, "internal_node_id": "0.0-1.0"}}, {"uniqueid": "w65685342:a41585114", "current_trial": 2, "dateTime": 1664873181129, "trialdata": {"success": true, "trial_type": "fullscreen", "trial_index": 2, "time_elapsed": 29452, "internal_node_id": "0.0-2.0-0.0"}}, {"uniqueid": "w65685342:a41585114", "current_trial": 3, "dateTime": 1664873351128, "trialdata": {"view_history": [{"page_index": 0, "viewing_time": 49533}, {"page_index": 1, "viewing_time": 85128}, {"page_index": 2, "viewing_time": 9846}, {"page_index": 3, "viewing_time": 8932}, {"page_index": 4, "viewing_time": 16550}], "rt": 169990, "trial_id": "mouselab_instructions_1", "trial_type": "instructions", "trial_index": 3, "time_elapsed": 199452, "internal_node_id": "0.0-2.0-1.0"}}, {"uniqueid": "w65685342:a41585114", "current_trial": 4, "dateTime": 1664873386310, "trialdata": {"revealed_states": [], "num_clicks_accrued": [0, 0, 0, 0, 0, 0, 0, 0, 0, 0, 0, 0, 0], "stateRewards": ["", -10, 10, 10, 10, 10, -10, -10, -10, -10, 10, 10, 10], "withholdReward": false, "trial_id": "practice_1", "block": "test", "trialIndex": 0, "score": -9, "costs": -1, "simulationMode": [null, null, null], "rewards": [10, -10, -10], "path": ["0", "0", "5", "6", "8"], "rt": [24017, 531, 864], "actions": ["right", "right", "down"], "actionTimes": [26143, 27162, 28544], "queries": {"click": {"state": {"target": ["5", "6", "1", "9"], "time": [6429, 12349, 18544, 20134]}, "edge": {"target": [], "time": []}}, "mouseover": {"state": {"target": ["5", "6", "6", "1", "9"], "time": [5961, 11430, 11983, 18095, 19745]}, "edge": {"target": [], "time": []}}, "mouseout": {"state": {"target": ["5", "0", "5", "5", "6", "6", "5", "1"], "time": [1385, 5804, 8368, 11386, 11452, 12852, 18050, 19585]}, "edge": {"target": [], "time": []}}}, "displayed_time": "29.07", "trialTime": 34827, "trial_type": "mouselab-mdp", "trial_index": 4, "time_elapsed": 234632, "internal_node_id": "0.0-2.0-2.0-0.0"}}, {"uniqueid": "w65685342:a41585114", "current_trial": 5, "dateTime": 1664873412456, "trialdata": {"revealed_states": [], "num_clicks_accrued": [0, 0, 0, 0, 0, 0, 0, 0, 0, 0, 0, 0, 0], "stateRewards": ["", 10, -10, -10, -10, -10, 10, 10, 10, -10, 10, -10, 10], "withholdReward": false, "trial_id": "practice_2", "block": "test", "trialIndex": 1, "score": -9.75, "costs": -1.75, "simulationMode": [null, null, null], "rewards": [-10, 10, -10], "path": ["0", "0", "9", "10", "11"], "rt": [18780, 447, 328], "actions": ["left", "left", "up"], "actionTimes": [21133, 22088, 22919], "queries": {"click": {"state": {"target": ["5", "9", "1", "2", "10", "11", "12"], "time": [3387, 5400, 6524, 7465, 12246, 16558, 17947]}, "edge": {"target": [], "time": []}}, "mouseover": {"state": {"target": ["5", "6", "0", "9", "1", "2", "4", "10", "11", "12"], "time": [3107, 4255, 4751, 5053, 6090, 7089, 8357, 11238, 16222, 17651]}, "edge": {"target": [], "time": []}}, "mouseout": {"state": {"target": ["9", "5", "6", "5", "0", "9", "1", "2", "2", "4", "10", "11", "10", "12"], "time": [1321, 4106, 4656, 4704, 4785, 6039, 7057, 7968, 8306, 8873, 16007, 17423, 17551, 18372]}, "edge": {"target": [], "time": []}}}, "displayed_time": "23.43", "trialTime": 25914, "trial_type": "mouselab-mdp", "trial_index": 5, "time_elapsed": 260780, "internal_node_id": "0.0-2.0-2.0-1.0"}}, {"uniqueid": "w65685342:a41585114", "current_trial": 6, "dateTime": 1664873472647, "trialdata": {"view_history": [{"page_index": 0, "viewing_time": 39418}, {"page_index": 1, "viewing_time": 15699}, {"page_index": 2, "viewing_time": 5061}], "rt": 60180, "trial_id": "mouselab_instructions_2_scarce", "trial_type": "instructions", "trial_index": 6, "time_elapsed": 320971, "internal_node_id": "0.0-2.0-3.0"}}, {"uniqueid": "w65685342:a41585114", "current_trial": 7, "dateTime": 1664873504556, "trialdata": {"rt": 31890, "response": {"Q0": "$-48 to $48", "Q1": "The cost is always $0.25.", "Q2": "The better I perform the higher my bonus will be.", "Q3": "No, the amount of cash at each node of the web may be different each time.", "Q4": "The values of the nodes walked through from start to finish.", "Q5": "No, the spider might forget to count the money on some rounds."}, "question_order": [0, 1, 2, 3, 4, 5], "correct": {"Q0": "$-48 to $48", "Q1": "The cost is always $0.25.", "Q2": "The better I perform the higher my bonus will be.", "Q3": "No, the amount of cash at each node of the web may be different each time.", "Q4": "The values of the nodes walked through from start to finish.", "Q5": "No, the spider might forget to count the money on some rounds."}, "trial_id": "mouselab_quiz_scarce", "trial_type": "survey-multi-choice", "trial_index": 7, "time_elapsed": 352880, "internal_node_id": "0.0-2.0-4.0"}}, {"uniqueid": "w65685342:a41585114", "current_trial": 8, "dateTime": 1664873509957, "trialdata": {"rt": 5369, "stimulus": "\n<h1> Get ready to start the game! </h1>\n\nThank you for reading the instructions. Get ready start with the first of 4 block(s) of this game.\n<br><br>\nIn this first block, you will complete 30 rounds of this game before moving on.\n<br><br>\nRemember, the more money the spider gets, the bigger your bonus will be!\n<br><br>\n<div style='text-align: center;'>Press <code>space</code> to begin.</div>\n\n<br><br>\n(If, at any point, the <code>space</code> key does not take you to the next page, click once on the text and try again.)", "response": " ", "trial_id": "mdp_ready_1", "trial_type": "html-keyboard-response", "trial_index": 8, "time_elapsed": 358280, "internal_node_id": "0.0-4.0-0.0"}}, {"uniqueid": "w65685342:a41585114", "current_trial": 9, "dateTime": 1664873541259, "trialdata": {"revealed_states": [], "num_clicks_accrued": [0, 0, 0, 0, 0, 0, 0, 0, 0, 0, 0, 0, 0], "stateRewards": ["", -2, -4, -48, 48, -2, -4, 24, 48, -4, -8, -24, 24], "withholdReward": true, "trial_id": "mdp_917590390609", "block": "test1", "trialIndex": 2, "score": 44.5, "costs": -2.5, "simulationMode": [null, null, null], "rewards": [-2, -4, 48], "path": ["0", "0", "1", "2", "4"], "rt": [24781, 411, 635], "actions": ["up", "up", "left"], "actionTimes": [27104, 28013, 29171], "queries": {"click": {"state": {"target": ["5", "9", "1", "2", "6", "10", "11", "3", "4", "8"], "time": [3566, 5972, 7292, 8603, 10525, 11965, 12919, 14776, 15751, 18124]}, "edge": {"target": [], "time": []}}, "mouseover": {"state": {"target": ["5", "9", "1", "2", "3", "6", "0", "10", "11", "0", "3", "4", "8", "7", "7"], "time": [3218, 5652, 6799, 7940, 9101, 10114, 11417, 11668, 12620, 13504, 14398, 15352, 17816, 18636, 25001]}, "edge": {"target": [], "time": []}}, "mouseout": {"state": {"target": ["0", "5", "5", "9", "1", "2", "3", "5", "6", "5", "0", "9", "10", "11", "9", "0", "5", "3", "2", "4", "1", "5", "8", "6", "7", "7"], "time": [3117, 4151, 4520, 6620, 7919, 9068, 9168, 9535, 11317, 11386, 11453, 11568, 12570, 13435, 13484, 13535, 14153, 15218, 15302, 16135, 16197, 17201, 18520, 18585, 22474, 25319]}, "edge": {"target": [], "time": []}}}, "displayed_time": "29.67", "trialTime": 31076, "trial_type": "mouselab-mdp", "trial_index": 9, "time_elapsed": 389582, "internal_node_id": "0.0-4.0-1.0-0.0"}}, {"uniqueid": "w65685342:a41585114", "current_trial": 10, "dateTime": 1664873564829, "trialdata": {"revealed_states": [], "num_clicks_accrued": [0, 0, 0, 0, 0, 0, 0, 0, 0, 0, 0, 0, 0], "stateRewards": ["", -2, -4, -48, -48, 4, 8, 24, -48, 4, -8, 24, 24], "withholdReward": false, "trial_id": "mdp_749799219195", "block": "test1", "trialIndex": 3, "score": 39, "costs": -2, "simulationMode": [null, null, null], "rewards": [4, 8, 24], "path": ["0", "0", "5", "6", "7"], "rt": [15917, 378, 1302], "actions": ["right", "right", "up"], "actionTimes": [18113, 18988, 20789], "queries": {"click": {"state": {"target": ["5", "6", "8", "7", "1", "2", "9", "10"], "time": [7074, 7963, 8930, 9941, 12107, 12924, 15624, 16688]}, "edge": {"target": [], "time": []}}, "mouseover": {"state": {"target": ["5", "6", "8", "7", "1", "2", "9", "10"], "time": [6775, 7574, 8675, 9620, 11327, 12675, 15356, 16353]}, "edge": {"target": [], "time": []}}, "mouseout": {"state": {"target": ["0", "5", "6", "8", "6", "7", "1", "2", "2", "9"], "time": [5991, 7525, 8575, 9442, 9543, 10742, 12575, 13373, 13591, 16274]}, "edge": {"target": [], "time": []}}}, "displayed_time": "21.29", "trialTime": 23352, "trial_type": "mouselab-mdp", "trial_index": 10, "time_elapsed": 413152, "internal_node_id": "0.0-4.0-1.0-1.0"}}, {"uniqueid": "w65685342:a41585114", "current_trial": 11, "dateTime": 1664873587215, "trialdata": {"revealed_states": [], "num_clicks_accrued": [0, 0, 0, 0, 0, 0, 0, 0, 0, 0, 0, 0, 0], "stateRewards": ["", -2, -8, -24, 48, -2, -8, -48, -48, 2, -8, -48, 24], "withholdReward": true, "trial_id": "mdp_288324580942", "block": "test1", "trialIndex": 4, "score": 40.25, "costs": -2.75, "simulationMode": [null, null, null], "rewards": [-2, -8, 48], "path": ["0", "0", "1", "2", "4"], "rt": [17476, 43, 149], "actions": ["up", "up", "left"], "actionTimes": [19193, 19739, 20396], "queries": {"click": {"state": {"target": ["1", "5", "9", "10", "2", "3", "11", "4", "7", "6", "8"], "time": [2689, 3635, 4516, 5491, 7765, 9263, 10797, 12086, 13629, 14451, 15468]}, "edge": {"target": [], "time": []}}, "mouseover": {"state": {"target": ["1", "5", "0", "9", "10", "11", "2", "3", "4", "11", "4", "7", "6", "8", "12"], "time": [2318, 3316, 4039, 4228, 5216, 6399, 7466, 9030, 10033, 10446, 11350, 13195, 14186, 14995, 17865]}, "edge": {"target": [], "time": []}}, "mouseout": {"state": {"target": ["10", "9", "0", "1", "5", "0", "9", "10", "11", "2", "3", "3", "2", "4", "11", "4", "2", "7", "6", "8"], "time": [1083, 1144, 2168, 3182, 4017, 4112, 5152, 6232, 7200, 8199, 9767, 9917, 10000, 10384, 11236, 12468, 12526, 14067, 14884, 15967]}, "edge": {"target": [], "time": []}}}, "displayed_time": "20.90", "trialTime": 22114, "trial_type": "mouselab-mdp", "trial_index": 11, "time_elapsed": 435539, "internal_node_id": "0.0-4.0-1.0-2.0"}}, {"uniqueid": "w65685342:a41585114", "current_trial": 12, "dateTime": 1664873605685, "trialdata": {"revealed_states": [], "num_clicks_accrued": [0, 0, 0, 0, 0, 0, 0, 0, 0, 0, 0, 0, 0], "stateRewards": ["", 4, 4, -48, -24, -2, -4, 48, 24, -4, 4, 24, -48], "withholdReward": true, "trial_id": "mdp_617383046444", "block": "test1", "trialIndex": 5, "score": 44.5, "costs": -2.5, "simulationMode": [null, null, null], "rewards": [-2, -4, 48], "path": ["0", "0", "5", "6", "7"], "rt": [13304, 87, 451], "actions": ["right", "right", "up"], "actionTimes": [14706, 15298, 16250], "queries": {"click": {"state": {"target": ["5", "6", "7", "1", "2", "4", "3", "9", "11", "10"], "time": [2320, 3334, 4143, 5717, 6550, 7467, 8448, 9733, 10973, 12136]}, "edge": {"target": [], "time": []}}, "mouseover": {"state": {"target": ["5", "6", "7", "1", "2", "4", "3", "9", "11", "10"], "time": [2049, 2949, 3831, 5327, 6266, 7226, 8193, 9395, 10595, 11761]}, "edge": {"target": [], "time": []}}, "mouseout": {"state": {"target": ["12", "0", "5", "6", "7", "6", "5", "1", "2", "4", "2", "3", "1", "9", "11"], "time": [712, 1978, 2747, 3799, 4697, 5132, 5211, 6198, 7098, 8016, 8127, 9248, 9343, 10431, 11699]}, "edge": {"target": [], "time": []}}}, "displayed_time": "16.77", "trialTime": 17982, "trial_type": "mouselab-mdp", "trial_index": 12, "time_elapsed": 454009, "internal_node_id": "0.0-4.0-1.0-3.0"}}, {"uniqueid": "w65685342:a41585114", "current_trial": 13, "dateTime": 1664873617885, "trialdata": {"revealed_states": [], "num_clicks_accrued": [0, 0, 0, 0, 0, 0, 0, 0, 0, 0, 0, 0, 0], "stateRewards": ["", -4, 8, 24, 24, 2, 4, -48, 24, -2, -4, -24, -24], "withholdReward": true, "trial_id": "mdp_752328329546", "block": "test1", "trialIndex": 6, "score": 34, "costs": -1, "simulationMode": [null, null, null], "rewards": [2, 4, 24], "path": ["0", "0", "5", "6", "8"], "rt": [5469, 64, 214], "actions": ["right", "right", "down"], "actionTimes": [7383, 7963, 8711], "queries": {"click": {"state": {"target": ["5", "6", "7", "8"], "time": [2758, 3425, 4017, 4718]}, "edge": {"target": [], "time": []}}, "mouseover": {"state": {"target": ["5", "6", "7", "8"], "time": [2549, 3147, 3732, 4481]}, "edge": {"target": [], "time": []}}, "mouseout": {"state": {"target": ["10", "9", "0", "5", "6", "7", "6", "8"], "time": [1347, 1403, 2499, 3097, 3698, 4299, 4430, 5294]}, "edge": {"target": [], "time": []}}}, "displayed_time": "9.91", "trialTime": 11965, "trial_type": "mouselab-mdp", "trial_index": 13, "time_elapsed": 466209, "internal_node_id": "0.0-4.0-1.0-4.0"}}, {"uniqueid": "w65685342:a41585114", "current_trial": 14, "dateTime": 1664873637822, "trialdata": {"revealed_states": [], "num_clicks_accrued": [0, 0, 0, 0, 0, 0, 0, 0, 0, 0, 0, 0, 0], "stateRewards": ["", 2, 4, -48, -24, -4, 4, -24, 24, -2, -8, -24, 24], "withholdReward": true, "trial_id": "mdp_640720803523", "block": "test1", "trialIndex": 7, "score": 26.25, "costs": -2.75, "simulationMode": [null, null, null], "rewards": [-4, 4, 24], "path": ["0", "0", "5", "6", "8"], "rt": [14203, 273, 215], "actions": ["right", "right", "down"], "actionTimes": [15899, 16678, 17431], "queries": {"click": {"state": {"target": ["5", "1", "2", "4", "3", "9", "10", "11", "6", "7", "8"], "time": [2643, 3623, 4748, 5852, 6919, 8527, 9530, 10453, 12090, 13006, 13968]}, "edge": {"target": [], "time": []}}, "mouseover": {"state": {"target": ["5", "1", "2", "2", "4", "3", "0", "9", "10", "11", "0", "6", "7", "8"], "time": [2360, 3298, 4112, 4265, 5561, 6610, 7964, 8111, 9266, 10099, 11218, 11733, 12614, 13680]}, "edge": {"target": [], "time": []}}, "mouseout": {"state": {"target": ["0", "5", "1", "2", "2", "4", "2", "3", "5", "0", "9", "10", "11", "0", "6", "7", "6"], "time": [2315, 3217, 4086, 4122, 5286, 6500, 6565, 7416, 7915, 8049, 9182, 10014, 11082, 11248, 12497, 13482, 13595]}, "edge": {"target": [], "time": []}}}, "displayed_time": "17.93", "trialTime": 19719, "trial_type": "mouselab-mdp", "trial_index": 14, "time_elapsed": 486146, "internal_node_id": "0.0-4.0-1.0-5.0"}}, {"uniqueid": "w65685342:a41585114", "current_trial": 15, "dateTime": 1664873656496, "trialdata": {"revealed_states": [], "num_clicks_accrued": [0, 0, 0, 0, 0, 0, 0, 0, 0, 0, 0, 0, 0], "stateRewards": ["", -4, 8, -24, -48, 2, 8, -48, -24, -2, -4, 48, -48], "withholdReward": true, "trial_id": "mdp_599927291428", "block": "test1", "trialIndex": 8, "score": 45, "costs": -2, "simulationMode": [null, null, null], "rewards": [-2, -4, 48], "path": ["0", "0", "9", "10", "11"], "rt": [13500, 261, 344], "actions": ["left", "left", "up"], "actionTimes": [15054, 15816, 16659], "queries": {"click": {"state": {"target": ["1", "4", "3", "7", "8", "12", "11", "9"], "time": [2613, 4588, 5818, 6757, 7813, 9353, 10336, 11282]}, "edge": {"target": [], "time": []}}, "mouseover": {"state": {"target": ["1", "5", "2", "4", "2", "3", "7", "6", "8", "12", "10", "11", "9"], "time": [2352, 3319, 3902, 4154, 5134, 5430, 6431, 7218, 7385, 8966, 9851, 10001, 10931]}, "edge": {"target": [], "time": []}}, "mouseout": {"state": {"target": ["8", "0", "1", "5", "2", "4", "2", "3", "7", "6", "8", "12", "10", "11"], "time": [901, 2248, 3234, 3635, 4001, 5085, 5155, 6296, 7168, 7319, 8251, 9820, 9935, 10803]}, "edge": {"target": [], "time": []}}}, "displayed_time": "17.17", "trialTime": 18412, "trial_type": "mouselab-mdp", "trial_index": 15, "time_elapsed": 504820, "internal_node_id": "0.0-4.0-1.0-6.0"}}, {"uniqueid": "w65685342:a41585114", "current_trial": 16, "dateTime": 1664873666940, "trialdata": {"revealed_states": [], "num_clicks_accrued": [0, 0, 0, 0, 0, 0, 0, 0, 0, 0, 0, 0, 0], "stateRewards": ["", 4, 8, -24, 48, 4, -8, -48, 48, -4, 8, -24, -48], "withholdReward": false, "trial_id": "mdp_376126356841", "block": "test1", "trialIndex": 9, "score": 64.25, "costs": -0.75, "simulationMode": [null, null, null], "rewards": [4, 8, 48], "path": ["0", "0", "1", "2", "4"], "rt": [5319, 250, 538], "actions": ["up", "up", "left"], "actionTimes": [6706, 7457, 8490], "queries": {"click": {"state": {"target": ["1", "4", "2"], "time": [2988, 4525, 5505]}, "edge": {"target": [], "time": []}}, "mouseover": {"state": {"target": ["5", "1", "2", "4", "2"], "time": [2105, 2702, 3589, 4222, 5022]}, "edge": {"target": [], "time": []}}, "mouseout": {"state": {"target": ["9", "0", "5", "1", "2", "4"], "time": [855, 2022, 2538, 3489, 3768, 4955]}, "edge": {"target": [], "time": []}}}, "displayed_time": "9.01", "trialTime": 10209, "trial_type": "mouselab-mdp", "trial_index": 16, "time_elapsed": 515263, "internal_node_id": "0.0-4.0-1.0-7.0"}}, {"uniqueid": "w65685342:a41585114", "current_trial": 17, "dateTime": 1664873678567, "trialdata": {"revealed_states": [], "num_clicks_accrued": [0, 0, 0, 0, 0, 0, 0, 0, 0, 0, 0, 0, 0], "stateRewards": ["", -4, 4, -24, 24, 2, 4, -24, 48, -4, 8, -48, 48], "withholdReward": true, "trial_id": "mdp_422109108860", "block": "test1", "trialIndex": 10, "score": 28.25, "costs": -0.75, "simulationMode": [null, null, null], "rewards": [-4, 4, 24], "path": ["0", "0", "1", "2", "4"], "rt": [5367, 82, 292], "actions": ["up", "up", "left"], "actionTimes": [7011, 7595, 8407], "queries": {"click": {"state": {"target": ["1", "4", "2"], "time": [3600, 4754, 5795]}, "edge": {"target": [], "time": []}}, "mouseover": {"state": {"target": ["1", "4", "2"], "time": [3312, 4379, 5500]}, "edge": {"target": [], "time": []}}, "mouseout": {"state": {"target": ["2", "1", "1", "4"], "time": [966, 1066, 4213, 5233]}, "edge": {"target": [], "time": []}}}, "displayed_time": "10.65", "trialTime": 11414, "trial_type": "mouselab-mdp", "trial_index": 17, "time_elapsed": 526891, "internal_node_id": "0.0-4.0-1.0-8.0"}}, {"uniqueid": "w65685342:a41585114", "current_trial": 18, "dateTime": 1664873695779, "trialdata": {"revealed_states": [], "num_clicks_accrued": [0, 0, 0, 0, 0, 0, 0, 0, 0, 0, 0, 0, 0], "stateRewards": ["", 2, -4, -48, 24, -4, 4, 24, 24, 2, -8, -24, -48], "withholdReward": true, "trial_id": "mdp_807654778305", "block": "test1", "trialIndex": 11, "score": 27.25, "costs": -1.75, "simulationMode": [null, null, null], "rewards": [-4, 4, 24], "path": ["0", "0", "5", "6", "7"], "rt": [12314, 144, 617], "actions": ["right", "right", "up"], "actionTimes": [13734, 14377, 15490], "queries": {"click": {"state": {"target": ["1", "4", "2", "11", "7", "5", "6"], "time": [2517, 3685, 4794, 6767, 7734, 9549, 10286]}, "edge": {"target": [], "time": []}}, "mouseover": {"state": {"target": ["1", "2", "4", "2", "2", "3", "11", "7", "6", "6", "5", "6"], "time": [2053, 3121, 3416, 4203, 4453, 5371, 6483, 7482, 8453, 8904, 9200, 10021]}, "edge": {"target": [], "time": []}}, "mouseout": {"state": {"target": ["2", "1", "1", "2", "4", "2", "2", "3", "11", "1", "7", "6", "6", "5", "6"], "time": [654, 769, 3053, 3353, 4169, 4302, 5286, 5953, 7120, 7220, 8403, 8521, 9154, 9937, 10789]}, "edge": {"target": [], "time": []}}}, "displayed_time": "15.98", "trialTime": 16963, "trial_type": "mouselab-mdp", "trial_index": 18, "time_elapsed": 544103, "internal_node_id": "0.0-4.0-1.0-9.0"}}, {"uniqueid": "w65685342:a41585114", "current_trial": 19, "dateTime": 1664873710538, "trialdata": {"revealed_states": [], "num_clicks_accrued": [0, 0, 0, 0, 0, 0, 0, 0, 0, 0, 0, 0, 0], "stateRewards": ["", -2, -4, -48, 48, -4, 4, -48, 24, -4, -8, 24, 48], "withholdReward": true, "trial_id": "mdp_264482284450", "block": "test1", "trialIndex": 12, "score": 45.5, "costs": -1.5, "simulationMode": [null, null, null], "rewards": [-2, -4, 48], "path": ["0", "0", "1", "2", "4"], "rt": [10337, 88, 126], "actions": ["up", "up", "left"], "actionTimes": [11723, 12311, 12949], "queries": {"click": {"state": {"target": ["4", "2", "1", "11", "7", "9"], "time": [2245, 5021, 5872, 7683, 9005, 9842]}, "edge": {"target": [], "time": []}}, "mouseover": {"state": {"target": ["1", "4", "1", "1", "2", "1", "11", "7", "9"], "time": [1738, 1921, 2858, 4072, 4426, 5557, 7426, 8614, 9693]}, "edge": {"target": [], "time": []}}, "mouseout": {"state": {"target": ["0", "1", "4", "1", "1", "2", "1", "11", "1", "7"], "time": [1681, 1788, 2728, 3809, 4361, 5475, 6877, 8292, 8421, 9442]}, "edge": {"target": [], "time": []}}}, "displayed_time": "13.44", "trialTime": 14495, "trial_type": "mouselab-mdp", "trial_index": 19, "time_elapsed": 558862, "internal_node_id": "0.0-4.0-1.0-10.0"}}, {"uniqueid": "w65685342:a41585114", "current_trial": 20, "dateTime": 1664873722757, "trialdata": {"revealed_states": [], "num_clicks_accrued": [0, 0, 0, 0, 0, 0, 0, 0, 0, 0, 0, 0, 0], "stateRewards": ["", -4, -4, -24, 24, 4, 4, -24, -24, -4, 4, 24, 24], "withholdReward": true, "trial_id": "mdp_787781487383", "block": "test1", "trialIndex": 13, "score": 27.5, "costs": -1.5, "simulationMode": [null, null, null], "rewards": [-4, 4, 24], "path": ["0", "0", "9", "10", "11"], "rt": [8152, 90, 101], "actions": ["left", "left", "up"], "actionTimes": [9398, 9985, 10596], "queries": {"click": {"state": {"target": ["4", "2", "1", "11", "9", "10"], "time": [2599, 3750, 4581, 5850, 6931, 8212]}, "edge": {"target": [], "time": []}}, "mouseover": {"state": {"target": ["1", "4", "1", "2", "1", "11", "9", "10"], "time": [1998, 2380, 3231, 3463, 4248, 5581, 6513, 7931]}, "edge": {"target": [], "time": []}}, "mouseout": {"state": {"target": ["9", "0", "1", "4", "1", "2", "1", "11", "9", "10"], "time": [747, 1930, 2230, 3096, 3431, 4180, 5464, 6313, 7547, 8698]}, "edge": {"target": [], "time": []}}}, "displayed_time": "11.10", "trialTime": 12002, "trial_type": "mouselab-mdp", "trial_index": 20, "time_elapsed": 571081, "internal_node_id": "0.0-4.0-1.0-11.0"}}, {"uniqueid": "w65685342:a41585114", "current_trial": 21, "dateTime": 1664873739106, "trialdata": {"revealed_states": [], "num_clicks_accrued": [0, 0, 0, 0, 0, 0, 0, 0, 0, 0, 0, 0, 0], "stateRewards": ["", 4, -8, -48, 24, 4, 4, -24, -24, 2, 4, -48, 24], "withholdReward": true, "trial_id": "mdp_626971397185", "block": "test1", "trialIndex": 14, "score": 32.75, "costs": -2.25, "simulationMode": [null, null, null], "rewards": [2, 4, 24], "path": ["0", "0", "9", "10", "12"], "rt": [11719, 143, 620], "actions": ["left", "left", "down"], "actionTimes": [13007, 13641, 14756], "queries": {"click": {"state": {"target": ["4", "2", "1", "7", "8", "11", "12", "10", "9"], "time": [2715, 3719, 4385, 6184, 7352, 8198, 9217, 10443, 11100]}, "edge": {"target": [], "time": []}}, "mouseover": {"state": {"target": ["1", "2", "4", "2", "1", "3", "7", "6", "8", "9", "11", "10", "12", "10", "9"], "time": [1812, 2012, 2533, 3395, 4121, 5201, 5729, 6669, 6984, 7801, 7867, 8768, 8930, 10152, 10884]}, "edge": {"target": [], "time": []}}, "mouseout": {"state": {"target": ["9", "0", "1", "2", "4", "2", "1", "3", "7", "6", "8", "9", "11", "10", "12", "10"], "time": [715, 1717, 1879, 2046, 3235, 4067, 4800, 5585, 6585, 6885, 7700, 7835, 8717, 8846, 10051, 10816]}, "edge": {"target": [], "time": []}}}, "displayed_time": "15.25", "trialTime": 16087, "trial_type": "mouselab-mdp", "trial_index": 21, "time_elapsed": 587430, "internal_node_id": "0.0-4.0-1.0-12.0"}}, {"uniqueid": "w65685342:a41585114", "current_trial": 22, "dateTime": 1664873751458, "trialdata": {"revealed_states": [], "num_clicks_accrued": [0, 0, 0, 0, 0, 0, 0, 0, 0, 0, 0, 0, 0], "stateRewards": ["", 2, -4, -24, -48, -2, 8, -24, 48, -2, 8, 24, -48], "withholdReward": false, "trial_id": "mdp_566582551557", "block": "test1", "trialIndex": 15, "score": 33.5, "costs": -1.5, "simulationMode": [null, null, null], "rewards": [-2, 8, 24], "path": ["0", "0", "9", "10", "11"], "rt": [8172, 141, 159], "actions": ["left", "left", "up"], "actionTimes": [9206, 9853, 10505], "queries": {"click": {"state": {"target": ["4", "3", "7", "11", "10", "9"], "time": [2314, 3550, 4264, 5239, 6128, 6915]}, "edge": {"target": [], "time": []}}, "mouseover": {"state": {"target": ["1", "4", "2", "3", "3", "7", "1", "11", "10", "9"], "time": [1480, 2066, 2780, 2877, 3313, 4016, 4760, 5026, 5765, 6598]}, "edge": {"target": [], "time": []}}, "mouseout": {"state": {"target": ["9", "1", "4", "2", "3", "3", "7", "1", "11", "10"], "time": [563, 1546, 2748, 2827, 2942, 3918, 4713, 4793, 5699, 6498]}, "edge": {"target": [], "time": []}}}, "displayed_time": "11.01", "trialTime": 12086, "trial_type": "mouselab-mdp", "trial_index": 22, "time_elapsed": 599782, "internal_node_id": "0.0-4.0-1.0-13.0"}}, {"uniqueid": "w65685342:a41585114", "current_trial": 23, "dateTime": 1664873762323, "trialdata": {"revealed_states": [], "num_clicks_accrued": [0, 0, 0, 0, 0, 0, 0, 0, 0, 0, 0, 0, 0], "stateRewards": ["", 2, -4, -48, 24, 4, 4, 48, -48, -2, -4, -24, -48], "withholdReward": true, "trial_id": "mdp_858916930936", "block": "test1", "trialIndex": 16, "score": 59.5, "costs": -1.5, "simulationMode": [null, null, null], "rewards": [4, 4, 48], "path": ["0", "0", "5", "6", "7"], "rt": [6471, 132, 403], "actions": ["right", "right", "up"], "actionTimes": [7843, 8484, 9390], "queries": {"click": {"state": {"target": ["4", "2", "1", "7", "5", "6"], "time": [2325, 3416, 4087, 5173, 6301, 6998]}, "edge": {"target": [], "time": []}}, "mouseover": {"state": {"target": ["1", "4", "2", "2", "1", "3", "7", "5", "6"], "time": [1870, 2037, 2810, 3086, 3801, 4637, 4865, 6004, 6686]}, "edge": {"target": [], "time": []}}, "mouseout": {"state": {"target": ["9", "0", "1", "4", "2", "2", "1", "3", "7", "5"], "time": [851, 1804, 1904, 2771, 2865, 3774, 4520, 4765, 5540, 6636]}, "edge": {"target": [], "time": []}}}, "displayed_time": "9.88", "trialTime": 10590, "trial_type": "mouselab-mdp", "trial_index": 23, "time_elapsed": 610647, "internal_node_id": "0.0-4.0-1.0-14.0"}}, {"uniqueid": "w65685342:a41585114", "current_trial": 24, "dateTime": 1664873772579, "trialdata": {"revealed_states": [], "num_clicks_accrued": [0, 0, 0, 0, 0, 0, 0, 0, 0, 0, 0, 0, 0], "stateRewards": ["", 4, 4, 48, -48, -2, -8, -48, -24, 2, 4, -24, -48], "withholdReward": true, "trial_id": "mdp_239929662917", "block": "test1", "trialIndex": 17, "score": 60, "costs": -1, "simulationMode": [null, null, null], "rewards": [4, 4, 48], "path": ["0", "0", "1", "2", "3"], "rt": [5296, 77, 19], "actions": ["up", "up", "right"], "actionTimes": [6521, 7106, 7646], "queries": {"click": {"state": {"target": ["4", "3", "2", "1"], "time": [3156, 3962, 5048, 5767]}, "edge": {"target": [], "time": []}}, "mouseover": {"state": {"target": ["4", "4", "2", "3", "2", "1"], "time": [2110, 2835, 3554, 3644, 4766, 5516]}, "edge": {"target": [], "time": []}}, "mouseout": {"state": {"target": ["6", "5", "0", "4", "4", "2", "3", "2"], "time": [647, 730, 1526, 2177, 3532, 3594, 4319, 5432]}, "edge": {"target": [], "time": []}}}, "displayed_time": "9.23", "trialTime": 9988, "trial_type": "mouselab-mdp", "trial_index": 24, "time_elapsed": 620901, "internal_node_id": "0.0-4.0-1.0-15.0"}}, {"uniqueid": "w65685342:a41585114", "current_trial": 25, "dateTime": 1664873782764, "trialdata": {"revealed_states": [], "num_clicks_accrued": [0, 0, 0, 0, 0, 0, 0, 0, 0, 0, 0, 0, 0], "stateRewards": ["", 4, 4, 24, -48, 2, -8, -24, -48, 4, 8, 48, 48], "withholdReward": true, "trial_id": "mdp_592471239511", "block": "test1", "trialIndex": 18, "score": 63.75, "costs": -1.25, "simulationMode": [null, null, null], "rewards": [4, 8, 48], "path": ["0", "0", "9", "10", "11"], "rt": [5341, 274, 250], "actions": ["left", "left", "up"], "actionTimes": [6360, 7135, 7895], "queries": {"click": {"state": {"target": ["4", "7", "11", "9", "10"], "time": [1898, 2831, 3806, 4946, 5554]}, "edge": {"target": [], "time": []}}, "mouseover": {"state": {"target": ["4", "2", "7", "11", "9", "10"], "time": [1616, 2305, 2561, 3494, 4710, 5315]}, "edge": {"target": [], "time": []}}, "mouseout": {"state": {"target": ["1", "0", "4", "2", "7", "11", "9"], "time": [548, 1456, 2282, 2343, 3200, 4181, 5250]}, "edge": {"target": [], "time": []}}}, "displayed_time": "9.02", "trialTime": 9925, "trial_type": "mouselab-mdp", "trial_index": 25, "time_elapsed": 631088, "internal_node_id": "0.0-4.0-1.0-16.0"}}, {"uniqueid": "w65685342:a41585114", "current_trial": 26, "dateTime": 1664873795814, "trialdata": {"revealed_states": [], "num_clicks_accrued": [0, 0, 0, 0, 0, 0, 0, 0, 0, 0, 0, 0, 0], "stateRewards": ["", 4, -4, 48, -48, 4, -4, 24, -24, 4, 8, -24, -48], "withholdReward": false, "trial_id": "mdp_433630527224", "block": "test1", "trialIndex": 19, "score": 51.25, "costs": -1.75, "simulationMode": [null, null, null], "rewards": [4, -4, 48], "path": ["0", "0", "1", "2", "3"], "rt": [9045, 36, 79], "actions": ["up", "up", "right"], "actionTimes": [10264, 10819, 11401], "queries": {"click": {"state": {"target": ["4", "11", "12", "7", "3", "1", "2"], "time": [1920, 2801, 3721, 4822, 6050, 7203, 8535]}, "edge": {"target": [], "time": []}}, "mouseover": {"state": {"target": ["1", "4", "11", "10", "12", "0", "5", "7", "3", "1", "2", "2"], "time": [1549, 1665, 2503, 3222, 3450, 4087, 4153, 4348, 5665, 6872, 7573, 8287]}, "edge": {"target": [], "time": []}}, "mouseout": {"state": {"target": ["10", "9", "0", "1", "4", "11", "10", "12", "0", "5", "7", "3", "7", "1", "2", "2"], "time": [552, 719, 1487, 1565, 2354, 3186, 3265, 4037, 4118, 4180, 5564, 6370, 6523, 7537, 7619, 9104]}, "edge": {"target": [], "time": []}}}, "displayed_time": "11.90", "trialTime": 12812, "trial_type": "mouselab-mdp", "trial_index": 26, "time_elapsed": 644137, "internal_node_id": "0.0-4.0-1.0-17.0"}}, {"uniqueid": "w65685342:a41585114", "current_trial": 27, "dateTime": 1664873807339, "trialdata": {"revealed_states": [], "num_clicks_accrued": [0, 0, 0, 0, 0, 0, 0, 0, 0, 0, 0, 0, 0], "stateRewards": ["", 4, 8, 48, 48, 4, 4, -24, -48, 4, 8, -48, -48], "withholdReward": true, "trial_id": "mdp_984548726931", "block": "test1", "trialIndex": 20, "score": 64, "costs": -1, "simulationMode": [null, null, null], "rewards": [4, 8, 48], "path": ["0", "0", "1", "2", "3"], "rt": [5620, 151, 78], "actions": ["up", "up", "right"], "actionTimes": [6800, 7450, 8025], "queries": {"click": {"state": {"target": ["3", "4", "2", "1"], "time": [2183, 3300, 4446, 5642]}, "edge": {"target": [], "time": []}}, "mouseover": {"state": {"target": ["3", "2", "4", "2", "1"], "time": [1579, 2666, 2930, 4112, 4964]}, "edge": {"target": [], "time": []}}, "mouseout": {"state": {"target": ["1", "3", "2", "4", "2", "1"], "time": [597, 2635, 2729, 3918, 4852, 6033]}, "edge": {"target": [], "time": []}}}, "displayed_time": "10.18", "trialTime": 11269, "trial_type": "mouselab-mdp", "trial_index": 27, "time_elapsed": 655663, "internal_node_id": "0.0-4.0-1.0-18.0"}}, {"uniqueid": "w65685342:a41585114", "current_trial": 28, "dateTime": 1664873828607, "trialdata": {"revealed_states": [], "num_clicks_accrued": [0, 0, 0, 0, 0, 0, 0, 0, 0, 0, 0, 0, 0], "stateRewards": ["", -4, 4, -48, -48, -2, -8, -48, -24, 4, 8, -24, 24], "withholdReward": true, "trial_id": "mdp_449260894259", "block": "test1", "trialIndex": 21, "score": 39.25, "costs": -1.75, "simulationMode": [null, null, null], "rewards": [4, 8, 24], "path": ["0", "0", "9", "10", "12"], "rt": [16877, 142, 535], "actions": ["left", "left", "down"], "actionTimes": [18046, 18684, 19715], "queries": {"click": {"state": {"target": ["4", "7", "8", "11", "12", "3", "10"], "time": [2059, 7016, 9562, 10673, 11610, 13916, 16174]}, "edge": {"target": [], "time": []}}, "mouseover": {"state": {"target": ["1", "2", "4", "2", "3", "7", "6", "8", "11", "10", "12", "10", "9", "1", "3", "1", "9", "10", "9"], "time": [1473, 1623, 1807, 5908, 5989, 6577, 8727, 8990, 10294, 11106, 11223, 12491, 13145, 13209, 13573, 14340, 14540, 15627, 16694]}, "edge": {"target": [], "time": []}}, "mouseout": {"state": {"target": ["0", "1", "2", "4", "2", "3", "7", "6", "8", "11", "10", "12", "10", "9", "1", "3", "1", "9", "10"], "time": [1429, 1541, 1673, 5879, 5956, 6039, 8561, 8882, 9910, 11062, 11156, 12257, 13131, 13159, 13423, 14278, 14358, 14727, 16628]}, "edge": {"target": [], "time": []}}}, "displayed_time": "20.21", "trialTime": 21012, "trial_type": "mouselab-mdp", "trial_index": 28, "time_elapsed": 676930, "internal_node_id": "0.0-4.0-1.0-19.0"}}, {"uniqueid": "w65685342:a41585114", "current_trial": 29, "dateTime": 1664873839909, "trialdata": {"revealed_states": [], "num_clicks_accrued": [0, 0, 0, 0, 0, 0, 0, 0, 0, 0, 0, 0, 0], "stateRewards": ["", -2, 8, 48, 48, 2, 4, -48, 24, -4, -8, 48, 24], "withholdReward": true, "trial_id": "mdp_572910394648", "block": "test1", "trialIndex": 22, "score": 58.25, "costs": -0.75, "simulationMode": [null, null, null], "rewards": [-2, 8, 48], "path": ["0", "0", "1", "2", "4"], "rt": [3147, 115, 81], "actions": ["up", "up", "left"], "actionTimes": [4342, 4955, 5531], "queries": {"click": {"state": {"target": ["4", "2", "1"], "time": [1764, 2732, 3360]}, "edge": {"target": [], "time": []}}, "mouseover": {"state": {"target": ["1", "4", "2", "2", "1"], "time": [1366, 1437, 2166, 2449, 3084]}, "edge": {"target": [], "time": []}}, "mouseout": {"state": {"target": ["9", "1", "4", "2", "2"], "time": [569, 1402, 2138, 2251, 3056]}, "edge": {"target": [], "time": []}}}, "displayed_time": "9.20", "trialTime": 11041, "trial_type": "mouselab-mdp", "trial_index": 29, "time_elapsed": 688233, "internal_node_id": "0.0-4.0-1.0-20.0"}}, {"uniqueid": "w65685342:a41585114", "current_trial": 30, "dateTime": 1664873909635, "trialdata": {"revealed_states": [], "num_clicks_accrued": [0, 0, 0, 0, 0, 0, 0, 0, 0, 0, 0, 0, 0], "stateRewards": ["", -2, 8, -48, -24, -2, 8, 48, -48, -4, 8, 24, 48], "withholdReward": true, "trial_id": "mdp_160707003673", "block": "test1", "trialIndex": 23, "score": 58, "costs": -1, "simulationMode": [null, null, null], "rewards": [-2, 8, 48], "path": ["0", "0", "5", "6", "7"], "rt": [59751, 100, 925], "actions": ["right", "right", "up"], "actionTimes": [62984, 63598, 65041], "queries": {"click": {"state": {"target": ["4", "7", "5", "6"], "time": [27850, 37401, 52567, 53518]}, "edge": {"target": [], "time": []}}, "mouseover": {"state": {"target": ["1", "1", "4", "2", "3", "7", "6", "5", "6"], "time": [11298, 27220, 27464, 29069, 29203, 36952, 38036, 52218, 53152]}, "edge": {"target": [], "time": []}}, "mouseout": {"state": {"target": ["1", "1", "1", "4", "2", "3", "7", "6", "5"], "time": [2635, 24536, 27251, 28970, 29153, 29234, 37936, 39219, 53085]}, "edge": {"target": [], "time": []}}}, "displayed_time": "65.53", "trialTime": 69481, "trial_type": "mouselab-mdp", "trial_index": 30, "time_elapsed": 757958, "internal_node_id": "0.0-4.0-1.0-21.0"}}, {"uniqueid": "w65685342:a41585114", "current_trial": 31, "dateTime": 1664873920958, "trialdata": {"revealed_states": [], "num_clicks_accrued": [0, 0, 0, 0, 0, 0, 0, 0, 0, 0, 0, 0, 0], "stateRewards": ["", 4, 4, 24, 24, 4, -4, 48, 48, 4, 4, 24, -48], "withholdReward": false, "trial_id": "mdp_454251689008", "block": "test1", "trialIndex": 24, "score": 51.75, "costs": -1.25, "simulationMode": [null, null, null], "rewards": [4, -4, 48], "path": ["0", "0", "5", "6", "7"], "rt": [6515, 18, 230], "actions": ["right", "right", "up"], "actionTimes": [7978, 8497, 9260], "queries": {"click": {"state": {"target": ["4", "2", "1", "7", "5"], "time": [2724, 3610, 4279, 5374, 6735]}, "edge": {"target": [], "time": []}}, "mouseover": {"state": {"target": ["1", "2", "4", "2", "1", "7", "6", "5", "6"], "time": [2067, 2317, 2484, 3366, 3968, 5128, 5984, 6451, 7140]}, "edge": {"target": [], "time": []}}, "mouseout": {"state": {"target": ["6", "5", "0", "1", "2", "4", "2", "1", "7", "6", "5"], "time": [734, 884, 1044, 2112, 2384, 3199, 3917, 4899, 5900, 6100, 7083]}, "edge": {"target": [], "time": []}}}, "displayed_time": "10.46", "trialTime": 11069, "trial_type": "mouselab-mdp", "trial_index": 31, "time_elapsed": 769282, "internal_node_id": "0.0-4.0-1.0-22.0"}}, {"uniqueid": "w65685342:a41585114", "current_trial": 32, "dateTime": 1664873931776, "trialdata": {"revealed_states": [], "num_clicks_accrued": [0, 0, 0, 0, 0, 0, 0, 0, 0, 0, 0, 0, 0], "stateRewards": ["", -2, 4, -48, -48, -4, -8, 48, -48, 2, 4, 48, -48], "withholdReward": false, "trial_id": "mdp_258647270500", "block": "test1", "trialIndex": 25, "score": 57.25, "costs": -1.75, "simulationMode": [null, null, null], "rewards": [2, 4, 48], "path": ["0", "0", "9", "10", "11"], "rt": [6901, 98, 74], "actions": ["left", "left", "up"], "actionTimes": [8182, 8777, 9361], "queries": {"click": {"state": {"target": ["4", "7", "6", "5", "11", "10", "9"], "time": [2047, 3021, 3995, 4697, 5870, 6672, 7286]}, "edge": {"target": [], "time": []}}, "mouseover": {"state": {"target": ["1", "4", "2", "7", "6", "6", "5", "0", "10", "11", "10", "9"], "time": [1600, 1783, 2490, 2744, 3481, 3768, 4462, 5116, 5312, 5529, 6361, 7063]}, "edge": {"target": [], "time": []}}, "mouseout": {"state": {"target": ["6", "5", "1", "4", "2", "7", "6", "6", "5", "0", "10", "11", "10"], "time": [616, 731, 1628, 2465, 2545, 3383, 3629, 4370, 5085, 5145, 5395, 6299, 7019]}, "edge": {"target": [], "time": []}}}, "displayed_time": "9.87", "trialTime": 10570, "trial_type": "mouselab-mdp", "trial_index": 32, "time_elapsed": 780100, "internal_node_id": "0.0-4.0-1.0-23.0"}}, {"uniqueid": "w65685342:a41585114", "current_trial": 33, "dateTime": 1664873943085, "trialdata": {"revealed_states": [], "num_clicks_accrued": [0, 0, 0, 0, 0, 0, 0, 0, 0, 0, 0, 0, 0], "stateRewards": ["", 4, 4, 24, -24, -4, -8, 48, -24, 4, 4, 48, 24], "withholdReward": true, "trial_id": "mdp_822446942217", "block": "test1", "trialIndex": 26, "score": 59.5, "costs": -1.5, "simulationMode": [null, null, null], "rewards": [4, 4, 48], "path": ["0", "0", "9", "10", "11"], "rt": [6425, 32, 914], "actions": ["left", "left", "up"], "actionTimes": [7825, 8358, 9791], "queries": {"click": {"state": {"target": ["4", "7", "5", "6", "11", "10"], "time": [2263, 3350, 4281, 4891, 5996, 6759]}, "edge": {"target": [], "time": []}}, "mouseover": {"state": {"target": ["4", "2", "7", "5", "6", "0", "11", "10", "9"], "time": [1977, 2696, 3025, 4011, 4645, 5491, 5726, 6479, 7128]}, "edge": {"target": [], "time": []}}, "mouseout": {"state": {"target": ["9", "0", "4", "2", "7", "5", "6", "5", "0", "11", "10"], "time": [609, 1679, 2661, 2729, 3797, 4596, 5446, 5475, 5509, 6413, 7080]}, "edge": {"target": [], "time": []}}}, "displayed_time": "10.30", "trialTime": 11042, "trial_type": "mouselab-mdp", "trial_index": 33, "time_elapsed": 791409, "internal_node_id": "0.0-4.0-1.0-24.0"}}, {"uniqueid": "w65685342:a41585114", "current_trial": 34, "dateTime": 1664873954998, "trialdata": {"revealed_states": [], "num_clicks_accrued": [0, 0, 0, 0, 0, 0, 0, 0, 0, 0, 0, 0, 0], "stateRewards": ["", -2, -4, -24, 48, -4, 8, 48, 48, 2, 8, -48, -24], "withholdReward": false, "trial_id": "mdp_136376573354", "block": "test1", "trialIndex": 27, "score": 56, "costs": -1, "simulationMode": [null, null, null], "rewards": [-4, 8, 48], "path": ["0", "0", "5", "6", "8"], "rt": [4604, 674, 530], "actions": ["right", "right", "down"], "actionTimes": [5689, 6857, 7882], "queries": {"click": {"state": {"target": ["3", "8", "5", "6"], "time": [1966, 2938, 3884, 4544]}, "edge": {"target": [], "time": []}}, "mouseover": {"state": {"target": ["1", "3", "8", "6", "5", "6"], "time": [1488, 1632, 2733, 3450, 3671, 4299]}, "edge": {"target": [], "time": []}}, "mouseout": {"state": {"target": ["9", "0", "1", "3", "8", "6", "5", "6"], "time": [606, 715, 1545, 2389, 3307, 3621, 4238, 4955]}, "edge": {"target": [], "time": []}}}, "displayed_time": "11.09", "trialTime": 11645, "trial_type": "mouselab-mdp", "trial_index": 34, "time_elapsed": 803322, "internal_node_id": "0.0-4.0-1.0-25.0"}}, {"uniqueid": "w65685342:a41585114", "current_trial": 35, "dateTime": 1664873970240, "trialdata": {"revealed_states": [], "num_clicks_accrued": [0, 0, 0, 0, 0, 0, 0, 0, 0, 0, 0, 0, 0], "stateRewards": ["", -2, -8, 48, 24, 4, -8, 24, 48, 4, -4, 24, -48], "withholdReward": true, "trial_id": "mdp_871576155740", "block": "test1", "trialIndex": 28, "score": 47.5, "costs": -1.5, "simulationMode": [null, null, null], "rewards": [4, -8, 48], "path": ["0", "0", "5", "6", "8"], "rt": [10123, 165, 188], "actions": ["right", "right", "down"], "actionTimes": [11318, 11975, 12681], "queries": {"click": {"state": {"target": ["4", "7", "6", "12", "11", "8"], "time": [3106, 4580, 5441, 7558, 8433, 9394]}, "edge": {"target": [], "time": []}}, "mouseover": {"state": {"target": ["1", "4", "1", "7", "6", "5", "0", "9", "10", "12", "10", "11", "0", "8"], "time": [2546, 2691, 3908, 4207, 5091, 6231, 6516, 6559, 6674, 6975, 8029, 8179, 8903, 9125]}, "edge": {"target": [], "time": []}}, "mouseout": {"state": {"target": ["5", "1", "4", "1", "7", "6", "5", "0", "9", "10", "12", "10", "11", "0", "8"], "time": [660, 2579, 3580, 4058, 5010, 5881, 6482, 6540, 6608, 6890, 7979, 8095, 8780, 8925, 10529]}, "edge": {"target": [], "time": []}}}, "displayed_time": "13.18", "trialTime": 14995, "trial_type": "mouselab-mdp", "trial_index": 35, "time_elapsed": 818563, "internal_node_id": "0.0-4.0-1.0-26.0"}}, {"uniqueid": "w65685342:a41585114", "current_trial": 36, "dateTime": 1664873980399, "trialdata": {"revealed_states": [], "num_clicks_accrued": [0, 0, 0, 0, 0, 0, 0, 0, 0, 0, 0, 0, 0], "stateRewards": ["", 4, -8, -24, 24, 2, -4, 24, 24, 2, -4, 48, 48], "withholdReward": true, "trial_id": "mdp_457607480918", "block": "test1", "trialIndex": 29, "score": 49.75, "costs": -1.25, "simulationMode": [null, null, null], "rewards": [2, -4, 48], "path": ["0", "0", "9", "10", "12"], "rt": [5683, 185, 165], "actions": ["left", "left", "down"], "actionTimes": [6949, 7633, 8295], "queries": {"click": {"state": {"target": ["3", "8", "12", "10", "9"], "time": [2213, 3079, 4115, 5149, 5839]}, "edge": {"target": [], "time": []}}, "mouseover": {"state": {"target": ["1", "3", "6", "8", "12", "10", "10", "9"], "time": [1696, 1880, 2700, 2829, 3918, 4549, 4828, 5579]}, "edge": {"target": [], "time": []}}, "mouseout": {"state": {"target": ["0", "1", "3", "6", "8", "12", "10", "10", "9"], "time": [1567, 1713, 2567, 2745, 3402, 4516, 4580, 5496, 6433]}, "edge": {"target": [], "time": []}}}, "displayed_time": "9.30", "trialTime": 9876, "trial_type": "mouselab-mdp", "trial_index": 36, "time_elapsed": 828723, "internal_node_id": "0.0-4.0-1.0-27.0"}}, {"uniqueid": "w65685342:a41585114", "current_trial": 37, "dateTime": 1664874016760, "trialdata": {"revealed_states": [], "num_clicks_accrued": [0, 0, 0, 0, 0, 0, 0, 0, 0, 0, 0, 0, 0], "stateRewards": ["", 2, -4, 48, -24, 4, -8, -24, 48, -2, -4, 24, -48], "withholdReward": false, "trial_id": "mdp_357328205509", "block": "test1", "trialIndex": 30, "score": 50.25, "costs": -0.75, "simulationMode": [null, null, null], "rewards": [2, -4, 48], "path": ["0", "0", "1", "2", "3"], "rt": [8615, 467, 420], "actions": ["up", "up", "right"], "actionTimes": [9638, 10598, 11516], "queries": {"click": {"state": {"target": ["3", "1", "2"], "time": [2252, 3332, 4107]}, "edge": {"target": [], "time": []}}, "mouseover": {"state": {"target": ["0", "3", "1", "2"], "time": [1266, 2017, 2949, 3801]}, "edge": {"target": [], "time": []}}, "mouseout": {"state": {"target": ["0", "3", "1"], "time": [1683, 2649, 3716]}, "edge": {"target": [], "time": []}}}, "displayed_time": "12.01", "trialTime": 35919, "trial_type": "mouselab-mdp", "trial_index": 37, "time_elapsed": 865084, "internal_node_id": "0.0-4.0-1.0-28.0"}}, {"uniqueid": "w65685342:a41585114", "current_trial": 38, "dateTime": 1664874034742, "trialdata": {"revealed_states": [], "num_clicks_accrued": [0, 0, 0, 0, 0, 0, 0, 0, 0, 0, 0, 0, 0], "stateRewards": ["", -4, 8, 24, 24, -2, 8, -48, 48, 4, -8, 48, -48], "withholdReward": true, "trial_id": "mdp_295249220524", "block": "test1", "trialIndex": 31, "score": 58, "costs": -1, "simulationMode": [null, null, null], "rewards": [-2, 8, 48], "path": ["0", "0", "5", "6", "8"], "rt": [4530, 62, 374], "actions": ["right", "right", "down"], "actionTimes": [12086, 12652, 13526], "queries": {"click": {"state": {"target": ["4", "8", "5", "6"], "time": [8358, 9650, 10583, 11175]}, "edge": {"target": [], "time": []}}, "mouseover": {"state": {"target": ["4", "1", "5", "8", "5", "6"], "time": [8133, 8870, 9217, 9384, 10271, 10935]}, "edge": {"target": [], "time": []}}, "mouseout": {"state": {"target": ["2", "1", "0", "4", "1", "5", "8", "5"], "time": [6821, 6878, 7874, 8787, 8970, 9234, 10038, 10911]}, "edge": {"target": [], "time": []}}}, "displayed_time": "16.56", "trialTime": 17639, "trial_type": "mouselab-mdp", "trial_index": 38, "time_elapsed": 883066, "internal_node_id": "0.0-4.0-1.0-29.0"}}, {"uniqueid": "w65685342:a41585114", "current_trial": 39, "dateTime": 1664874039526, "trialdata": {"rt": 4756, "stimulus": "<h1> End of block! </h1>\n\nYou have reached the end of the block 1/4. If you need a short break, feel free to take one now before moving on.\n\n<br><br>\nIn the next block, you will complete another 30 rounds of this game.\n\n<br><br>\n<div style='text-align: center;'>Press <code>space</code> to begin.</div>\n<br><br>\n<div style='text-align: center;'>(If the experiment doesn't continue, try clicking on the text and then pressing <code>space</code>.)</div>", "response": " ", "trial_id": "mdp_ready_2", "trial_type": "html-keyboard-response", "trial_index": 39, "time_elapsed": 887850, "internal_node_id": "0.0-4.0-2.0"}}, {"uniqueid": "w65685342:a41585114", "current_trial": 40, "dateTime": 1664874055762, "trialdata": {"revealed_states": [], "num_clicks_accrued": [0, 0, 0, 0, 0, 0, 0, 0, 0, 0, 0, 0, 0], "stateRewards": ["", -2, -8, -24, -48, 4, -8, 48, 24, 2, 4, -48, -48], "withholdReward": false, "trial_id": "mdp_898082967464", "block": "test2", "trialIndex": 32, "score": 47.75, "costs": -1.25, "simulationMode": [null, null, null], "rewards": [4, -8, 48], "path": ["0", "0", "5", "6", "7"], "rt": [7674, 89, 505], "actions": ["right", "right", "up"], "actionTimes": [9004, 9591, 10586], "queries": {"click": {"state": {"target": ["8", "4", "12", "7", "5"], "time": [2740, 3876, 5735, 7235, 8136]}, "edge": {"target": [], "time": []}}, "mouseover": {"state": {"target": ["5", "8", "4", "10", "12", "10", "11", "1", "7", "5"], "time": [2266, 2498, 3633, 4467, 5586, 6183, 6447, 6734, 6963, 7852]}, "edge": {"target": [], "time": []}}, "mouseout": {"state": {"target": ["6", "5", "5", "8", "4", "10", "12", "10", "11", "1", "7"], "time": [634, 763, 2295, 3267, 4350, 4514, 6118, 6250, 6668, 6779, 7586]}, "edge": {"target": [], "time": []}}}, "displayed_time": "11.10", "trialTime": 15954, "trial_type": "mouselab-mdp", "trial_index": 40, "time_elapsed": 904085, "internal_node_id": "0.0-4.0-3.0-0.0"}}, {"uniqueid": "w65685342:a41585114", "current_trial": 41, "dateTime": 1664874093652, "trialdata": {"revealed_states": [], "num_clicks_accrued": [0, 0, 0, 0, 0, 0, 0, 0, 0, 0, 0, 0, 0], "stateRewards": ["", 4, -4, 48, -48, 2, 8, -48, 24, -2, -4, -24, 48], "withholdReward": true, "trial_id": "mdp_937564992306", "block": "test2", "trialIndex": 33, "score": 52.5, "costs": -0.5, "simulationMode": [null, null, null], "rewards": [4, -4, 48], "path": ["0", "0", "1", "2", "3"], "rt": [2720, 88, 43], "actions": ["up", "up", "right"], "actionTimes": [30827, 31411, 31949], "queries": {"click": {"state": {"target": ["3", "1"], "time": [29093, 29924]}, "edge": {"target": [], "time": []}}, "mouseover": {"state": {"target": ["3", "1"], "time": [28872, 29639]}, "edge": {"target": [], "time": []}}, "mouseout": {"state": {"target": ["5", "0", "3", "1"], "time": [27640, 28540, 29322, 30155]}, "edge": {"target": [], "time": []}}}, "displayed_time": "37.11", "trialTime": 37605, "trial_type": "mouselab-mdp", "trial_index": 41, "time_elapsed": 941976, "internal_node_id": "0.0-4.0-3.0-1.0"}}, {"uniqueid": "w65685342:a41585114", "current_trial": 42, "dateTime": 1664874106742, "trialdata": {"revealed_states": [], "num_clicks_accrued": [0, 0, 0, 0, 0, 0, 0, 0, 0, 0, 0, 0, 0], "stateRewards": ["", 4, -8, 24, 48, -2, -4, -48, 24, 2, 4, -48, -24], "withholdReward": true, "trial_id": "mdp_749974461966", "block": "test2", "trialIndex": 34, "score": 47.25, "costs": -1.75, "simulationMode": [null, null, null], "rewards": [4, -8, 48], "path": ["0", "0", "1", "2", "4"], "rt": [9118, 97, 250], "actions": ["up", "up", "left"], "actionTimes": [10107, 10693, 11445], "queries": {"click": {"state": {"target": ["3", "11", "7", "8", "12", "4", "2"], "time": [1676, 2864, 4240, 5285, 6216, 7055, 9055]}, "edge": {"target": [], "time": []}}, "mouseover": {"state": {"target": ["1", "3", "1", "4", "11", "10", "12", "9", "7", "6", "5", "5", "8", "12", "9", "4", "2"], "time": [1110, 1460, 2061, 2260, 2711, 3128, 3509, 3644, 4044, 4546, 4679, 4894, 4993, 6044, 6594, 6876, 8843]}, "edge": {"target": [], "time": []}}, "mouseout": {"state": {"target": ["1", "1", "3", "1", "4", "11", "10", "12", "9", "7", "6", "5", "5", "8", "12", "9", "4", "2"], "time": [510, 1177, 1895, 2145, 2480, 3093, 3160, 3622, 3661, 4496, 4593, 4712, 4913, 5463, 6477, 6644, 7427, 9396]}, "edge": {"target": [], "time": []}}}, "displayed_time": "11.95", "trialTime": 12849, "trial_type": "mouselab-mdp", "trial_index": 42, "time_elapsed": 955065, "internal_node_id": "0.0-4.0-3.0-2.0"}}, {"uniqueid": "w65685342:a41585114", "current_trial": 43, "dateTime": 1664874117638, "trialdata": {"revealed_states": [], "num_clicks_accrued": [0, 0, 0, 0, 0, 0, 0, 0, 0, 0, 0, 0, 0], "stateRewards": ["", 2, -8, 48, -24, -4, -8, -24, 48, -2, 4, 24, -48], "withholdReward": true, "trial_id": "mdp_186932504904", "block": "test2", "trialIndex": 35, "score": 40.25, "costs": -0.75, "simulationMode": [null, null, null], "rewards": [-4, -8, 48], "path": ["0", "0", "5", "6", "8"], "rt": [4609, 90, 267], "actions": ["right", "right", "down"], "actionTimes": [5563, 6150, 6911], "queries": {"click": {"state": {"target": ["4", "8", "5"], "time": [1424, 2440, 4430]}, "edge": {"target": [], "time": []}}, "mouseover": {"state": {"target": ["4", "1", "6", "8", "6", "5", "6", "5"], "time": [1279, 1710, 2044, 2279, 3261, 3378, 3694, 3978]}, "edge": {"target": [], "time": []}}, "mouseout": {"state": {"target": ["1", "4", "1", "6", "8", "6", "5", "6", "5"], "time": [548, 1644, 1728, 2210, 2626, 3278, 3644, 3928, 4680]}, "edge": {"target": [], "time": []}}}, "displayed_time": "9.95", "trialTime": 10612, "trial_type": "mouselab-mdp", "trial_index": 43, "time_elapsed": 965962, "internal_node_id": "0.0-4.0-3.0-3.0"}}, {"uniqueid": "w65685342:a41585114", "current_trial": 44, "dateTime": 1664874127239, "trialdata": {"revealed_states": [], "num_clicks_accrued": [0, 0, 0, 0, 0, 0, 0, 0, 0, 0, 0, 0, 0], "stateRewards": ["", -2, -8, 24, -24, 4, -8, 48, 48, -4, -8, -24, -48], "withholdReward": true, "trial_id": "mdp_286767261523", "block": "test2", "trialIndex": 36, "score": 48.25, "costs": -0.75, "simulationMode": [null, null, null], "rewards": [4, -8, 48], "path": ["0", "0", "5", "6", "8"], "rt": [3663, 99, 261], "actions": ["right", "right", "down"], "actionTimes": [4667, 5264, 6030], "queries": {"click": {"state": {"target": ["4", "8", "5"], "time": [1648, 2549, 3466]}, "edge": {"target": [], "time": []}}, "mouseover": {"state": {"target": ["1", "4", "0", "8", "5", "6"], "time": [1215, 1498, 2098, 2305, 3215, 3681]}, "edge": {"target": [], "time": []}}, "mouseout": {"state": {"target": ["0", "1", "4", "0", "8", "5"], "time": [1131, 1315, 1847, 2132, 3049, 3615]}, "edge": {"target": [], "time": []}}}, "displayed_time": "9.00", "trialTime": 9435, "trial_type": "mouselab-mdp", "trial_index": 44, "time_elapsed": 975563, "internal_node_id": "0.0-4.0-3.0-4.0"}}, {"uniqueid": "w65685342:a41585114", "current_trial": 45, "dateTime": 1664874138206, "trialdata": {"revealed_states": [], "num_clicks_accrued": [0, 0, 0, 0, 0, 0, 0, 0, 0, 0, 0, 0, 0], "stateRewards": ["", -2, 8, -48, 48, 4, -8, -48, 48, 4, -4, -24, 48], "withholdReward": true, "trial_id": "mdp_144739116828", "block": "test2", "trialIndex": 37, "score": 48.5, "costs": -0.5, "simulationMode": [null, null, null], "rewards": [4, -8, 48], "path": ["0", "0", "5", "6", "8"], "rt": [2536, 84, 62], "actions": ["right", "right", "down"], "actionTimes": [3647, 4220, 4780], "queries": {"click": {"state": {"target": ["8", "5"], "time": [1811, 2864]}, "edge": {"target": [], "time": []}}, "mouseover": {"state": {"target": ["7", "6", "8", "5", "5"], "time": [1467, 1517, 1685, 2369, 2668]}, "edge": {"target": [], "time": []}}, "mouseout": {"state": {"target": ["6", "5", "0", "7", "6", "8", "5", "5"], "time": [450, 567, 1194, 1484, 1602, 2019, 2484, 3101]}, "edge": {"target": [], "time": []}}}, "displayed_time": "10.12", "trialTime": 10787, "trial_type": "mouselab-mdp", "trial_index": 45, "time_elapsed": 986529, "internal_node_id": "0.0-4.0-3.0-5.0"}}, {"uniqueid": "w65685342:a41585114", "current_trial": 46, "dateTime": 1664874150599, "trialdata": {"revealed_states": [], "num_clicks_accrued": [0, 0, 0, 0, 0, 0, 0, 0, 0, 0, 0, 0, 0], "stateRewards": ["", -4, 4, -48, -48, -2, -8, -48, -24, 4, 8, -24, 24], "withholdReward": false, "trial_id": "mdp_449260894259", "block": "test2", "trialIndex": 38, "score": 39.25, "costs": -1.75, "simulationMode": [null, null, null], "rewards": [4, 8, 24], "path": ["0", "0", "9", "10", "12"], "rt": [7733, 59, 622], "actions": ["left", "left", "down"], "actionTimes": [8658, 9214, 10360], "queries": {"click": {"state": {"target": ["12", "4", "7", "8", "11", "3", "10"], "time": [1580, 2334, 3786, 4415, 5118, 5848, 7870]}, "edge": {"target": [], "time": []}}, "mouseover": {"state": {"target": ["9", "12", "10", "4", "2", "6", "7", "6", "8", "0", "9", "11", "3", "5", "0", "9", "10"], "time": [1252, 1421, 1886, 2118, 2653, 2854, 3570, 4035, 4169, 4636, 4703, 4987, 5670, 7087, 7237, 7303, 7638]}, "edge": {"target": [], "time": []}}, "mouseout": {"state": {"target": ["0", "9", "12", "10", "4", "2", "6", "7", "6", "8", "0", "9", "11", "3", "5", "0", "9"], "time": [1169, 1336, 1818, 1936, 2637, 2669, 2968, 3952, 4120, 4536, 4652, 4719, 5320, 6136, 7203, 7269, 7369]}, "edge": {"target": [], "time": []}}}, "displayed_time": "10.85", "trialTime": 12230, "trial_type": "mouselab-mdp", "trial_index": 46, "time_elapsed": 998922, "internal_node_id": "0.0-4.0-3.0-6.0"}}, {"uniqueid": "w65685342:a41585114", "current_trial": 47, "dateTime": 1664874162361, "trialdata": {"revealed_states": [], "num_clicks_accrued": [0, 0, 0, 0, 0, 0, 0, 0, 0, 0, 0, 0, 0], "stateRewards": ["", 2, -4, 48, -48, 2, 4, -24, 24, -4, -8, 24, -48], "withholdReward": true, "trial_id": "mdp_238810765895", "block": "test2", "trialIndex": 39, "score": 49.25, "costs": -1.75, "simulationMode": [null, null, null], "rewards": [2, -4, 48], "path": ["0", "0", "1", "2", "3"], "rt": [7086, 95, 62], "actions": ["up", "up", "right"], "actionTimes": [8981, 9581, 10131], "queries": {"click": {"state": {"target": ["7", "11", "4", "12", "8", "3", "2"], "time": [2666, 3432, 4291, 5517, 6311, 6955, 8037]}, "edge": {"target": [], "time": []}}, "mouseover": {"state": {"target": ["7", "5", "9", "11", "10", "4", "2", "3", "1", "9", "12", "12", "8", "3", "1", "2", "1"], "time": [2469, 2985, 3102, 3267, 3634, 3884, 4454, 4685, 5001, 5035, 5085, 5335, 6102, 6784, 7485, 7801, 8351]}, "edge": {"target": [], "time": []}}, "mouseout": {"state": {"target": ["10", "9", "0", "7", "5", "9", "11", "10", "4", "2", "3", "1", "9", "12", "12", "8", "3", "1", "2"], "time": [451, 567, 1734, 2935, 3001, 3135, 3602, 3768, 4437, 4552, 4985, 5018, 5051, 5101, 5686, 6484, 7169, 7735, 8268]}, "edge": {"target": [], "time": []}}}, "displayed_time": "10.65", "trialTime": 11592, "trial_type": "mouselab-mdp", "trial_index": 47, "time_elapsed": 1010685, "internal_node_id": "0.0-4.0-3.0-7.0"}}, {"uniqueid": "w65685342:a41585114", "current_trial": 48, "dateTime": 1664874173963, "trialdata": {"revealed_states": [], "num_clicks_accrued": [0, 0, 0, 0, 0, 0, 0, 0, 0, 0, 0, 0, 0], "stateRewards": ["", -2, -4, -24, -48, -4, -8, -48, 24, -4, -8, -24, -48], "withholdReward": true, "trial_id": "mdp_475782454549", "block": "test2", "trialIndex": 40, "score": 15.25, "costs": -1.75, "simulationMode": [null, null, null], "rewards": [-4, -8, 24], "path": ["0", "0", "5", "6", "8"], "rt": [7694, 132, 173], "actions": ["right", "right", "down"], "actionTimes": [8624, 9258, 9932], "queries": {"click": {"state": {"target": ["3", "8", "11", "7", "12", "4", "5"], "time": [1716, 2467, 3469, 4451, 5332, 6087, 7938]}, "edge": {"target": [], "time": []}}, "mouseover": {"state": {"target": ["3", "6", "8", "10", "11", "1", "7", "0", "12", "4", "0", "5", "5"], "time": [1458, 2110, 2193, 3092, 3159, 3892, 4150, 4859, 5025, 5792, 6958, 7042, 7592]}, "edge": {"target": [], "time": []}}, "mouseout": {"state": {"target": ["1", "0", "3", "6", "8", "10", "11", "1", "7", "0", "12", "4", "0", "5"], "time": [491, 1192, 2010, 2144, 2792, 3126, 3858, 3908, 4825, 4875, 5627, 6575, 7008, 7075]}, "edge": {"target": [], "time": []}}}, "displayed_time": "10.44", "trialTime": 11450, "trial_type": "mouselab-mdp", "trial_index": 48, "time_elapsed": 1022287, "internal_node_id": "0.0-4.0-3.0-8.0"}}, {"uniqueid": "w65685342:a41585114", "current_trial": 49, "dateTime": 1664874184729, "trialdata": {"revealed_states": [], "num_clicks_accrued": [0, 0, 0, 0, 0, 0, 0, 0, 0, 0, 0, 0, 0], "stateRewards": ["", -2, -4, 48, -24, 2, -4, -24, -48, 2, 8, -48, -24], "withholdReward": false, "trial_id": "mdp_238243948191", "block": "test2", "trialIndex": 41, "score": 45.75, "costs": -1.25, "simulationMode": [null, null, null], "rewards": [-2, -4, 48], "path": ["0", "0", "1", "2", "3"], "rt": [5048, 38, 413], "actions": ["up", "up", "right"], "actionTimes": [6246, 6785, 7725], "queries": {"click": {"state": {"target": ["7", "4", "3", "1", "2"], "time": [2040, 2699, 3258, 4403, 5413]}, "edge": {"target": [], "time": []}}, "mouseover": {"state": {"target": ["7", "2", "4", "2", "3", "11", "1", "2"], "time": [1896, 2412, 2546, 2878, 3029, 3811, 4195, 5228]}, "edge": {"target": [], "time": []}}, "mouseout": {"state": {"target": ["5", "7", "2", "4", "2", "3", "11", "1", "2"], "time": [679, 2262, 2478, 2845, 2945, 3429, 3996, 5146, 5645]}, "edge": {"target": [], "time": []}}}, "displayed_time": "10.20", "trialTime": 10587, "trial_type": "mouselab-mdp", "trial_index": 49, "time_elapsed": 1033053, "internal_node_id": "0.0-4.0-3.0-9.0"}}, {"uniqueid": "w65685342:a41585114", "current_trial": 50, "dateTime": 1664874196187, "trialdata": {"revealed_states": [], "num_clicks_accrued": [0, 0, 0, 0, 0, 0, 0, 0, 0, 0, 0, 0, 0], "stateRewards": ["", -2, -4, -24, -48, -2, 8, -48, 24, 4, -4, -24, -24], "withholdReward": true, "trial_id": "mdp_915304165774", "block": "test2", "trialIndex": 42, "score": 33.5, "costs": -1.5, "simulationMode": [null, null, null], "rewards": [-2, 8, 24], "path": ["0", "0", "5", "6", "8"], "rt": [6617, 25, 94], "actions": ["right", "right", "down"], "actionTimes": [7581, 8119, 8738], "queries": {"click": {"state": {"target": ["4", "12", "7", "11", "3", "8"], "time": [1829, 2619, 3620, 4603, 5499, 6298]}, "edge": {"target": [], "time": []}}, "mouseover": {"state": {"target": ["1", "4", "12", "0", "5", "7", "1", "11", "1", "3", "6", "8"], "time": [1409, 1609, 2442, 3076, 3093, 3359, 4109, 4409, 4992, 5242, 5909, 5992]}, "edge": {"target": [], "time": []}}, "mouseout": {"state": {"target": ["1", "1", "4", "12", "0", "5", "7", "1", "11", "1", "3", "6"], "time": [560, 1459, 2145, 3037, 3092, 3110, 4043, 4143, 4931, 5009, 5826, 5943]}, "edge": {"target": [], "time": []}}}, "displayed_time": "9.96", "trialTime": 11291, "trial_type": "mouselab-mdp", "trial_index": 50, "time_elapsed": 1044511, "internal_node_id": "0.0-4.0-3.0-10.0"}}, {"uniqueid": "w65685342:a41585114", "current_trial": 51, "dateTime": 1664874206154, "trialdata": {"revealed_states": [], "num_clicks_accrued": [0, 0, 0, 0, 0, 0, 0, 0, 0, 0, 0, 0, 0], "stateRewards": ["", -2, -4, -24, -24, 4, 8, 24, 24, -2, 8, 48, 48], "withholdReward": true, "trial_id": "mdp_620787912291", "block": "test2", "trialIndex": 43, "score": 58.25, "costs": -0.75, "simulationMode": [null, null, null], "rewards": [-2, 8, 48], "path": ["0", "0", "9", "10", "12"], "rt": [4443, 76, 29], "actions": ["left", "left", "down"], "actionTimes": [5396, 5962, 6518], "queries": {"click": {"state": {"target": ["4", "12", "10"], "time": [1745, 2583, 3791]}, "edge": {"target": [], "time": []}}, "mouseover": {"state": {"target": ["4", "12", "0", "5", "9", "10"], "time": [1468, 2268, 2953, 3019, 3285, 3535]}, "edge": {"target": [], "time": []}}, "mouseout": {"state": {"target": ["8", "0", "4", "12", "0", "5", "9"], "time": [485, 1285, 2087, 2869, 2986, 3035, 3402]}, "edge": {"target": [], "time": []}}}, "displayed_time": "8.95", "trialTime": 9784, "trial_type": "mouselab-mdp", "trial_index": 51, "time_elapsed": 1054478, "internal_node_id": "0.0-4.0-3.0-11.0"}}, {"uniqueid": "w65685342:a41585114", "current_trial": 52, "dateTime": 1664874215871, "trialdata": {"revealed_states": [], "num_clicks_accrued": [0, 0, 0, 0, 0, 0, 0, 0, 0, 0, 0, 0, 0], "stateRewards": ["", 4, 4, 48, -24, -4, -8, 24, -24, 2, -8, -24, 24], "withholdReward": true, "trial_id": "mdp_933201675789", "block": "test2", "trialIndex": 44, "score": 60.5, "costs": -0.5, "simulationMode": [null, null, null], "rewards": [4, 4, 48], "path": ["0", "0", "1", "2", "3"], "rt": [3675, 20, 458], "actions": ["up", "up", "right"], "actionTimes": [4703, 5239, 6214], "queries": {"click": {"state": {"target": ["3", "2"], "time": [2724, 3834]}, "edge": {"target": [], "time": []}}, "mouseover": {"state": {"target": ["3", "7", "1", "2"], "time": [2518, 2968, 3435, 3619]}, "edge": {"target": [], "time": []}}, "mouseout": {"state": {"target": ["10", "9", "3", "7", "1", "2"], "time": [485, 602, 2886, 3268, 3553, 4102]}, "edge": {"target": [], "time": []}}}, "displayed_time": "9.03", "trialTime": 9551, "trial_type": "mouselab-mdp", "trial_index": 52, "time_elapsed": 1064195, "internal_node_id": "0.0-4.0-3.0-12.0"}}, {"uniqueid": "w65685342:a41585114", "current_trial": 53, "dateTime": 1664874226381, "trialdata": {"revealed_states": [], "num_clicks_accrued": [0, 0, 0, 0, 0, 0, 0, 0, 0, 0, 0, 0, 0], "stateRewards": ["", -4, -4, 24, 48, 4, -4, -24, 24, -4, -4, 24, 24], "withholdReward": true, "trial_id": "mdp_357725458160", "block": "test2", "trialIndex": 45, "score": 44.25, "costs": -0.75, "simulationMode": [null, null, null], "rewards": [-4, -4, 48], "path": ["0", "0", "1", "2", "4"], "rt": [4342, 118, 105], "actions": ["up", "up", "left"], "actionTimes": [5222, 5841, 6446], "queries": {"click": {"state": {"target": ["4", "1", "2"], "time": [1807, 3082, 4261]}, "edge": {"target": [], "time": []}}, "mouseover": {"state": {"target": ["1", "4", "2", "1", "2"], "time": [1356, 1572, 2623, 2790, 3689]}, "edge": {"target": [], "time": []}}, "mouseout": {"state": {"target": ["1", "1", "4", "2", "1"], "time": [456, 1372, 2289, 2739, 3572]}, "edge": {"target": [], "time": []}}}, "displayed_time": "9.88", "trialTime": 10264, "trial_type": "mouselab-mdp", "trial_index": 53, "time_elapsed": 1074704, "internal_node_id": "0.0-4.0-3.0-13.0"}}, {"uniqueid": "w65685342:a41585114", "current_trial": 54, "dateTime": 1664874236121, "trialdata": {"revealed_states": [], "num_clicks_accrued": [0, 0, 0, 0, 0, 0, 0, 0, 0, 0, 0, 0, 0], "stateRewards": ["", 4, -8, -24, 24, 2, -4, 24, 24, 2, -4, 48, 48], "withholdReward": true, "trial_id": "mdp_457607480918", "block": "test2", "trialIndex": 46, "score": 50, "costs": -1, "simulationMode": [null, null, null], "rewards": [2, -4, 48], "path": ["0", "0", "9", "10", "12"], "rt": [5109, 44, 4], "actions": ["left", "left", "down"], "actionTimes": [6214, 6759, 7269], "queries": {"click": {"state": {"target": ["4", "8", "12", "10"], "time": [1974, 3210, 4150, 5296]}, "edge": {"target": [], "time": []}}, "mouseover": {"state": {"target": ["1", "4", "1", "8", "12", "9", "10"], "time": [1614, 1747, 2481, 2964, 3881, 4947, 5081]}, "edge": {"target": [], "time": []}}, "mouseout": {"state": {"target": ["2", "1", "1", "4", "1", "8", "12", "9"], "time": [498, 648, 1630, 2397, 2681, 3648, 4580, 4974]}, "edge": {"target": [], "time": []}}}, "displayed_time": "9.11", "trialTime": 9563, "trial_type": "mouselab-mdp", "trial_index": 54, "time_elapsed": 1084445, "internal_node_id": "0.0-4.0-3.0-14.0"}}, {"uniqueid": "w65685342:a41585114", "current_trial": 55, "dateTime": 1664874245711, "trialdata": {"revealed_states": [], "num_clicks_accrued": [0, 0, 0, 0, 0, 0, 0, 0, 0, 0, 0, 0, 0], "stateRewards": ["", -2, 8, 24, -48, -2, -4, 24, 48, 2, 8, -48, -48], "withholdReward": false, "trial_id": "mdp_562228697607", "block": "test2", "trialIndex": 47, "score": 46.25, "costs": -0.75, "simulationMode": [null, null, null], "rewards": [-2, -4, 48], "path": ["0", "0", "5", "6", "8"], "rt": [3143, 92, 88], "actions": ["right", "right", "down"], "actionTimes": [4064, 4650, 5229], "queries": {"click": {"state": {"target": ["3", "8", "5"], "time": [1657, 2567, 3565]}, "edge": {"target": [], "time": []}}, "mouseover": {"state": {"target": ["3", "6", "8", "5", "5"], "time": [1423, 2239, 2356, 3173, 3340]}, "edge": {"target": [], "time": []}}, "mouseout": {"state": {"target": ["10", "9", "0", "3", "6", "8", "5"], "time": [490, 556, 1207, 2039, 2289, 2890, 3240]}, "edge": {"target": [], "time": []}}}, "displayed_time": "8.93", "trialTime": 9412, "trial_type": "mouselab-mdp", "trial_index": 55, "time_elapsed": 1094034, "internal_node_id": "0.0-4.0-3.0-15.0"}}, {"uniqueid": "w65685342:a41585114", "current_trial": 56, "dateTime": 1664874255383, "trialdata": {"revealed_states": [], "num_clicks_accrued": [0, 0, 0, 0, 0, 0, 0, 0, 0, 0, 0, 0, 0], "stateRewards": ["", -4, 8, 24, -24, -2, 4, -24, 48, -2, 8, -48, -24], "withholdReward": false, "trial_id": "mdp_799359103169", "block": "test2", "trialIndex": 48, "score": 54.25, "costs": -0.75, "simulationMode": [null, null, null], "rewards": [-2, 4, 48], "path": ["0", "0", "5", "6", "8"], "rt": [3039, 64, 135], "actions": ["right", "right", "down"], "actionTimes": [3960, 4526, 5163], "queries": {"click": {"state": {"target": ["4", "8", "5"], "time": [1739, 2743, 3573]}, "edge": {"target": [], "time": []}}, "mouseover": {"state": {"target": ["1", "4", "2", "5", "8", "5"], "time": [1276, 1476, 2110, 2227, 2493, 3360]}, "edge": {"target": [], "time": []}}, "mouseout": {"state": {"target": ["5", "0", "1", "4", "2", "5", "8"], "time": [543, 643, 1310, 2093, 2127, 2277, 3243]}, "edge": {"target": [], "time": []}}}, "displayed_time": "8.92", "trialTime": 9503, "trial_type": "mouselab-mdp", "trial_index": 56, "time_elapsed": 1103706, "internal_node_id": "0.0-4.0-3.0-16.0"}}, {"uniqueid": "w65685342:a41585114", "current_trial": 57, "dateTime": 1664874265674, "trialdata": {"revealed_states": [], "num_clicks_accrued": [0, 0, 0, 0, 0, 0, 0, 0, 0, 0, 0, 0, 0], "stateRewards": ["", 4, 8, 48, -48, -4, 8, -24, -24, -4, 8, 48, 48], "withholdReward": true, "trial_id": "mdp_377640328420", "block": "test2", "trialIndex": 49, "score": 56.5, "costs": -0.5, "simulationMode": [null, null, null], "rewards": [-4, 8, 48], "path": ["0", "0", "9", "10", "12"], "rt": [2514, 31, 67], "actions": ["left", "left", "down"], "actionTimes": [3961, 4504, 5075], "queries": {"click": {"state": {"target": ["12", "10"], "time": [2195, 3133]}, "edge": {"target": [], "time": []}}, "mouseover": {"state": {"target": ["12", "10"], "time": [2005, 2755]}, "edge": {"target": [], "time": []}}, "mouseout": {"state": {"target": ["5", "0", "12"], "time": [1039, 1774, 2618]}, "edge": {"target": [], "time": []}}}, "displayed_time": "9.51", "trialTime": 10124, "trial_type": "mouselab-mdp", "trial_index": 57, "time_elapsed": 1113998, "internal_node_id": "0.0-4.0-3.0-17.0"}}, {"uniqueid": "w65685342:a41585114", "current_trial": 58, "dateTime": 1664874278499, "trialdata": {"revealed_states": [], "num_clicks_accrued": [0, 0, 0, 0, 0, 0, 0, 0, 0, 0, 0, 0, 0], "stateRewards": ["", 4, 8, -48, 24, -2, 8, -48, -48, -4, 4, 48, -48], "withholdReward": true, "trial_id": "mdp_693807815190", "block": "test2", "trialIndex": 50, "score": 51.75, "costs": -1.25, "simulationMode": [null, null, null], "rewards": [-4, 4, 48], "path": ["0", "0", "9", "10", "11"], "rt": [8207, 78, 164], "actions": ["left", "left", "up"], "actionTimes": [9694, 10260, 10930], "queries": {"click": {"state": {"target": ["12", "7", "4", "8", "11"], "time": [2509, 3590, 4628, 5788, 6676]}, "edge": {"target": [], "time": []}}, "mouseover": {"state": {"target": ["12", "7", "2", "4", "1", "5", "8", "0", "11"], "time": [2247, 3147, 4164, 4364, 5264, 5397, 5515, 6247, 6381]}, "edge": {"target": [], "time": []}}, "mouseout": {"state": {"target": ["10", "9", "0", "12", "7", "2", "4", "1", "5", "8", "0", "11"], "time": [897, 1014, 2064, 2981, 4048, 4230, 5130, 5281, 5415, 6214, 6264, 7080]}, "edge": {"target": [], "time": []}}}, "displayed_time": "11.43", "trialTime": 12640, "trial_type": "mouselab-mdp", "trial_index": 58, "time_elapsed": 1126822, "internal_node_id": "0.0-4.0-3.0-18.0"}}, {"uniqueid": "w65685342:a41585114", "current_trial": 59, "dateTime": 1664874289894, "trialdata": {"revealed_states": [], "num_clicks_accrued": [0, 0, 0, 0, 0, 0, 0, 0, 0, 0, 0, 0, 0], "stateRewards": ["", -2, -8, 48, 24, 4, -8, 24, 48, 4, -4, 24, -48], "withholdReward": true, "trial_id": "mdp_871576155740", "block": "test2", "trialIndex": 51, "score": 42.5, "costs": -0.5, "simulationMode": [null, null, null], "rewards": [-2, -8, 48], "path": ["0", "0", "1", "2", "3"], "rt": [3025, 463, 48], "actions": ["up", "up", "right"], "actionTimes": [4210, 5189, 5725], "queries": {"click": {"state": {"target": ["3", "2"], "time": [2038, 3507]}, "edge": {"target": [], "time": []}}, "mouseover": {"state": {"target": ["3", "1", "2"], "time": [1759, 2893, 3078]}, "edge": {"target": [], "time": []}}, "mouseout": {"state": {"target": ["0", "3", "1"], "time": [1545, 2327, 2978]}, "edge": {"target": [], "time": []}}}, "displayed_time": "10.19", "trialTime": 11197, "trial_type": "mouselab-mdp", "trial_index": 59, "time_elapsed": 1138218, "internal_node_id": "0.0-4.0-3.0-19.0"}}, {"uniqueid": "w65685342:a41585114", "current_trial": 60, "dateTime": 1664874301906, "trialdata": {"revealed_states": [], "num_clicks_accrued": [0, 0, 0, 0, 0, 0, 0, 0, 0, 0, 0, 0, 0], "stateRewards": ["", -2, 8, 48, -24, 2, 4, -48, -24, -4, 8, -48, -48], "withholdReward": true, "trial_id": "mdp_539167561933", "block": "test2", "trialIndex": 52, "score": 57.5, "costs": -1.5, "simulationMode": [null, null, null], "rewards": [-2, 8, 48], "path": ["0", "0", "1", "2", "3"], "rt": [6519, 384, 47], "actions": ["up", "up", "right"], "actionTimes": [7952, 8849, 9395], "queries": {"click": {"state": {"target": ["12", "7", "4", "11", "8", "3"], "time": [2530, 3403, 4298, 5044, 6046, 7142]}, "edge": {"target": [], "time": []}}, "mouseover": {"state": {"target": ["10", "12", "0", "5", "7", "2", "4", "11", "5", "6", "8", "3"], "time": [2180, 2295, 2896, 2930, 3130, 3912, 4029, 4779, 5412, 5445, 5796, 6892]}, "edge": {"target": [], "time": []}}, "mouseout": {"state": {"target": ["2", "1", "10", "12", "0", "5", "7", "2", "4", "11", "5", "6", "8", "3"], "time": [712, 928, 2245, 2846, 2912, 2946, 3796, 3997, 4696, 5364, 5430, 5462, 6446, 10980]}, "edge": {"target": [], "time": []}}}, "displayed_time": "10.43", "trialTime": 11811, "trial_type": "mouselab-mdp", "trial_index": 60, "time_elapsed": 1150229, "internal_node_id": "0.0-4.0-3.0-20.0"}}, {"uniqueid": "w65685342:a41585114", "current_trial": 61, "dateTime": 1664874313222, "trialdata": {"revealed_states": [], "num_clicks_accrued": [0, 0, 0, 0, 0, 0, 0, 0, 0, 0, 0, 0, 0], "stateRewards": ["", 2, -8, -24, 48, 4, -8, -24, -24, 2, 8, -24, 24], "withholdReward": false, "trial_id": "mdp_480787552818", "block": "test2", "trialIndex": 53, "score": 45.5, "costs": -1.5, "simulationMode": [null, null, null], "rewards": [2, -8, 48], "path": ["0", "0", "1", "2", "4"], "rt": [6681, 4, 5], "actions": ["up", "up", "left"], "actionTimes": [8446, 8958, 9486], "queries": {"click": {"state": {"target": ["3", "12", "7", "11", "8", "4"], "time": [2608, 3524, 4521, 5364, 6309, 7208]}, "edge": {"target": [], "time": []}}, "mouseover": {"state": {"target": ["3", "0", "12", "5", "7", "11", "8", "4"], "time": [2330, 2965, 3283, 4048, 4264, 5032, 6047, 6864]}, "edge": {"target": [], "time": []}}, "mouseout": {"state": {"target": ["0", "3", "0", "12", "5", "7", "11", "8", "4"], "time": [2130, 2897, 2982, 3831, 4098, 4865, 5697, 6647, 7564]}, "edge": {"target": [], "time": []}}}, "displayed_time": "10.77", "trialTime": 11096, "trial_type": "mouselab-mdp", "trial_index": 61, "time_elapsed": 1161546, "internal_node_id": "0.0-4.0-3.0-21.0"}}, {"uniqueid": "w65685342:a41585114", "current_trial": 62, "dateTime": 1664874324086, "trialdata": {"revealed_states": [], "num_clicks_accrued": [0, 0, 0, 0, 0, 0, 0, 0, 0, 0, 0, 0, 0], "stateRewards": ["", -4, -8, -48, 48, -2, 8, 48, 48, -2, -4, -48, -48], "withholdReward": true, "trial_id": "mdp_752833580638", "block": "test2", "trialIndex": 54, "score": 57.75, "costs": -1.25, "simulationMode": [null, null, null], "rewards": [-2, 8, 48], "path": ["0", "0", "5", "6", "7"], "rt": [6395, 65, 282], "actions": ["right", "right", "up"], "actionTimes": [7337, 7899, 8716], "queries": {"click": {"state": {"target": ["12", "4", "2", "7", "6"], "time": [1620, 2523, 3497, 5148, 6568]}, "edge": {"target": [], "time": []}}, "mouseover": {"state": {"target": ["9", "12", "4", "2", "7", "6"], "time": [1283, 1415, 2099, 3116, 4899, 6132]}, "edge": {"target": [], "time": []}}, "mouseout": {"state": {"target": ["9", "12", "4", "2", "7"], "time": [1299, 1935, 2932, 4735, 5866]}, "edge": {"target": [], "time": []}}}, "displayed_time": "9.94", "trialTime": 10711, "trial_type": "mouselab-mdp", "trial_index": 62, "time_elapsed": 1172409, "internal_node_id": "0.0-4.0-3.0-22.0"}}, {"uniqueid": "w65685342:a41585114", "current_trial": 63, "dateTime": 1664874334430, "trialdata": {"revealed_states": [], "num_clicks_accrued": [0, 0, 0, 0, 0, 0, 0, 0, 0, 0, 0, 0, 0], "stateRewards": ["", -4, 4, -24, 48, 2, 4, -48, 24, 4, -8, -24, 24], "withholdReward": true, "trial_id": "mdp_740130150937", "block": "test2", "trialIndex": 55, "score": 52.25, "costs": -0.75, "simulationMode": [null, null, null], "rewards": [-4, 4, 48], "path": ["0", "0", "1", "2", "4"], "rt": [3480, 58, 145], "actions": ["up", "up", "left"], "actionTimes": [4537, 5089, 5742], "queries": {"click": {"state": {"target": ["4", "1", "2"], "time": [1957, 2781, 3539]}, "edge": {"target": [], "time": []}}, "mouseover": {"state": {"target": ["4", "1", "2"], "time": [1713, 2547, 3247]}, "edge": {"target": [], "time": []}}, "mouseout": {"state": {"target": ["6", "5", "0", "4", "1", "2"], "time": [431, 563, 1463, 2400, 3180, 9663]}, "edge": {"target": [], "time": []}}}, "displayed_time": "9.06", "trialTime": 10120, "trial_type": "mouselab-mdp", "trial_index": 63, "time_elapsed": 1182754, "internal_node_id": "0.0-4.0-3.0-23.0"}}, {"uniqueid": "w65685342:a41585114", "current_trial": 64, "dateTime": 1664874346337, "trialdata": {"revealed_states": [], "num_clicks_accrued": [0, 0, 0, 0, 0, 0, 0, 0, 0, 0, 0, 0, 0], "stateRewards": ["", 4, 4, 48, -48, -2, 4, 48, -48, -4, 4, -24, -24], "withholdReward": true, "trial_id": "mdp_753324812898", "block": "test2", "trialIndex": 56, "score": 53.75, "costs": -1.25, "simulationMode": [null, null, null], "rewards": [-2, 4, 48], "path": ["0", "0", "5", "6", "7"], "rt": [5336, 25, 355], "actions": ["right", "right", "up"], "actionTimes": [7808, 8326, 9204], "queries": {"click": {"state": {"target": ["4", "12", "7", "5", "6"], "time": [3347, 4222, 5182, 6199, 6951]}, "edge": {"target": [], "time": []}}, "mouseover": {"state": {"target": ["4", "12", "9", "7", "7", "6", "5", "6"], "time": [3140, 4015, 4599, 4664, 4998, 5765, 5965, 6697]}, "edge": {"target": [], "time": []}}, "mouseout": {"state": {"target": ["1", "4", "12", "9", "7", "7", "6", "5"], "time": [1863, 3732, 4598, 4607, 4714, 5730, 5880, 6665]}, "edge": {"target": [], "time": []}}}, "displayed_time": "11.47", "trialTime": 11728, "trial_type": "mouselab-mdp", "trial_index": 64, "time_elapsed": 1194660, "internal_node_id": "0.0-4.0-3.0-24.0"}}, {"uniqueid": "w65685342:a41585114", "current_trial": 65, "dateTime": 1664874356812, "trialdata": {"revealed_states": [], "num_clicks_accrued": [0, 0, 0, 0, 0, 0, 0, 0, 0, 0, 0, 0, 0], "stateRewards": ["", 2, 4, -48, -48, 2, 4, 48, -24, -2, 8, 48, -48], "withholdReward": false, "trial_id": "mdp_258528916140", "block": "test2", "trialIndex": 57, "score": 57.75, "costs": -1.25, "simulationMode": [null, null, null], "rewards": [2, 4, 48], "path": ["0", "0", "5", "6", "7"], "rt": [5432, 22, 248], "actions": ["right", "right", "up"], "actionTimes": [6458, 6980, 7740], "queries": {"click": {"state": {"target": ["4", "12", "7", "5", "6"], "time": [1875, 3100, 4042, 4947, 5599]}, "edge": {"target": [], "time": []}}, "mouseover": {"state": {"target": ["1", "4", "9", "12", "0", "5", "7", "5", "6"], "time": [1490, 1640, 2557, 2907, 3491, 3524, 3741, 4624, 5324]}, "edge": {"target": [], "time": []}}, "mouseout": {"state": {"target": ["6", "5", "0", "1", "4", "9", "12", "0", "5", "7", "5"], "time": [490, 607, 723, 1524, 2274, 2691, 3444, 3508, 3540, 4524, 5275]}, "edge": {"target": [], "time": []}}}, "displayed_time": "10.03", "trialTime": 10278, "trial_type": "mouselab-mdp", "trial_index": 65, "time_elapsed": 1205135, "internal_node_id": "0.0-4.0-3.0-25.0"}}, {"uniqueid": "w65685342:a41585114", "current_trial": 66, "dateTime": 1664874367998, "trialdata": {"revealed_states": [], "num_clicks_accrued": [0, 0, 0, 0, 0, 0, 0, 0, 0, 0, 0, 0, 0], "stateRewards": ["", 4, -8, 24, 48, 2, -4, 48, 48, 4, -8, 48, 48], "withholdReward": false, "trial_id": "mdp_962498334245", "block": "test2", "trialIndex": 58, "score": 48.75, "costs": -0.25, "simulationMode": [null, null, null], "rewards": [4, -8, 48], "path": ["0", "0", "1", "2", "4"], "rt": [2397, 34, 52], "actions": ["up", "up", "left"], "actionTimes": [3656, 4191, 4776], "queries": {"click": {"state": {"target": ["4"], "time": [1891]}, "edge": {"target": [], "time": []}}, "mouseover": {"state": {"target": ["4", "2", "1"], "time": [1657, 2324, 2558]}, "edge": {"target": [], "time": []}}, "mouseout": {"state": {"target": ["6", "5", "4", "2"], "time": [574, 656, 2257, 2423]}, "edge": {"target": [], "time": []}}}, "displayed_time": "10.26", "trialTime": 10998, "trial_type": "mouselab-mdp", "trial_index": 66, "time_elapsed": 1216322, "internal_node_id": "0.0-4.0-3.0-26.0"}}, {"uniqueid": "w65685342:a41585114", "current_trial": 67, "dateTime": 1664874378972, "trialdata": {"revealed_states": [], "num_clicks_accrued": [0, 0, 0, 0, 0, 0, 0, 0, 0, 0, 0, 0, 0], "stateRewards": ["", -4, 8, 24, 24, -2, 8, -48, 48, 4, -8, 48, -48], "withholdReward": true, "trial_id": "mdp_295249220524", "block": "test2", "trialIndex": 59, "score": 58, "costs": -1, "simulationMode": [null, null, null], "rewards": [-2, 8, 48], "path": ["0", "0", "5", "6", "8"], "rt": [4625, 83, 127], "actions": ["right", "right", "down"], "actionTimes": [5477, 6063, 6691], "queries": {"click": {"state": {"target": ["12", "4", "8", "6"], "time": [1653, 2491, 3780, 4670]}, "edge": {"target": [], "time": []}}, "mouseover": {"state": {"target": ["9", "12", "4", "2", "3", "7", "6", "8", "6"], "time": [1213, 1413, 2214, 2929, 2979, 3114, 3214, 3546, 4214]}, "edge": {"target": [], "time": []}}, "mouseout": {"state": {"target": ["1", "9", "12", "4", "2", "3", "7", "6", "8", "6"], "time": [465, 1281, 2080, 2896, 2964, 3029, 3180, 3280, 4148, 10497]}, "edge": {"target": [], "time": []}}}, "displayed_time": "9.85", "trialTime": 10778, "trial_type": "mouselab-mdp", "trial_index": 67, "time_elapsed": 1227296, "internal_node_id": "0.0-4.0-3.0-27.0"}}, {"uniqueid": "w65685342:a41585114", "current_trial": 68, "dateTime": 1664874388564, "trialdata": {"revealed_states": [], "num_clicks_accrued": [0, 0, 0, 0, 0, 0, 0, 0, 0, 0, 0, 0, 0], "stateRewards": ["", 2, 4, 48, 48, 4, -8, 24, -48, -4, -8, -24, -48], "withholdReward": true, "trial_id": "mdp_343818007251", "block": "test2", "trialIndex": 60, "score": 58.5, "costs": -0.5, "simulationMode": [null, null, null], "rewards": [2, 4, 48], "path": ["0", "0", "1", "2", "4"], "rt": [2209, 52, 6], "actions": ["up", "up", "left"], "actionTimes": [3249, 3795, 4314], "queries": {"click": {"state": {"target": ["4", "1"], "time": [1729, 2596]}, "edge": {"target": [], "time": []}}, "mouseover": {"state": {"target": ["4", "1"], "time": [1424, 2292]}, "edge": {"target": [], "time": []}}, "mouseout": {"state": {"target": ["5", "0", "4"], "time": [607, 1308, 2158]}, "edge": {"target": [], "time": []}}}, "displayed_time": "9.04", "trialTime": 9398, "trial_type": "mouselab-mdp", "trial_index": 68, "time_elapsed": 1236888, "internal_node_id": "0.0-4.0-3.0-28.0"}}, {"uniqueid": "w65685342:a41585114", "current_trial": 69, "dateTime": 1664874400479, "trialdata": {"revealed_states": [], "num_clicks_accrued": [0, 0, 0, 0, 0, 0, 0, 0, 0, 0, 0, 0, 0], "stateRewards": ["", -4, 4, -24, -24, -4, -8, 24, 48, 4, -4, 24, 48], "withholdReward": true, "trial_id": "mdp_175395325183", "block": "test2", "trialIndex": 61, "score": 39.5, "costs": -1.5, "simulationMode": [null, null, null], "rewards": [-4, -8, 48], "path": ["0", "0", "5", "6", "8"], "rt": [7180, 154, 365], "actions": ["right", "right", "down"], "actionTimes": [8050, 8718, 9578], "queries": {"click": {"state": {"target": ["4", "8", "5", "12", "10", "7"], "time": [1480, 2455, 3304, 4518, 5309, 6945]}, "edge": {"target": [], "time": []}}, "mouseover": {"state": {"target": ["4", "1", "5", "8", "5", "0", "12", "10", "9", "0", "7"], "time": [1213, 1930, 1995, 2196, 3046, 4045, 4279, 5046, 5930, 6112, 6612]}, "edge": {"target": [], "time": []}}, "mouseout": {"state": {"target": ["1", "0", "4", "1", "5", "8", "5", "0", "12", "10", "9", "0", "5"], "time": [456, 1085, 1865, 1962, 2045, 2962, 4013, 4129, 5012, 5880, 6012, 6262, 6529]}, "edge": {"target": [], "time": []}}}, "displayed_time": "10.08", "trialTime": 11717, "trial_type": "mouselab-mdp", "trial_index": 69, "time_elapsed": 1248803, "internal_node_id": "0.0-4.0-3.0-29.0"}}, {"uniqueid": "w65685342:a41585114", "current_trial": 70, "dateTime": 1664874410893, "trialdata": {"rt": 10401, "stimulus": "<h1> End of block! </h1>\n\nYou have reached the end of the block 2/4. If you need a short break, feel free to take one now before moving on.\n\n<br><br>\nIn the next block, you will complete another 30 rounds of this game.\n\n<br><br>\n<div style='text-align: center;'>Press <code>space</code> to begin.</div>\n<br><br>\n<div style='text-align: center;'>(If the experiment doesn't continue, try clicking on the text and then pressing <code>space</code>.)</div>", "response": " ", "trial_id": "mdp_ready_3", "trial_type": "html-keyboard-response", "trial_index": 70, "time_elapsed": 1259216, "internal_node_id": "0.0-4.0-4.0"}}, {"uniqueid": "w65685342:a41585114", "current_trial": 71, "dateTime": 1664874422289, "trialdata": {"revealed_states": [], "num_clicks_accrued": [0, 0, 0, 0, 0, 0, 0, 0, 0, 0, 0, 0, 0], "stateRewards": ["", 4, -8, 24, 48, 2, -4, 48, 48, 4, -8, 48, 48], "withholdReward": true, "trial_id": "mdp_962498334245", "block": "test3", "trialIndex": 62, "score": 48, "costs": -1, "simulationMode": [null, null, null], "rewards": [4, -8, 48], "path": ["0", "0", "1", "2", "4"], "rt": [5785, 494, 50], "actions": ["up", "up", "left"], "actionTimes": [7585, 8592, 9130], "queries": {"click": {"state": {"target": ["4", "2", "12", "10"], "time": [2520, 3669, 4935, 6017]}, "edge": {"target": [], "time": []}}, "mouseover": {"state": {"target": ["1", "4", "1", "2", "9", "12", "9", "10"], "time": [2095, 2262, 3079, 3362, 4545, 4613, 5612, 5780]}, "edge": {"target": [], "time": []}}, "mouseout": {"state": {"target": ["2", "1", "1", "4", "1", "2", "9", "12", "9", "10"], "time": [1079, 1212, 2129, 2930, 3296, 4478, 4579, 5479, 5729, 6963]}, "edge": {"target": [], "time": []}}}, "displayed_time": "10.80", "trialTime": 11159, "trial_type": "mouselab-mdp", "trial_index": 71, "time_elapsed": 1270612, "internal_node_id": "0.0-4.0-5.0-0.0"}}, {"uniqueid": "w65685342:a41585114", "current_trial": 72, "dateTime": 1664874433016, "trialdata": {"revealed_states": [], "num_clicks_accrued": [0, 0, 0, 0, 0, 0, 0, 0, 0, 0, 0, 0, 0], "stateRewards": ["", 4, -8, 48, -24, 4, -4, -48, -48, 4, -4, 24, 24], "withholdReward": true, "trial_id": "mdp_221562928904", "block": "test3", "trialIndex": 63, "score": 47.5, "costs": -1.5, "simulationMode": [null, null, null], "rewards": [4, -8, 48], "path": ["0", "0", "1", "2", "3"], "rt": [5661, 312, 5], "actions": ["up", "up", "right"], "actionTimes": [6788, 7589, 8098], "queries": {"click": {"state": {"target": ["12", "7", "4", "11", "8", "3"], "time": [1869, 2764, 3559, 4131, 4825, 5491]}, "edge": {"target": [], "time": []}}, "mouseover": {"state": {"target": ["12", "0", "5", "7", "1", "4", "11", "8", "5", "3", "2", "1"], "time": [1775, 2326, 2392, 2576, 3175, 3393, 3976, 4642, 5176, 5392, 6042, 6142]}, "edge": {"target": [], "time": []}}, "mouseout": {"state": {"target": ["9", "0", "12", "0", "5", "7", "1", "4", "11", "8", "5", "3", "2"], "time": [693, 1459, 2092, 2359, 2409, 3093, 3226, 3859, 4292, 5126, 5209, 5992, 6076]}, "edge": {"target": [], "time": []}}}, "displayed_time": "10.13", "trialTime": 10550, "trial_type": "mouselab-mdp", "trial_index": 72, "time_elapsed": 1281340, "internal_node_id": "0.0-4.0-5.0-1.0"}}, {"uniqueid": "w65685342:a41585114", "current_trial": 73, "dateTime": 1664874444269, "trialdata": {"revealed_states": [], "num_clicks_accrued": [0, 0, 0, 0, 0, 0, 0, 0, 0, 0, 0, 0, 0], "stateRewards": ["", -2, -8, 48, -24, 2, -4, -48, -24, -2, -4, -48, 48], "withholdReward": false, "trial_id": "mdp_143798438087", "block": "test3", "trialIndex": 64, "score": 46, "costs": -1, "simulationMode": [null, null, null], "rewards": [-2, -4, 48], "path": ["0", "0", "9", "10", "12"], "rt": [4342, 124, 95], "actions": ["left", "left", "down"], "actionTimes": [5554, 6166, 6754], "queries": {"click": {"state": {"target": ["4", "8", "12", "10"], "time": [1942, 2794, 3597, 4512]}, "edge": {"target": [], "time": []}}, "mouseover": {"state": {"target": ["4", "1", "5", "8", "12", "10", "10"], "time": [1724, 2342, 2390, 2491, 3342, 3957, 4225]}, "edge": {"target": [], "time": []}}, "mouseout": {"state": {"target": ["1", "4", "1", "5", "8", "12", "10", "10"], "time": [510, 2292, 2374, 2440, 3108, 3940, 4024, 9408]}, "edge": {"target": [], "time": []}}}, "displayed_time": "10.21", "trialTime": 11068, "trial_type": "mouselab-mdp", "trial_index": 73, "time_elapsed": 1292593, "internal_node_id": "0.0-4.0-5.0-2.0"}}, {"uniqueid": "w65685342:a41585114", "current_trial": 74, "dateTime": 1664874454056, "trialdata": {"revealed_states": [], "num_clicks_accrued": [0, 0, 0, 0, 0, 0, 0, 0, 0, 0, 0, 0, 0], "stateRewards": ["", 4, -8, 48, 24, 4, -4, 48, 48, -4, 8, -48, 24], "withholdReward": true, "trial_id": "mdp_303828806348", "block": "test3", "trialIndex": 65, "score": 52.25, "costs": -0.75, "simulationMode": [null, null, null], "rewards": [4, -4, 48], "path": ["0", "0", "5", "6", "7"], "rt": [3420, 83, 158], "actions": ["right", "right", "up"], "actionTimes": [4355, 4939, 5623], "queries": {"click": {"state": {"target": ["12", "7", "5"], "time": [1595, 2833, 3840]}, "edge": {"target": [], "time": []}}, "mouseover": {"state": {"target": ["12", "0", "5", "7", "7", "5"], "time": [1373, 2006, 2061, 2225, 2623, 3672]}, "edge": {"target": [], "time": []}}, "mouseout": {"state": {"target": ["0", "12", "0", "5", "7", "7", "5"], "time": [1216, 1906, 2023, 2090, 2275, 3272, 9223]}, "edge": {"target": [], "time": []}}}, "displayed_time": "8.94", "trialTime": 9552, "trial_type": "mouselab-mdp", "trial_index": 74, "time_elapsed": 1302379, "internal_node_id": "0.0-4.0-5.0-3.0"}}, {"uniqueid": "w65685342:a41585114", "current_trial": 75, "dateTime": 1664874463579, "trialdata": {"revealed_states": [], "num_clicks_accrued": [0, 0, 0, 0, 0, 0, 0, 0, 0, 0, 0, 0, 0], "stateRewards": ["", -4, 4, -24, -24, -4, -8, 24, 48, 4, -4, 24, 48], "withholdReward": true, "trial_id": "mdp_175395325183", "block": "test3", "trialIndex": 66, "score": 40.25, "costs": -0.75, "simulationMode": [null, null, null], "rewards": [-4, -8, 48], "path": ["0", "0", "5", "6", "8"], "rt": [4058, 69, 50], "actions": ["right", "right", "down"], "actionTimes": [5148, 5716, 6283], "queries": {"click": {"state": {"target": ["4", "8", "5"], "time": [1753, 2597, 3950]}, "edge": {"target": [], "time": []}}, "mouseover": {"state": {"target": ["4", "5", "8", "5", "5", "6"], "time": [1496, 2213, 2363, 3231, 3630, 4496]}, "edge": {"target": [], "time": []}}, "mouseout": {"state": {"target": ["0", "4", "5", "8", "5", "5"], "time": [780, 2097, 2247, 2964, 3264, 4396]}, "edge": {"target": [], "time": []}}}, "displayed_time": "9.09", "trialTime": 9333, "trial_type": "mouselab-mdp", "trial_index": 75, "time_elapsed": 1311903, "internal_node_id": "0.0-4.0-5.0-4.0"}}, {"uniqueid": "w65685342:a41585114", "current_trial": 76, "dateTime": 1664874474604, "trialdata": {"revealed_states": [], "num_clicks_accrued": [0, 0, 0, 0, 0, 0, 0, 0, 0, 0, 0, 0, 0], "stateRewards": ["", -2, -8, -24, -24, 4, -4, -48, 48, 2, 8, 48, -48], "withholdReward": true, "trial_id": "mdp_498095124548", "block": "test3", "trialIndex": 67, "score": 61.5, "costs": -1.5, "simulationMode": [null, null, null], "rewards": [2, 8, 48], "path": ["0", "0", "9", "10", "11"], "rt": [7505, 46, 44], "actions": ["left", "left", "up"], "actionTimes": [8540, 9088, 9620], "queries": {"click": {"state": {"target": ["4", "12", "7", "8", "11", "10"], "time": [1646, 2579, 4086, 5138, 6261, 7273]}, "edge": {"target": [], "time": []}}, "mouseover": {"state": {"target": ["4", "10", "12", "0", "5", "7", "7", "6", "8", "8", "5", "11", "0", "9", "10", "9", "0"], "time": [1391, 2125, 2341, 2975, 3008, 3092, 3874, 4410, 4476, 4892, 5658, 6042, 6825, 6908, 7008, 7624, 7659]}, "edge": {"target": [], "time": []}}, "mouseout": {"state": {"target": ["6", "5", "4", "10", "12", "0", "5", "7", "7", "6", "8", "8", "5", "11", "0", "9", "10", "9", "0"], "time": [442, 558, 2011, 2175, 2927, 2992, 3025, 3242, 4393, 4444, 4510, 5558, 5741, 6558, 6843, 6958, 7608, 7642, 7691]}, "edge": {"target": [], "time": []}}}, "displayed_time": "10.11", "trialTime": 10836, "trial_type": "mouselab-mdp", "trial_index": 76, "time_elapsed": 1322927, "internal_node_id": "0.0-4.0-5.0-5.0"}}, {"uniqueid": "w65685342:a41585114", "current_trial": 77, "dateTime": 1664874486535, "trialdata": {"revealed_states": [], "num_clicks_accrued": [0, 0, 0, 0, 0, 0, 0, 0, 0, 0, 0, 0, 0], "stateRewards": ["", -2, 8, 48, 24, 2, -4, 48, -48, 2, 8, 24, -24], "withholdReward": true, "trial_id": "mdp_176207245985", "block": "test3", "trialIndex": 68, "score": 57, "costs": -2, "simulationMode": [null, null, null], "rewards": [-2, 8, 48], "path": ["0", "0", "1", "2", "3"], "rt": [8411, 102, 17], "actions": ["up", "up", "right"], "actionTimes": [9193, 9792, 10324], "queries": {"click": {"state": {"target": ["4", "8", "12", "11", "7", "3", "6", "2"], "time": [1583, 2477, 3573, 4267, 5006, 6132, 7076, 8172]}, "edge": {"target": [], "time": []}}, "mouseover": {"state": {"target": ["1", "4", "1", "5", "8", "12", "10", "11", "1", "7", "3", "6", "2"], "time": [1172, 1339, 2006, 2106, 2239, 3340, 3908, 3991, 4624, 4724, 5806, 6757, 7939]}, "edge": {"target": [], "time": []}}, "mouseout": {"state": {"target": ["0", "1", "4", "1", "5", "8", "12", "10", "11", "1", "7", "3", "6", "3"], "time": [1107, 1222, 1939, 2039, 2156, 2773, 3874, 3957, 4544, 4641, 5689, 6457, 7472, 7756]}, "edge": {"target": [], "time": []}}}, "displayed_time": "10.84", "trialTime": 11698, "trial_type": "mouselab-mdp", "trial_index": 77, "time_elapsed": 1334859, "internal_node_id": "0.0-4.0-5.0-6.0"}}, {"uniqueid": "w65685342:a41585114", "current_trial": 78, "dateTime": 1664874497203, "trialdata": {"revealed_states": [], "num_clicks_accrued": [0, 0, 0, 0, 0, 0, 0, 0, 0, 0, 0, 0, 0], "stateRewards": ["", -4, 4, -24, 48, 2, 4, -48, 24, 4, -8, -24, 24], "withholdReward": true, "trial_id": "mdp_740130150937", "block": "test3", "trialIndex": 69, "score": 52.5, "costs": -0.5, "simulationMode": [null, null, null], "rewards": [-4, 4, 48], "path": ["0", "0", "1", "2", "4"], "rt": [3564, 94, 99], "actions": ["up", "up", "left"], "actionTimes": [4642, 5228, 5832], "queries": {"click": {"state": {"target": ["4", "2"], "time": [1747, 3893]}, "edge": {"target": [], "time": []}}, "mouseover": {"state": {"target": ["4", "1", "1", "2"], "time": [1498, 2168, 3015, 3499]}, "edge": {"target": [], "time": []}}, "mouseout": {"state": {"target": ["2", "1", "0", "4", "1", "1"], "time": [465, 649, 1316, 2084, 2483, 3099]}, "edge": {"target": [], "time": []}}}, "displayed_time": "10.08", "trialTime": 10492, "trial_type": "mouselab-mdp", "trial_index": 78, "time_elapsed": 1345526, "internal_node_id": "0.0-4.0-5.0-7.0"}}, {"uniqueid": "w65685342:a41585114", "current_trial": 79, "dateTime": 1664874507155, "trialdata": {"revealed_states": [], "num_clicks_accrued": [0, 0, 0, 0, 0, 0, 0, 0, 0, 0, 0, 0, 0], "stateRewards": ["", -2, 4, -24, 48, 4, -8, 48, -48, 2, -8, 48, 24], "withholdReward": true, "trial_id": "mdp_501111216502", "block": "test3", "trialIndex": 70, "score": 54.25, "costs": -0.75, "simulationMode": [null, null, null], "rewards": [-2, 4, 48], "path": ["0", "0", "1", "2", "4"], "rt": [4043, 78, 100], "actions": ["up", "up", "left"], "actionTimes": [5002, 5568, 6156], "queries": {"click": {"state": {"target": ["4", "1", "2"], "time": [1610, 2556, 4301]}, "edge": {"target": [], "time": []}}, "mouseover": {"state": {"target": ["4", "1", "2"], "time": [1389, 2105, 3956]}, "edge": {"target": [], "time": []}}, "mouseout": {"state": {"target": ["2", "1", "4", "1"], "time": [437, 537, 1989, 3872]}, "edge": {"target": [], "time": []}}}, "displayed_time": "8.96", "trialTime": 9749, "trial_type": "mouselab-mdp", "trial_index": 79, "time_elapsed": 1355478, "internal_node_id": "0.0-4.0-5.0-8.0"}}, {"uniqueid": "w65685342:a41585114", "current_trial": 80, "dateTime": 1664874517880, "trialdata": {"revealed_states": [], "num_clicks_accrued": [0, 0, 0, 0, 0, 0, 0, 0, 0, 0, 0, 0, 0], "stateRewards": ["", -4, 4, -24, 24, 2, 4, -24, 48, -4, 8, -48, 48], "withholdReward": false, "trial_id": "mdp_422109108860", "block": "test3", "trialIndex": 71, "score": 58.25, "costs": -0.75, "simulationMode": [null, null, null], "rewards": [2, 4, 48], "path": ["0", "0", "5", "6", "8"], "rt": [3832, 51, 75], "actions": ["right", "right", "down"], "actionTimes": [4995, 5556, 6146], "queries": {"click": {"state": {"target": ["4", "8", "6"], "time": [1781, 3098, 4221]}, "edge": {"target": [], "time": []}}, "mouseover": {"state": {"target": ["1", "4", "1", "5", "8", "6"], "time": [1437, 1553, 2288, 2370, 2862, 3936]}, "edge": {"target": [], "time": []}}, "mouseout": {"state": {"target": ["2", "1", "1", "4", "1", "5", "8"], "time": [587, 737, 1453, 2204, 2337, 2404, 3703]}, "edge": {"target": [], "time": []}}}, "displayed_time": "10.16", "trialTime": 10524, "trial_type": "mouselab-mdp", "trial_index": 80, "time_elapsed": 1366204, "internal_node_id": "0.0-4.0-5.0-9.0"}}, {"uniqueid": "w65685342:a41585114", "current_trial": 81, "dateTime": 1664874530576, "trialdata": {"revealed_states": [], "num_clicks_accrued": [0, 0, 0, 0, 0, 0, 0, 0, 0, 0, 0, 0, 0], "stateRewards": ["", -4, -8, -48, 48, -2, -8, -48, -24, 4, 8, 24, -48], "withholdReward": false, "trial_id": "mdp_509977295685", "block": "test3", "trialIndex": 72, "score": 39.25, "costs": -1.75, "simulationMode": [null, null, null], "rewards": [-4, -8, 48], "path": ["0", "0", "1", "2", "4"], "rt": [8615, 38, 353], "actions": ["up", "up", "left"], "actionTimes": [9693, 10229, 11110], "queries": {"click": {"state": {"target": ["12", "4", "2", "7", "8", "11", "3"], "time": [1767, 2748, 3507, 4552, 5463, 7415, 8567]}, "edge": {"target": [], "time": []}}, "mouseover": {"state": {"target": ["12", "10", "4", "2", "7", "8", "11", "3"], "time": [1508, 2157, 2475, 3207, 4259, 5246, 6995, 8259]}, "edge": {"target": [], "time": []}}, "mouseout": {"state": {"target": ["6", "5", "0", "12", "10", "4", "2", "7", "8", "11"], "time": [674, 723, 1391, 2140, 2174, 3174, 4090, 5246, 6825, 7925]}, "edge": {"target": [], "time": []}}}, "displayed_time": "11.61", "trialTime": 12441, "trial_type": "mouselab-mdp", "trial_index": 81, "time_elapsed": 1378900, "internal_node_id": "0.0-4.0-5.0-10.0"}}, {"uniqueid": "w65685342:a41585114", "current_trial": 82, "dateTime": 1664874541289, "trialdata": {"revealed_states": [], "num_clicks_accrued": [0, 0, 0, 0, 0, 0, 0, 0, 0, 0, 0, 0, 0], "stateRewards": ["", 4, -8, 48, -24, -4, 4, 24, 24, -2, -4, 24, 24], "withholdReward": true, "trial_id": "mdp_542168715839", "block": "test3", "trialIndex": 73, "score": 47.5, "costs": -1.5, "simulationMode": [null, null, null], "rewards": [4, -8, 48], "path": ["0", "0", "1", "2", "3"], "rt": [6173, 40, 385], "actions": ["up", "up", "right"], "actionTimes": [7238, 7780, 8673], "queries": {"click": {"state": {"target": ["4", "8", "12", "11", "7", "3"], "time": [1958, 2807, 3698, 4442, 5194, 6258]}, "edge": {"target": [], "time": []}}, "mouseover": {"state": {"target": ["1", "4", "1", "5", "8", "12", "10", "11", "1", "7", "3", "3"], "time": [1604, 1721, 2304, 2371, 2488, 3471, 4105, 4188, 4805, 4887, 5588, 5982]}, "edge": {"target": [], "time": []}}, "mouseout": {"state": {"target": ["3", "1", "4", "1", "5", "8", "12", "10", "11", "1", "7", "3", "3"], "time": [452, 1622, 2271, 2321, 2388, 3188, 4071, 4155, 4765, 4821, 5554, 5688, 10156]}, "edge": {"target": [], "time": []}}}, "displayed_time": "10.07", "trialTime": 10516, "trial_type": "mouselab-mdp", "trial_index": 82, "time_elapsed": 1389612, "internal_node_id": "0.0-4.0-5.0-11.0"}}, {"uniqueid": "w65685342:a41585114", "current_trial": 83, "dateTime": 1664874552685, "trialdata": {"revealed_states": [], "num_clicks_accrued": [0, 0, 0, 0, 0, 0, 0, 0, 0, 0, 0, 0, 0], "stateRewards": ["", 2, 8, -48, -24, 4, 4, 24, 48, 4, -4, -48, 48], "withholdReward": true, "trial_id": "mdp_665096999232", "block": "test3", "trialIndex": 74, "score": 59.75, "costs": -1.25, "simulationMode": [null, null, null], "rewards": [4, 4, 48], "path": ["0", "0", "5", "6", "8"], "rt": [6740, 448, 329], "actions": ["right", "right", "down"], "actionTimes": [7565, 8529, 9359], "queries": {"click": {"state": {"target": ["4", "12", "8", "6", "10"], "time": [1748, 2620, 4654, 5813, 6650]}, "edge": {"target": [], "time": []}}, "mouseover": {"state": {"target": ["4", "12", "8", "6", "10"], "time": [1529, 2363, 4179, 5528, 6331]}, "edge": {"target": [], "time": []}}, "mouseout": {"state": {"target": ["0", "4", "12", "8", "6"], "time": [1062, 2095, 2930, 5278, 6097]}, "edge": {"target": [], "time": []}}}, "displayed_time": "10.82", "trialTime": 11187, "trial_type": "mouselab-mdp", "trial_index": 83, "time_elapsed": 1401009, "internal_node_id": "0.0-4.0-5.0-12.0"}}, {"uniqueid": "w65685342:a41585114", "current_trial": 84, "dateTime": 1664874563387, "trialdata": {"revealed_states": [], "num_clicks_accrued": [0, 0, 0, 0, 0, 0, 0, 0, 0, 0, 0, 0, 0], "stateRewards": ["", -4, 4, 24, 24, -2, 8, 24, -48, 4, -8, -24, -48], "withholdReward": true, "trial_id": "mdp_651542905861", "block": "test3", "trialIndex": 75, "score": 33.25, "costs": -1.75, "simulationMode": [null, null, null], "rewards": [-2, 8, 24], "path": ["0", "0", "5", "6", "7"], "rt": [6844, 55, 181], "actions": ["right", "right", "up"], "actionTimes": [7931, 8479, 9188], "queries": {"click": {"state": {"target": ["4", "12", "7", "8", "11", "3", "6"], "time": [1718, 2448, 3056, 3714, 4432, 5031, 7135]}, "edge": {"target": [], "time": []}}, "mouseover": {"state": {"