{"condition": 1, "counterbalance": 0, "assignmentId": "a70369798", "workerId": "w25955609", "hitId": "h75933956", "currenttrial": 103, "bonus": 0, "data": [{"uniqueid": "w25955609:a70369798", "current_trial": 0, "dateTime": 1664873208283, "trialdata": {"success": true, "trial_type": "fullscreen", "trial_index": 0, "time_elapsed": 14334, "internal_node_id": "0.0-0.0"}}, {"uniqueid": "w25955609:a70369798", "current_trial": 1, "dateTime": 1664873216954, "trialdata": {"view_history": [{"page_index": 0, "viewing_time": 8624}], "rt": 8625, "trial_id": "exp_instructions_no_distractor", "trial_type": "instructions", "trial_index": 1, "time_elapsed": 23005, "internal_node_id": "0.0-1.0"}}, {"uniqueid": "w25955609:a70369798", "current_trial": 2, "dateTime": 1664873220125, "trialdata": {"success": true, "trial_type": "fullscreen", "trial_index": 2, "time_elapsed": 26176, "internal_node_id": "0.0-2.0-0.0"}}, {"uniqueid": "w25955609:a70369798", "current_trial": 3, "dateTime": 1664873286833, "trialdata": {"view_history": [{"page_index": 0, "viewing_time": 30408}, {"page_index": 1, "viewing_time": 16303}, {"page_index": 2, "viewing_time": 4322}, {"page_index": 3, "viewing_time": 6051}, {"page_index": 4, "viewing_time": 9619}], "rt": 66703, "trial_id": "mouselab_instructions_1", "trial_type": "instructions", "trial_index": 3, "time_elapsed": 92883, "internal_node_id": "0.0-2.0-1.0"}}, {"uniqueid": "w25955609:a70369798", "current_trial": 4, "dateTime": 1664873300608, "trialdata": {"revealed_states": [], "num_clicks_accrued": [0, 0, 0, 0, 0, 0, 0, 0, 0, 0, 0, 0, 0], "stateRewards": ["", -10, -10, 10, -10, -10, -10, 10, 10, 10, -10, -10, 10], "withholdReward": false, "trial_id": "practice_1", "block": "test", "trialIndex": 0, "score": -8, "costs": 0, "simulationMode": [null, null, null], "rewards": [-10, -10, 10], "path": ["0", "0", "5", "6", "8"], "rt": [3158, 443, 821], "actions": ["right", "right", "down"], "actionTimes": [7094, 8058, 9409], "queries": {"click": {"state": {"target": [], "time": []}, "edge": {"target": [], "time": []}}, "mouseover": {"state": {"target": [], "time": []}, "edge": {"target": [], "time": []}}, "mouseout": {"state": {"target": ["1"], "time": [3149]}, "edge": {"target": [], "time": []}}}, "displayed_time": "9.94", "trialTime": 13456, "trial_type": "mouselab-mdp", "trial_index": 4, "time_elapsed": 106658, "internal_node_id": "0.0-2.0-2.0-0.0"}}, {"uniqueid": "w25955609:a70369798", "current_trial": 5, "dateTime": 1664873324355, "trialdata": {"revealed_states": [], "num_clicks_accrued": [0, 0, 0, 0, 0, 0, 0, 0, 0, 0, 0, 0, 0], "stateRewards": ["", -10, -10, -10, -10, -10, 10, -10, -10, 10, 10, 10, -10], "withholdReward": false, "trial_id": "practice_2", "block": "test", "trialIndex": 1, "score": 31.25, "costs": -0.75, "simulationMode": [null, null, null], "rewards": [10, 10, 10], "path": ["0", "0", "9", "10", "11"], "rt": [14149, 336, 1669], "actions": ["left", "left", "up"], "actionTimes": [16907, 17798, 19997], "queries": {"click": {"state": {"target": ["9", "10", "11"], "time": [10357, 13237, 14214]}, "edge": {"target": [], "time": []}}, "mouseover": {"state": {"target": ["9", "1", "3", "1", "10", "11"], "time": [10029, 10937, 11013, 11263, 12775, 13851]}, "edge": {"target": [], "time": []}}, "mouseout": {"state": {"target": ["0", "0", "9", "0", "9", "1", "3", "1", "9", "10"], "time": [1585, 1630, 2031, 2229, 10898, 10965, 11231, 12401, 12747, 13697]}, "edge": {"target": [], "time": []}}}, "displayed_time": "20.53", "trialTime": 23512, "trial_type": "mouselab-mdp", "trial_index": 5, "time_elapsed": 130406, "internal_node_id": "0.0-2.0-2.0-1.0"}}, {"uniqueid": "w25955609:a70369798", "current_trial": 6, "dateTime": 1664873352103, "trialdata": {"view_history": [{"page_index": 0, "viewing_time": 16278}, {"page_index": 1, "viewing_time": 6920}, {"page_index": 2, "viewing_time": 4543}], "rt": 27742, "trial_id": "mouselab_instructions_2_scarce", "trial_type": "instructions", "trial_index": 6, "time_elapsed": 158154, "internal_node_id": "0.0-2.0-3.0"}}, {"uniqueid": "w25955609:a70369798", "current_trial": 7, "dateTime": 1664873400887, "trialdata": {"rt": 48764, "response": {"Q0": "$-48 to $48", "Q1": "The cost is always $0.25.", "Q2": "The better I perform the higher my bonus will be.", "Q3": "No, the amount of cash at each node of the web may be different each time.", "Q4": "The values of the nodes walked through from start to finish.", "Q5": "No, the spider might forget to count the money on some rounds."}, "question_order": [0, 1, 2, 3, 4, 5], "correct": {"Q0": "$-48 to $48", "Q1": "The cost is always $0.25.", "Q2": "The better I perform the higher my bonus will be.", "Q3": "No, the amount of cash at each node of the web may be different each time.", "Q4": "The values of the nodes walked through from start to finish.", "Q5": "No, the spider might forget to count the money on some rounds."}, "trial_id": "mouselab_quiz_scarce", "trial_type": "survey-multi-choice", "trial_index": 7, "time_elapsed": 206936, "internal_node_id": "0.0-2.0-4.0"}}, {"uniqueid": "w25955609:a70369798", "current_trial": 8, "dateTime": 1664873408701, "trialdata": {"rt": 7764, "stimulus": "\n<h1> Get ready to start the game! </h1>\n\nThank you for reading the instructions. Get ready start with the first of 4 block(s) of this game.\n<br><br>\nIn this first block, you will complete 30 rounds of this game before moving on.\n<br><br>\nRemember, the more money the spider gets, the bigger your bonus will be!\n<br><br>\n<div style='text-align: center;'>Press <code>space</code> to begin.</div>\n\n<br><br>\n(If, at any point, the <code>space</code> key does not take you to the next page, click once on the text and try again.)", "response": " ", "trial_id": "mdp_ready_1", "trial_type": "html-keyboard-response", "trial_index": 8, "time_elapsed": 214751, "internal_node_id": "0.0-4.0-0.0"}}, {"uniqueid": "w25955609:a70369798", "current_trial": 9, "dateTime": 1664873431228, "trialdata": {"revealed_states": [], "num_clicks_accrued": [0, 0, 0, 0, 0, 0, 0, 0, 0, 0, 0, 0, 0], "stateRewards": ["", 2, 4, -48, 24, -4, 4, -24, 48, -2, -8, -48, 48], "withholdReward": true, "trial_id": "mdp_424193661731", "block": "test1", "trialIndex": 2, "score": 34.25, "costs": -0.75, "simulationMode": [null, null, null], "rewards": [2, 4, 24], "path": ["0", "0", "1", "2", "4"], "rt": [13172, 23, 1933], "actions": ["up", "up", "left"], "actionTimes": [16574, 17124, 19577], "queries": {"click": {"state": {"target": ["9", "5", "1"], "time": [6461, 9305, 12501]}, "edge": {"target": [], "time": []}}, "mouseover": {"state": {"target": ["9", "9", "5", "1"], "time": [4202, 5131, 8048, 11079]}, "edge": {"target": [], "time": []}}, "mouseout": {"state": {"target": ["8", "5", "0", "9", "9", "9", "5", "1"], "time": [2059, 2688, 2763, 4300, 7198, 7582, 10015, 13996]}, "edge": {"target": [], "time": []}}}, "displayed_time": "20.10", "trialTime": 22289, "trial_type": "mouselab-mdp", "trial_index": 9, "time_elapsed": 237278, "internal_node_id": "0.0-4.0-1.0-0.0"}}, {"uniqueid": "w25955609:a70369798", "current_trial": 10, "dateTime": 1664873442634, "trialdata": {"revealed_states": [], "num_clicks_accrued": [0, 0, 0, 0, 0, 0, 0, 0, 0, 0, 0, 0, 0], "stateRewards": ["", -2, 8, 48, 48, 4, -8, -48, 48, 2, -4, -48, 48], "withholdReward": true, "trial_id": "mdp_132958048709", "block": "test1", "trialIndex": 3, "score": 49, "costs": 0, "simulationMode": [null, null, null], "rewards": [4, -8, 48], "path": ["0", "0", "5", "6", "8"], "rt": [2381, 272, 502], "actions": ["right", "right", "down"], "actionTimes": [4796, 5598, 6611], "queries": {"click": {"state": {"target": [], "time": []}, "edge": {"target": [], "time": []}}, "mouseover": {"state": {"target": [], "time": []}, "edge": {"target": [], "time": []}}, "mouseout": {"state": {"target": [], "time": []}, "edge": {"target": [], "time": []}}}, "displayed_time": "9.46", "trialTime": 11196, "trial_type": "mouselab-mdp", "trial_index": 10, "time_elapsed": 248684, "internal_node_id": "0.0-4.0-1.0-1.0"}}, {"uniqueid": "w25955609:a70369798", "current_trial": 11, "dateTime": 1664873456625, "trialdata": {"revealed_states": [], "num_clicks_accrued": [0, 0, 0, 0, 0, 0, 0, 0, 0, 0, 0, 0, 0], "stateRewards": ["", 2, 4, -48, -24, -4, 4, -24, 24, -2, -8, -24, 24], "withholdReward": false, "trial_id": "mdp_640720803523", "block": "test1", "trialIndex": 4, "score": 19, "costs": 0, "simulationMode": [null, null, null], "rewards": [-2, -8, 24], "path": ["0", "0", "9", "10", "12"], "rt": [3030, 33, 556], "actions": ["left", "left", "down"], "actionTimes": [5399, 5959, 7036], "queries": {"click": {"state": {"target": [], "time": []}, "edge": {"target": [], "time": []}}, "mouseover": {"state": {"target": [], "time": []}, "edge": {"target": [], "time": []}}, "mouseout": {"state": {"target": ["0"], "time": [1864]}, "edge": {"target": [], "time": []}}}, "displayed_time": "11.50", "trialTime": 13774, "trial_type": "mouselab-mdp", "trial_index": 11, "time_elapsed": 262675, "internal_node_id": "0.0-4.0-1.0-2.0"}}, {"uniqueid": "w25955609:a70369798", "current_trial": 12, "dateTime": 1664873472838, "trialdata": {"revealed_states": [], "num_clicks_accrued": [0, 0, 0, 0, 0, 0, 0, 0, 0, 0, 0, 0, 0], "stateRewards": ["", -4, 8, -48, -48, -2, -8, -24, -48, 2, -4, -48, 24], "withholdReward": true, "trial_id": "mdp_743906784415", "block": "test1", "trialIndex": 5, "score": 26.25, "costs": -0.75, "simulationMode": [null, null, null], "rewards": [2, -4, 24], "path": ["0", "0", "9", "10", "12"], "rt": [10199, 51, 400], "actions": ["left", "left", "down"], "actionTimes": [12288, 12849, 13771], "queries": {"click": {"state": {"target": ["5", "1", "9"], "time": [7460, 9415, 10737]}, "edge": {"target": [], "time": []}}, "mouseover": {"state": {"target": ["0", "5", "0", "1", "9"], "time": [5409, 6870, 8333, 8729, 10262]}, "edge": {"target": [], "time": []}}, "mouseout": {"state": {"target": ["0", "0", "5", "0", "1"], "time": [1972, 5769, 8276, 8548, 10051]}, "edge": {"target": [], "time": []}}}, "displayed_time": "14.30", "trialTime": 16002, "trial_type": "mouselab-mdp", "trial_index": 12, "time_elapsed": 278888, "internal_node_id": "0.0-4.0-1.0-3.0"}}, {"uniqueid": "w25955609:a70369798", "current_trial": 13, "dateTime": 1664873487218, "trialdata": {"revealed_states": [], "num_clicks_accrued": [0, 0, 0, 0, 0, 0, 0, 0, 0, 0, 0, 0, 0], "stateRewards": ["", -2, -8, 24, -24, 4, -8, 48, 48, -4, -8, -24, -48], "withholdReward": true, "trial_id": "mdp_286767261523", "block": "test1", "trialIndex": 6, "score": 49, "costs": 0, "simulationMode": [null, null, null], "rewards": [4, -8, 48], "path": ["0", "0", "5", "6", "7"], "rt": [1170, 261, 468], "actions": ["right", "right", "up"], "actionTimes": [4531, 5317, 6304], "queries": {"click": {"state": {"target": [], "time": []}, "edge": {"target": [], "time": []}}, "mouseover": {"state": {"target": [], "time": []}, "edge": {"target": [], "time": []}}, "mouseout": {"state": {"target": ["9"], "time": [2689]}, "edge": {"target": [], "time": []}}}, "displayed_time": "12.56", "trialTime": 14138, "trial_type": "mouselab-mdp", "trial_index": 13, "time_elapsed": 293268, "internal_node_id": "0.0-4.0-1.0-4.0"}}, {"uniqueid": "w25955609:a70369798", "current_trial": 14, "dateTime": 1664873497228, "trialdata": {"revealed_states": [], "num_clicks_accrued": [0, 0, 0, 0, 0, 0, 0, 0, 0, 0, 0, 0, 0], "stateRewards": ["", 4, 8, 24, 24, 2, -4, 48, -24, -4, 8, -24, 24], "withholdReward": true, "trial_id": "mdp_932292142091", "block": "test1", "trialIndex": 7, "score": -15, "costs": 0, "simulationMode": [null, null, null], "rewards": [-4, 8, -24], "path": ["0", "0", "9", "10", "11"], "rt": [2126, 444, 430], "actions": ["left", "left", "up"], "actionTimes": [3664, 4627, 5596], "queries": {"click": {"state": {"target": [], "time": []}, "edge": {"target": [], "time": []}}, "mouseover": {"state": {"target": [], "time": []}, "edge": {"target": [], "time": []}}, "mouseout": {"state": {"target": ["0"], "time": [1419]}, "edge": {"target": [], "time": []}}}, "displayed_time": "8.60", "trialTime": 9782, "trial_type": "mouselab-mdp", "trial_index": 14, "time_elapsed": 303277, "internal_node_id": "0.0-4.0-1.0-5.0"}}, {"uniqueid": "w25955609:a70369798", "current_trial": 15, "dateTime": 1664873513278, "trialdata": {"revealed_states": [], "num_clicks_accrued": [0, 0, 0, 0, 0, 0, 0, 0, 0, 0, 0, 0, 0], "stateRewards": ["", -2, -4, -48, 48, -2, -4, 24, 48, -4, -8, -24, 24], "withholdReward": false, "trial_id": "mdp_917590390609", "block": "test1", "trialIndex": 8, "score": -49.75, "costs": -0.75, "simulationMode": [null, null, null], "rewards": [-2, -4, -48], "path": ["0", "0", "1", "2", "3"], "rt": [9849, 358, 478], "actions": ["up", "up", "right"], "actionTimes": [11544, 12425, 13434], "queries": {"click": {"state": {"target": ["5", "1", "9"], "time": [3850, 5462, 6687]}, "edge": {"target": [], "time": []}}, "mouseover": {"state": {"target": ["5", "0", "1", "12", "9"], "time": [3225, 4567, 4844, 5937, 6223]}, "edge": {"target": [], "time": []}}, "mouseout": {"state": {"target": ["0", "5", "0", "1", "12"], "time": [1573, 4541, 4605, 5886, 6193]}, "edge": {"target": [], "time": []}}}, "displayed_time": "13.96", "trialTime": 15829, "trial_type": "mouselab-mdp", "trial_index": 15, "time_elapsed": 319328, "internal_node_id": "0.0-4.0-1.0-6.0"}}, {"uniqueid": "w25955609:a70369798", "current_trial": 16, "dateTime": 1664873525959, "trialdata": {"revealed_states": [], "num_clicks_accrued": [0, 0, 0, 0, 0, 0, 0, 0, 0, 0, 0, 0, 0], "stateRewards": ["", 4, 8, 48, -48, -4, 8, -24, -24, -4, 8, 48, 48], "withholdReward": true, "trial_id": "mdp_377640328420", "block": "test1", "trialIndex": 9, "score": -31, "costs": 0, "simulationMode": [null, null, null], "rewards": [4, 8, -48], "path": ["0", "0", "1", "2", "4"], "rt": [2778, 294, 1307], "actions": ["up", "up", "left"], "actionTimes": [4656, 5482, 7312], "queries": {"click": {"state": {"target": [], "time": []}, "edge": {"target": [], "time": []}}, "mouseover": {"state": {"target": [], "time": []}, "edge": {"target": [], "time": []}}, "mouseout": {"state": {"target": ["9"], "time": [1216]}, "edge": {"target": [], "time": []}}}, "displayed_time": "11.02", "trialTime": 12478, "trial_type": "mouselab-mdp", "trial_index": 16, "time_elapsed": 332010, "internal_node_id": "0.0-4.0-1.0-7.0"}}, {"uniqueid": "w25955609:a70369798", "current_trial": 17, "dateTime": 1664873539766, "trialdata": {"revealed_states": [], "num_clicks_accrued": [0, 0, 0, 0, 0, 0, 0, 0, 0, 0, 0, 0, 0], "stateRewards": ["", -2, -8, 48, -24, 2, -4, -48, -24, -2, -4, -48, 48], "withholdReward": false, "trial_id": "mdp_143798438087", "block": "test1", "trialIndex": 10, "score": 47, "costs": 0, "simulationMode": [null, null, null], "rewards": [-2, -4, 48], "path": ["0", "0", "9", "10", "12"], "rt": [1886, 232, 695], "actions": ["left", "left", "down"], "actionTimes": [3167, 3929, 5137], "queries": {"click": {"state": {"target": [], "time": []}, "edge": {"target": [], "time": []}}, "mouseover": {"state": {"target": [], "time": []}, "edge": {"target": [], "time": []}}, "mouseout": {"state": {"target": ["0"], "time": [572]}, "edge": {"target": [], "time": []}}}, "displayed_time": "11.45", "trialTime": 13592, "trial_type": "mouselab-mdp", "trial_index": 17, "time_elapsed": 345817, "internal_node_id": "0.0-4.0-1.0-8.0"}}, {"uniqueid": "w25955609:a70369798", "current_trial": 18, "dateTime": 1664873555880, "trialdata": {"revealed_states": [], "num_clicks_accrued": [0, 0, 0, 0, 0, 0, 0, 0, 0, 0, 0, 0, 0], "stateRewards": ["", -2, 8, -24, 24, -4, -8, -24, 48, -2, -8, -48, 48], "withholdReward": true, "trial_id": "mdp_238332601315", "block": "test1", "trialIndex": 11, "score": 34.25, "costs": -0.75, "simulationMode": [null, null, null], "rewards": [-2, 8, 24], "path": ["0", "0", "1", "2", "4"], "rt": [9275, 223, 917], "actions": ["up", "up", "left"], "actionTimes": [11554, 12304, 13745], "queries": {"click": {"state": {"target": ["5", "9", "1"], "time": [4256, 6007, 7620]}, "edge": {"target": [], "time": []}}, "mouseover": {"state": {"target": ["0", "5", "9", "1"], "time": [3496, 3890, 5643, 6987]}, "edge": {"target": [], "time": []}}, "mouseout": {"state": {"target": ["0", "0", "5", "9"], "time": [1251, 3690, 5094, 6837]}, "edge": {"target": [], "time": []}}}, "displayed_time": "14.26", "trialTime": 15912, "trial_type": "mouselab-mdp", "trial_index": 18, "time_elapsed": 361930, "internal_node_id": "0.0-4.0-1.0-9.0"}}, {"uniqueid": "w25955609:a70369798", "current_trial": 19, "dateTime": 1664873569214, "trialdata": {"revealed_states": [], "num_clicks_accrued": [0, 0, 0, 0, 0, 0, 0, 0, 0, 0, 0, 0, 0], "stateRewards": ["", -2, 4, -48, -48, 4, 4, 48, -48, 2, 8, 24, 48], "withholdReward": true, "trial_id": "mdp_686771069745", "block": "test1", "trialIndex": 12, "score": 61, "costs": 0, "simulationMode": [null, null, null], "rewards": [4, 4, 48], "path": ["0", "0", "5", "6", "7"], "rt": [2007, 132, 429], "actions": ["right", "right", "up"], "actionTimes": [3597, 4271, 5234], "queries": {"click": {"state": {"target": [], "time": []}, "edge": {"target": [], "time": []}}, "mouseover": {"state": {"target": [], "time": []}, "edge": {"target": [], "time": []}}, "mouseout": {"state": {"target": ["1"], "time": [831]}, "edge": {"target": [], "time": []}}}, "displayed_time": "11.75", "trialTime": 13098, "trial_type": "mouselab-mdp", "trial_index": 19, "time_elapsed": 375264, "internal_node_id": "0.0-4.0-1.0-10.0"}}, {"uniqueid": "w25955609:a70369798", "current_trial": 20, "dateTime": 1664873581467, "trialdata": {"revealed_states": [], "num_clicks_accrued": [0, 0, 0, 0, 0, 0, 0, 0, 0, 0, 0, 0, 0], "stateRewards": ["", 2, 8, 48, -24, -4, 4, 48, 24, -2, 8, 24, 24], "withholdReward": true, "trial_id": "mdp_123436106791", "block": "test1", "trialIndex": 13, "score": 35, "costs": 0, "simulationMode": [null, null, null], "rewards": [-2, 8, 24], "path": ["0", "0", "9", "10", "12"], "rt": [1473, 46, 411], "actions": ["left", "left", "down"], "actionTimes": [2971, 3544, 4493], "queries": {"click": {"state": {"target": [], "time": []}, "edge": {"target": [], "time": []}}, "mouseover": {"state": {"target": [], "time": []}, "edge": {"target": [], "time": []}}, "mouseout": {"state": {"target": ["0"], "time": [1200]}, "edge": {"target": [], "time": []}}}, "displayed_time": "9.64", "trialTime": 12032, "trial_type": "mouselab-mdp", "trial_index": 20, "time_elapsed": 387517, "internal_node_id": "0.0-4.0-1.0-11.0"}}, {"uniqueid": "w25955609:a70369798", "current_trial": 21, "dateTime": 1664873594997, "trialdata": {"revealed_states": [], "num_clicks_accrued": [0, 0, 0, 0, 0, 0, 0, 0, 0, 0, 0, 0, 0], "stateRewards": ["", 2, 8, -48, 24, -4, 8, 48, -24, 2, 8, 24, 24], "withholdReward": true, "trial_id": "mdp_175372499314", "block": "test1", "trialIndex": 14, "score": 38.75, "costs": -0.25, "simulationMode": [null, null, null], "rewards": [2, 8, 24], "path": ["0", "0", "1", "2", "4"], "rt": [4271, 85, 554], "actions": ["up", "up", "left"], "actionTimes": [6765, 7383, 8450], "queries": {"click": {"state": {"target": ["1"], "time": [5243]}, "edge": {"target": [], "time": []}}, "mouseover": {"state": {"target": ["1"], "time": [3762]}, "edge": {"target": [], "time": []}}, "mouseout": {"state": {"target": ["0", "0"], "time": [1649, 2794]}, "edge": {"target": [], "time": []}}}, "displayed_time": "11.64", "trialTime": 13300, "trial_type": "mouselab-mdp", "trial_index": 21, "time_elapsed": 401048, "internal_node_id": "0.0-4.0-1.0-12.0"}}, {"uniqueid": "w25955609:a70369798", "current_trial": 22, "dateTime": 1664873607564, "trialdata": {"revealed_states": [], "num_clicks_accrued": [0, 0, 0, 0, 0, 0, 0, 0, 0, 0, 0, 0, 0], "stateRewards": ["", 4, 4, 48, -48, -2, -8, -48, -24, 2, 4, -24, -48], "withholdReward": true, "trial_id": "mdp_239929662917", "block": "test1", "trialIndex": 15, "score": -29, "costs": 0, "simulationMode": [null, null, null], "rewards": [-2, -8, -24], "path": ["0", "0", "5", "6", "8"], "rt": [1490, 16, 500], "actions": ["right", "right", "down"], "actionTimes": [3295, 3843, 4868], "queries": {"click": {"state": {"target": [], "time": []}, "edge": {"target": [], "time": []}}, "mouseover": {"state": {"target": [], "time": []}, "edge": {"target": [], "time": []}}, "mouseout": {"state": {"target": ["1"], "time": [1123]}, "edge": {"target": [], "time": []}}}, "displayed_time": "11.07", "trialTime": 12348, "trial_type": "mouselab-mdp", "trial_index": 22, "time_elapsed": 413614, "internal_node_id": "0.0-4.0-1.0-13.0"}}, {"uniqueid": "w25955609:a70369798", "current_trial": 23, "dateTime": 1664873619170, "trialdata": {"revealed_states": [], "num_clicks_accrued": [0, 0, 0, 0, 0, 0, 0, 0, 0, 0, 0, 0, 0], "stateRewards": ["", -4, -8, 48, 24, 4, -8, 24, -48, -2, -8, 24, -48], "withholdReward": true, "trial_id": "mdp_952038635544", "block": "test1", "trialIndex": 16, "score": 19, "costs": 0, "simulationMode": [null, null, null], "rewards": [-2, -8, 24], "path": ["0", "0", "9", "10", "11"], "rt": [2326, 274, 766], "actions": ["left", "left", "up"], "actionTimes": [4748, 5537, 6835], "queries": {"click": {"state": {"target": [], "time": []}, "edge": {"target": [], "time": []}}, "mouseover": {"state": {"target": [], "time": []}, "edge": {"target": [], "time": []}}, "mouseout": {"state": {"target": ["0", "0"], "time": [1609, 8441]}, "edge": {"target": [], "time": []}}}, "displayed_time": "9.48", "trialTime": 11397, "trial_type": "mouselab-mdp", "trial_index": 23, "time_elapsed": 425221, "internal_node_id": "0.0-4.0-1.0-14.0"}}, {"uniqueid": "w25955609:a70369798", "current_trial": 24, "dateTime": 1664873631843, "trialdata": {"revealed_states": [], "num_clicks_accrued": [0, 0, 0, 0, 0, 0, 0, 0, 0, 0, 0, 0, 0], "stateRewards": ["", 2, 4, 24, 48, -2, 8, 24, -24, -4, -4, 48, 48], "withholdReward": false, "trial_id": "mdp_753439303214", "block": "test1", "trialIndex": 17, "score": 58.5, "costs": -0.5, "simulationMode": [null, null, null], "rewards": [2, 4, 48], "path": ["0", "0", "1", "2", "4"], "rt": [7085, 95, 375], "actions": ["up", "up", "left"], "actionTimes": [8576, 9210, 10110], "queries": {"click": {"state": {"target": ["9", "5"], "time": [4982, 6685]}, "edge": {"target": [], "time": []}}, "mouseover": {"state": {"target": ["0", "9", "0", "5"], "time": [4449, 4508, 5729, 6381]}, "edge": {"target": [], "time": []}}, "mouseout": {"state": {"target": ["0", "0", "9", "0"], "time": [711, 4476, 5629, 5842]}, "edge": {"target": [], "time": []}}}, "displayed_time": "10.63", "trialTime": 12459, "trial_type": "mouselab-mdp", "trial_index": 24, "time_elapsed": 437893, "internal_node_id": "0.0-4.0-1.0-15.0"}}, {"uniqueid": "w25955609:a70369798", "current_trial": 25, "dateTime": 1664873647633, "trialdata": {"revealed_states": [], "num_clicks_accrued": [0, 0, 0, 0, 0, 0, 0, 0, 0, 0, 0, 0, 0], "stateRewards": ["", -4, 8, 48, -48, 2, -4, 24, -24, -2, 4, -24, -24], "withholdReward": true, "trial_id": "mdp_804988042722", "block": "test1", "trialIndex": 18, "score": -17, "costs": 0, "simulationMode": [null, null, null], "rewards": [-2, 4, -24], "path": ["0", "0", "9", "10", "11"], "rt": [1508, 232, 7721], "actions": ["left", "left", "up"], "actionTimes": [4786, 5532, 13770], "queries": {"click": {"state": {"target": [], "time": []}, "edge": {"target": [], "time": []}}, "mouseover": {"state": {"target": [], "time": []}, "edge": {"target": [], "time": []}}, "mouseout": {"state": {"target": ["5", "0", "0", "9"], "time": [1381, 9875, 10963, 11074]}, "edge": {"target": [], "time": []}}}, "displayed_time": "14.31", "trialTime": 15569, "trial_type": "mouselab-mdp", "trial_index": 25, "time_elapsed": 453681, "internal_node_id": "0.0-4.0-1.0-16.0"}}, {"uniqueid": "w25955609:a70369798", "current_trial": 26, "dateTime": 1664873659539, "trialdata": {"revealed_states": [], "num_clicks_accrued": [0, 0, 0, 0, 0, 0, 0, 0, 0, 0, 0, 0, 0], "stateRewards": ["", -4, -4, -24, 24, -4, 4, -24, 48, -2, 4, 48, -48], "withholdReward": true, "trial_id": "mdp_774757609669", "block": "test1", "trialIndex": 19, "score": 21, "costs": 0, "simulationMode": [null, null, null], "rewards": [-4, -4, 24], "path": ["0", "0", "1", "2", "4"], "rt": [1484, 124, 939], "actions": ["up", "up", "left"], "actionTimes": [3541, 4207, 5680], "queries": {"click": {"state": {"target": [], "time": []}, "edge": {"target": [], "time": []}}, "mouseover": {"state": {"target": [], "time": []}, "edge": {"target": [], "time": []}}, "mouseout": {"state": {"target": ["11"], "time": [547]}, "edge": {"target": [], "time": []}}}, "displayed_time": "10.17", "trialTime": 11648, "trial_type": "mouselab-mdp", "trial_index": 26, "time_elapsed": 465588, "internal_node_id": "0.0-4.0-1.0-17.0"}}, {"uniqueid": "w25955609:a70369798", "current_trial": 27, "dateTime": 1664873673534, "trialdata": {"revealed_states": [], "num_clicks_accrued": [0, 0, 0, 0, 0, 0, 0, 0, 0, 0, 0, 0, 0], "stateRewards": ["", -4, -4, -24, 48, -4, -8, -24, 48, 2, 4, 48, 48], "withholdReward": true, "trial_id": "mdp_810954007398", "block": "test1", "trialIndex": 20, "score": -27, "costs": 0, "simulationMode": [null, null, null], "rewards": [-4, -4, -24], "path": ["0", "0", "1", "2", "3"], "rt": [2043, 21, 722], "actions": ["up", "up", "right"], "actionTimes": [5212, 5756, 7020], "queries": {"click": {"state": {"target": [], "time": []}, "edge": {"target": [], "time": []}}, "mouseover": {"state": {"target": [], "time": []}, "edge": {"target": [], "time": []}}, "mouseout": {"state": {"target": ["0", "0"], "time": [752, 2384]}, "edge": {"target": [], "time": []}}}, "displayed_time": "12.29", "trialTime": 13763, "trial_type": "mouselab-mdp", "trial_index": 27, "time_elapsed": 479584, "internal_node_id": "0.0-4.0-1.0-18.0"}}, {"uniqueid": "w25955609:a70369798", "current_trial": 28, "dateTime": 1664873685720, "trialdata": {"revealed_states": [], "num_clicks_accrued": [0, 0, 0, 0, 0, 0, 0, 0, 0, 0, 0, 0, 0], "stateRewards": ["", -2, -4, -24, -48, -2, 8, -48, 24, 4, -4, -24, -24], "withholdReward": false, "trial_id": "mdp_915304165774", "block": "test1", "trialIndex": 21, "score": -25, "costs": 0, "simulationMode": [null, null, null], "rewards": [-2, -4, -24], "path": ["0", "0", "1", "2", "3"], "rt": [1458, 119, 1122], "actions": ["up", "up", "right"], "actionTimes": [2809, 3442, 5093], "queries": {"click": {"state": {"target": [], "time": []}, "edge": {"target": [], "time": []}}, "mouseover": {"state": {"target": [], "time": []}, "edge": {"target": [], "time": []}}, "mouseout": {"state": {"target": ["0"], "time": [596]}, "edge": {"target": [], "time": []}}}, "displayed_time": "9.47", "trialTime": 11980, "trial_type": "mouselab-mdp", "trial_index": 28, "time_elapsed": 491771, "internal_node_id": "0.0-4.0-1.0-19.0"}}, {"uniqueid": "w25955609:a70369798", "current_trial": 29, "dateTime": 1664873697153, "trialdata": {"revealed_states": [], "num_clicks_accrued": [0, 0, 0, 0, 0, 0, 0, 0, 0, 0, 0, 0, 0], "stateRewards": ["", 2, -8, 24, -48, 2, 4, 48, -48, -2, -8, -48, 48], "withholdReward": true, "trial_id": "mdp_629420544881", "block": "test1", "trialIndex": 22, "score": 43, "costs": 0, "simulationMode": [null, null, null], "rewards": [-2, -8, 48], "path": ["0", "0", "9", "10", "12"], "rt": [1698, 25, 789], "actions": ["left", "left", "down"], "actionTimes": [3115, 3654, 4961], "queries": {"click": {"state": {"target": [], "time": []}, "edge": {"target": [], "time": []}}, "mouseover": {"state": {"target": [], "time": []}, "edge": {"target": [], "time": []}}, "mouseout": {"state": {"target": ["0", "0", "0"], "time": [641, 978, 10541]}, "edge": {"target": [], "time": []}}}, "displayed_time": "9.56", "trialTime": 11228, "trial_type": "mouselab-mdp", "trial_index": 29, "time_elapsed": 503204, "internal_node_id": "0.0-4.0-1.0-20.0"}}, {"uniqueid": "w25955609:a70369798", "current_trial": 30, "dateTime": 1664873711997, "trialdata": {"revealed_states": [], "num_clicks_accrued": [0, 0, 0, 0, 0, 0, 0, 0, 0, 0, 0, 0, 0], "stateRewards": ["", 2, -4, 48, -24, 4, -8, -24, 48, -2, -4, 24, -48], "withholdReward": true, "trial_id": "mdp_357328205509", "block": "test1", "trialIndex": 23, "score": 51, "costs": 0, "simulationMode": [null, null, null], "rewards": [2, -4, 48], "path": ["0", "0", "1", "2", "3"], "rt": [1123, 61, 426], "actions": ["up", "up", "right"], "actionTimes": [5083, 5681, 6641], "queries": {"click": {"state": {"target": [], "time": []}, "edge": {"target": [], "time": []}}, "mouseover": {"state": {"target": [], "time": []}, "edge": {"target": [], "time": []}}, "mouseout": {"state": {"target": ["0"], "time": [14081]}, "edge": {"target": [], "time": []}}}, "displayed_time": "13.12", "trialTime": 14628, "trial_type": "mouselab-mdp", "trial_index": 30, "time_elapsed": 518047, "internal_node_id": "0.0-4.0-1.0-21.0"}}, {"uniqueid": "w25955609:a70369798", "current_trial": 31, "dateTime": 1664873725958, "trialdata": {"revealed_states": [], "num_clicks_accrued": [0, 0, 0, 0, 0, 0, 0, 0, 0, 0, 0, 0, 0], "stateRewards": ["", 2, 4, -48, -48, 2, 4, 48, -24, -2, 8, 48, -48], "withholdReward": true, "trial_id": "mdp_258528916140", "block": "test1", "trialIndex": 24, "score": 58.75, "costs": -0.25, "simulationMode": [null, null, null], "rewards": [2, 4, 48], "path": ["0", "0", "5", "6", "7"], "rt": [3331, 79, 924], "actions": ["right", "right", "up"], "actionTimes": [6846, 7465, 8930], "queries": {"click": {"state": {"target": ["5"], "time": [5586]}, "edge": {"target": [], "time": []}}, "mouseover": {"state": {"target": ["5", "0"], "time": [5226, 6265]}, "edge": {"target": [], "time": []}}, "mouseout": {"state": {"target": ["0", "0", "5"], "time": [918, 2298, 6238]}, "edge": {"target": [], "time": []}}}, "displayed_time": "11.63", "trialTime": 13763, "trial_type": "mouselab-mdp", "trial_index": 31, "time_elapsed": 532008, "internal_node_id": "0.0-4.0-1.0-22.0"}}, {"uniqueid": "w25955609:a70369798", "current_trial": 32, "dateTime": 1664873737855, "trialdata": {"revealed_states": [], "num_clicks_accrued": [0, 0, 0, 0, 0, 0, 0, 0, 0, 0, 0, 0, 0], "stateRewards": ["", -2, -4, -48, -48, 4, -4, 48, 24, 4, 4, 48, 48], "withholdReward": true, "trial_id": "mdp_950960813932", "block": "test1", "trialIndex": 25, "score": 61, "costs": 0, "simulationMode": [null, null, null], "rewards": [4, 4, 48], "path": ["0", "0", "9", "10", "11"], "rt": [3137, 13, 517], "actions": ["left", "left", "up"], "actionTimes": [4487, 5017, 6076], "queries": {"click": {"state": {"target": [], "time": []}, "edge": {"target": [], "time": []}}, "mouseover": {"state": {"target": [], "time": []}, "edge": {"target": [], "time": []}}, "mouseout": {"state": {"target": ["0"], "time": [863]}, "edge": {"target": [], "time": []}}}, "displayed_time": "10.44", "trialTime": 11679, "trial_type": "mouselab-mdp", "trial_index": 32, "time_elapsed": 543906, "internal_node_id": "0.0-4.0-1.0-23.0"}}, {"uniqueid": "w25955609:a70369798", "current_trial": 33, "dateTime": 1664873751280, "trialdata": {"revealed_states": [], "num_clicks_accrued": [0, 0, 0, 0, 0, 0, 0, 0, 0, 0, 0, 0, 0], "stateRewards": ["", 4, 8, 48, 48, 4, 4, -24, -48, 4, 8, -48, -48], "withholdReward": false, "trial_id": "mdp_984548726931", "block": "test1", "trialIndex": 26, "score": 65, "costs": 0, "simulationMode": [null, null, null], "rewards": [4, 8, 48], "path": ["0", "0", "1", "2", "4"], "rt": [1297, 20, 572], "actions": ["up", "up", "left"], "actionTimes": [2592, 3134, 4246], "queries": {"click": {"state": {"target": [], "time": []}, "edge": {"target": [], "time": []}}, "mouseover": {"state": {"target": [], "time": []}, "edge": {"target": [], "time": []}}, "mouseout": {"state": {"target": [], "time": []}, "edge": {"target": [], "time": []}}}, "displayed_time": "10.41", "trialTime": 13212, "trial_type": "mouselab-mdp", "trial_index": 33, "time_elapsed": 557331, "internal_node_id": "0.0-4.0-1.0-24.0"}}, {"uniqueid": "w25955609:a70369798", "current_trial": 34, "dateTime": 1664873763053, "trialdata": {"revealed_states": [], "num_clicks_accrued": [0, 0, 0, 0, 0, 0, 0, 0, 0, 0, 0, 0, 0], "stateRewards": ["", 2, 4, -48, 24, -4, -4, -24, 24, 2, -4, 24, -24], "withholdReward": false, "trial_id": "mdp_163600331068", "block": "test1", "trialIndex": 27, "score": -37.25, "costs": -0.25, "simulationMode": [null, null, null], "rewards": [2, 4, -48], "path": ["0", "0", "1", "2", "3"], "rt": [4931, 119, 420], "actions": ["up", "up", "right"], "actionTimes": [6405, 7045, 7980], "queries": {"click": {"state": {"target": ["5"], "time": [3902]}, "edge": {"target": [], "time": []}}, "mouseover": {"state": {"target": ["5", "5", "0", "1"], "time": [3257, 3591, 5174, 5441]}, "edge": {"target": [], "time": []}}, "mouseout": {"state": {"target": ["0", "5", "5", "0", "1"], "time": [1003, 3287, 4506, 5220, 10955]}, "edge": {"target": [], "time": []}}}, "displayed_time": "9.59", "trialTime": 11556, "trial_type": "mouselab-mdp", "trial_index": 34, "time_elapsed": 569101, "internal_node_id": "0.0-4.0-1.0-25.0"}}, {"uniqueid": "w25955609:a70369798", "current_trial": 35, "dateTime": 1664873775199, "trialdata": {"revealed_states": [], "num_clicks_accrued": [0, 0, 0, 0, 0, 0, 0, 0, 0, 0, 0, 0, 0], "stateRewards": ["", 2, -4, -24, -48, -2, 8, -24, 48, -2, 8, 24, -48], "withholdReward": true, "trial_id": "mdp_566582551557", "block": "test1", "trialIndex": 28, "score": -21.5, "costs": -0.5, "simulationMode": [null, null, null], "rewards": [2, -4, -24], "path": ["0", "0", "1", "2", "3"], "rt": [4876, 138, 345], "actions": ["up", "up", "right"], "actionTimes": [7195, 7888, 8747], "queries": {"click": {"state": {"target": ["9", "1"], "time": [4471, 6066]}, "edge": {"target": [], "time": []}}, "mouseover": {"state": {"target": ["9", "1", "1"], "time": [4168, 5389, 5720]}, "edge": {"target": [], "time": []}}, "mouseout": {"state": {"target": ["0", "0", "9", "1", "1"], "time": [503, 3967, 5138, 5415, 6369]}, "edge": {"target": [], "time": []}}}, "displayed_time": "10.43", "trialTime": 11874, "trial_type": "mouselab-mdp", "trial_index": 35, "time_elapsed": 581249, "internal_node_id": "0.0-4.0-1.0-26.0"}}, {"uniqueid": "w25955609:a70369798", "current_trial": 36, "dateTime": 1664873786220, "trialdata": {"revealed_states": [], "num_clicks_accrued": [0, 0, 0, 0, 0, 0, 0, 0, 0, 0, 0, 0, 0], "stateRewards": ["", -4, -8, -48, 48, -2, -8, -48, -24, 4, 8, 24, -48], "withholdReward": true, "trial_id": "mdp_509977295685", "block": "test1", "trialIndex": 29, "score": -55, "costs": 0, "simulationMode": [null, null, null], "rewards": [-4, -8, -48], "path": ["0", "0", "1", "2", "3"], "rt": [2725, 130, 1157], "actions": ["up", "up", "right"], "actionTimes": [4028, 4688, 6375], "queries": {"click": {"state": {"target": [], "time": []}, "edge": {"target": [], "time": []}}, "mouseover": {"state": {"target": [], "time": []}, "edge": {"target": [], "time": []}}, "mouseout": {"state": {"target": ["0"], "time": [10078]}, "edge": {"target": [], "time": []}}}, "displayed_time": "9.34", "trialTime": 10812, "trial_type": "mouselab-mdp", "trial_index": 36, "time_elapsed": 592270, "internal_node_id": "0.0-4.0-1.0-27.0"}}, {"uniqueid": "w25955609:a70369798", "current_trial": 37, "dateTime": 1664873801405, "trialdata": {"revealed_states": [], "num_clicks_accrued": [0, 0, 0, 0, 0, 0, 0, 0, 0, 0, 0, 0, 0], "stateRewards": ["", 4, -4, 48, -48, -4, -4, 48, -48, 4, 4, -48, -24], "withholdReward": false, "trial_id": "mdp_490058671112", "block": "test1", "trialIndex": 30, "score": -51, "costs": 0, "simulationMode": [null, null, null], "rewards": [-4, -4, -48], "path": ["0", "0", "5", "6", "8"], "rt": [1305, 24, 408], "actions": ["right", "right", "down"], "actionTimes": [2713, 3253, 4207], "queries": {"click": {"state": {"target": [], "time": []}, "edge": {"target": [], "time": []}}, "mouseover": {"state": {"target": [], "time": []}, "edge": {"target": [], "time": []}}, "mouseout": {"state": {"target": ["0"], "time": [11711]}, "edge": {"target": [], "time": []}}}, "displayed_time": "10.54", "trialTime": 14963, "trial_type": "mouselab-mdp", "trial_index": 37, "time_elapsed": 607455, "internal_node_id": "0.0-4.0-1.0-28.0"}}, {"uniqueid": "w25955609:a70369798", "current_trial": 38, "dateTime": 1664873815660, "trialdata": {"revealed_states": [], "num_clicks_accrued": [0, 0, 0, 0, 0, 0, 0, 0, 0, 0, 0, 0, 0], "stateRewards": ["", -2, 4, -48, 24, -4, 8, 48, 24, -2, 4, -48, -24], "withholdReward": true, "trial_id": "mdp_740882974347", "block": "test1", "trialIndex": 31, "score": 30.25, "costs": -0.75, "simulationMode": [null, null, null], "rewards": [-2, 4, 24], "path": ["0", "0", "1", "2", "4"], "rt": [5834, 209, 492], "actions": ["up", "up", "left"], "actionTimes": [7865, 8608, 9644], "queries": {"click": {"state": {"target": ["9", "1", "5"], "time": [4001, 5254, 6258]}, "edge": {"target": [], "time": []}}, "mouseover": {"state": {"target": ["0", "9", "1", "5"], "time": [3547, 3748, 4901, 5751]}, "edge": {"target": [], "time": []}}, "mouseout": {"state": {"target": ["0", "0", "9", "1"], "time": [1570, 3571, 4538, 5727]}, "edge": {"target": [], "time": []}}}, "displayed_time": "12.17", "trialTime": 14046, "trial_type": "mouselab-mdp", "trial_index": 38, "time_elapsed": 621710, "internal_node_id": "0.0-4.0-1.0-29.0"}}, {"uniqueid": "w25955609:a70369798", "current_trial": 39, "dateTime": 1664873824769, "trialdata": {"rt": 9093, "stimulus": "<h1> End of block! </h1>\n\nYou have reached the end of the block 1/4. If you need a short break, feel free to take one now before moving on.\n\n<br><br>\nIn the next block, you will complete another 30 rounds of this game.\n\n<br><br>\n<div style='text-align: center;'>Press <code>space</code> to begin.</div>\n<br><br>\n<div style='text-align: center;'>(If the experiment doesn't continue, try clicking on the text and then pressing <code>space</code>.)</div>", "response": " ", "trial_id": "mdp_ready_2", "trial_type": "html-keyboard-response", "trial_index": 39, "time_elapsed": 630820, "internal_node_id": "0.0-4.0-2.0"}}, {"uniqueid": "w25955609:a70369798", "current_trial": 40, "dateTime": 1664873837681, "trialdata": {"revealed_states": [], "num_clicks_accrued": [0, 0, 0, 0, 0, 0, 0, 0, 0, 0, 0, 0, 0], "stateRewards": ["", -2, 8, 48, 48, 4, -8, -48, 48, 2, -4, -48, 48], "withholdReward": false, "trial_id": "mdp_132958048709", "block": "test2", "trialIndex": 32, "score": 59, "costs": 0, "simulationMode": [null, null, null], "rewards": [-2, 8, 48], "path": ["0", "0", "1", "2", "4"], "rt": [1485, 55, 1059], "actions": ["up", "up", "left"], "actionTimes": [4031, 4620, 6189], "queries": {"click": {"state": {"target": [], "time": []}, "edge": {"target": [], "time": []}}, "mouseover": {"state": {"target": [], "time": []}, "edge": {"target": [], "time": []}}, "mouseout": {"state": {"target": ["5"], "time": [1762]}, "edge": {"target": [], "time": []}}}, "displayed_time": "10.75", "trialTime": 12685, "trial_type": "mouselab-mdp", "trial_index": 40, "time_elapsed": 643731, "internal_node_id": "0.0-4.0-3.0-0.0"}}, {"uniqueid": "w25955609:a70369798", "current_trial": 41, "dateTime": 1664873850613, "trialdata": {"revealed_states": [], "num_clicks_accrued": [0, 0, 0, 0, 0, 0, 0, 0, 0, 0, 0, 0, 0], "stateRewards": ["", -2, -8, -24, 24, -2, -8, -48, 24, -2, -8, 24, 24], "withholdReward": true, "trial_id": "mdp_336617436097", "block": "test2", "trialIndex": 33, "score": -29, "costs": 0, "simulationMode": [null, null, null], "rewards": [-2, -8, -24], "path": ["0", "0", "1", "2", "3"], "rt": [1608, 91, 789], "actions": ["up", "up", "right"], "actionTimes": [3762, 4423, 5742], "queries": {"click": {"state": {"target": [], "time": []}, "edge": {"target": [], "time": []}}, "mouseover": {"state": {"target": [], "time": []}, "edge": {"target": [], "time": []}}, "mouseout": {"state": {"target": ["0"], "time": [586]}, "edge": {"target": [], "time": []}}}, "displayed_time": "11.25", "trialTime": 12697, "trial_type": "mouselab-mdp", "trial_index": 41, "time_elapsed": 656664, "internal_node_id": "0.0-4.0-3.0-1.0"}}, {"uniqueid": "w25955609:a70369798", "current_trial": 42, "dateTime": 1664873864095, "trialdata": {"revealed_states": [], "num_clicks_accrued": [0, 0, 0, 0, 0, 0, 0, 0, 0, 0, 0, 0, 0], "stateRewards": ["", 2, -8, -24, -48, -2, -4, 48, 48, 4, 8, 48, 48], "withholdReward": true, "trial_id": "mdp_347285045422", "block": "test2", "trialIndex": 34, "score": 65, "costs": 0, "simulationMode": [null, null, null], "rewards": [4, 8, 48], "path": ["0", "0", "9", "10", "11"], "rt": [1333, 20, 507], "actions": ["left", "left", "up"], "actionTimes": [3842, 4389, 5417], "queries": {"click": {"state": {"target": [], "time": []}, "edge": {"target": [], "time": []}}, "mouseover": {"state": {"target": [], "time": []}, "edge": {"target": [], "time": []}}, "mouseout": {"state": {"target": ["0", "0"], "time": [300, 931]}, "edge": {"target": [], "time": []}}}, "displayed_time": "11.76", "trialTime": 13272, "trial_type": "mouselab-mdp", "trial_index": 42, "time_elapsed": 670146, "internal_node_id": "0.0-4.0-3.0-2.0"}}, {"uniqueid": "w25955609:a70369798", "current_trial": 43, "dateTime": 1664873876040, "trialdata": {"revealed_states": [], "num_clicks_accrued": [0, 0, 0, 0, 0, 0, 0, 0, 0, 0, 0, 0, 0], "stateRewards": ["", -4, 8, -24, -24, 4, -8, 48, -24, -4, -8, -24, -48], "withholdReward": true, "trial_id": "mdp_391766721791", "block": "test2", "trialIndex": 35, "score": 49, "costs": 0, "simulationMode": [null, null, null], "rewards": [4, -8, 48], "path": ["0", "0", "5", "6", "7"], "rt": [847, 62, 817], "actions": ["right", "right", "up"], "actionTimes": [2249, 2832, 4190], "queries": {"click": {"state": {"target": [], "time": []}, "edge": {"target": [], "time": []}}, "mouseover": {"state": {"target": [], "time": []}, "edge": {"target": [], "time": []}}, "mouseout": {"state": {"target": ["0"], "time": [517]}, "edge": {"target": [], "time": []}}}, "displayed_time": "10.55", "trialTime": 11731, "trial_type": "mouselab-mdp", "trial_index": 43, "time_elapsed": 682090, "internal_node_id": "0.0-4.0-3.0-3.0"}}, {"uniqueid": "w25955609:a70369798", "current_trial": 44, "dateTime": 1664873891099, "trialdata": {"revealed_states": [], "num_clicks_accrued": [0, 0, 0, 0, 0, 0, 0, 0, 0, 0, 0, 0, 0], "stateRewards": ["", 2, -4, 24, 48, -2, 4, -48, -48, -4, 4, 24, -24], "withholdReward": true, "trial_id": "mdp_900363662757", "block": "test2", "trialIndex": 36, "score": 27, "costs": 0, "simulationMode": [null, null, null], "rewards": [2, -4, 24], "path": ["0", "0", "1", "2", "3"], "rt": [6082, 21, 588], "actions": ["up", "up", "right"], "actionTimes": [7381, 7933, 9037], "queries": {"click": {"state": {"target": [], "time": []}, "edge": {"target": [], "time": []}}, "mouseover": {"state": {"target": ["0"], "time": [6065]}, "edge": {"target": [], "time": []}}, "mouseout": {"state": {"target": ["0", "0"], "time": [632, 6401]}, "edge": {"target": [], "time": []}}}, "displayed_time": "10.46", "trialTime": 14859, "trial_type": "mouselab-mdp", "trial_index": 44, "time_elapsed": 697150, "internal_node_id": "0.0-4.0-3.0-4.0"}}, {"uniqueid": "w25955609:a70369798", "current_trial": 45, "dateTime": 1664873902008, "trialdata": {"revealed_states": [], "num_clicks_accrued": [0, 0, 0, 0, 0, 0, 0, 0, 0, 0, 0, 0, 0], "stateRewards": ["", 4, -8, 48, 48, 2, 4, 48, -48, 4, -4, -48, 48], "withholdReward": true, "trial_id": "mdp_519605841135", "block": "test2", "trialIndex": 37, "score": -43, "costs": 0, "simulationMode": [null, null, null], "rewards": [4, -4, -48], "path": ["0", "0", "9", "10", "11"], "rt": [1358, 24, 687], "actions": ["left", "left", "up"], "actionTimes": [2815, 3376, 4590], "queries": {"click": {"state": {"target": [], "time": []}, "edge": {"target": [], "time": []}}, "mouseover": {"state": {"target": [], "time": []}, "edge": {"target": [], "time": []}}, "mouseout": {"state": {"target": ["0"], "time": [613]}, "edge": {"target": [], "time": []}}}, "displayed_time": "9.53", "trialTime": 10692, "trial_type": "mouselab-mdp", "trial_index": 45, "time_elapsed": 708058, "internal_node_id": "0.0-4.0-3.0-5.0"}}, {"uniqueid": "w25955609:a70369798", "current_trial": 46, "dateTime": 1664873914310, "trialdata": {"revealed_states": [], "num_clicks_accrued": [0, 0, 0, 0, 0, 0, 0, 0, 0, 0, 0, 0, 0], "stateRewards": ["", -4, -4, 48, 24, -4, -4, -24, -48, -4, 4, 48, -24], "withholdReward": true, "trial_id": "mdp_896503755738", "block": "test2", "trialIndex": 38, "score": 21, "costs": 0, "simulationMode": [null, null, null], "rewards": [-4, -4, 24], "path": ["0", "0", "1", "2", "4"], "rt": [1180, 23, 704], "actions": ["up", "up", "left"], "actionTimes": [2621, 3161, 4399], "queries": {"click": {"state": {"target": [], "time": []}, "edge": {"target": [], "time": []}}, "mouseover": {"state": {"target": [], "time": []}, "edge": {"target": [], "time": []}}, "mouseout": {"state": {"target": ["0"], "time": [485]}, "edge": {"target": [], "time": []}}}, "displayed_time": "10.55", "trialTime": 12058, "trial_type": "mouselab-mdp", "trial_index": 46, "time_elapsed": 720358, "internal_node_id": "0.0-4.0-3.0-6.0"}}, {"uniqueid": "w25955609:a70369798", "current_trial": 47, "dateTime": 1664873927240, "trialdata": {"revealed_states": [], "num_clicks_accrued": [0, 0, 0, 0, 0, 0, 0, 0, 0, 0, 0, 0, 0], "stateRewards": ["", 4, -8, -24, 48, -4, 8, -24, -48, -4, -4, 24, 48], "withholdReward": true, "trial_id": "mdp_282352776624", "block": "test2", "trialIndex": 39, "score": -39, "costs": 0, "simulationMode": [null, null, null], "rewards": [-4, 8, -48], "path": ["0", "0", "5", "6", "8"], "rt": [1384, 93, 527], "actions": ["right", "right", "down"], "actionTimes": [3562, 4190, 5255], "queries": {"click": {"state": {"target": [], "time": []}, "edge": {"target": [], "time": []}}, "mouseover": {"state": {"target": [], "time": []}, "edge": {"target": [], "time": []}}, "mouseout": {"state": {"target": ["0"], "time": [510]}, "edge": {"target": [], "time": []}}}, "displayed_time": "11.51", "trialTime": 12727, "trial_type": "mouselab-mdp", "trial_index": 47, "time_elapsed": 733290, "internal_node_id": "0.0-4.0-3.0-7.0"}}, {"uniqueid": "w25955609:a70369798", "current_trial": 48, "dateTime": 1664873944119, "trialdata": {"revealed_states": [], "num_clicks_accrued": [0, 0, 0, 0, 0, 0, 0, 0, 0, 0, 0, 0, 0], "stateRewards": ["", 2, -8, -24, 48, 4, -8, -24, -24, 2, 8, -24, 24], "withholdReward": true, "trial_id": "mdp_480787552818", "block": "test2", "trialIndex": 40, "score": 39, "costs": 0, "simulationMode": [null, null, null], "rewards": [2, 8, 24], "path": ["0", "0", "9", "10", "12"], "rt": [1299, 17, 559], "actions": ["left", "left", "down"], "actionTimes": [4054, 4591, 5683], "queries": {"click": {"state": {"target": [], "time": []}, "edge": {"target": [], "time": []}}, "mouseover": {"state": {"target": [], "time": []}, "edge": {"target": [], "time": []}}, "mouseout": {"state": {"target": ["0"], "time": [1492]}, "edge": {"target": [], "time": []}}}, "displayed_time": "12.09", "trialTime": 16671, "trial_type": "mouselab-mdp", "trial_index": 48, "time_elapsed": 750169, "internal_node_id": "0.0-4.0-3.0-8.0"}}, {"uniqueid": "w25955609:a70369798", "current_trial": 49, "dateTime": 1664873958527, "trialdata": {"revealed_states": [], "num_clicks_accrued": [0, 0, 0, 0, 0, 0, 0, 0, 0, 0, 0, 0, 0], "stateRewards": ["", -4, -8, -48, 24, -4, -4, -24, -48, 2, -8, -24, -48], "withholdReward": true, "trial_id": "mdp_628181832088", "block": "test2", "trialIndex": 41, "score": 17, "costs": 0, "simulationMode": [null, null, null], "rewards": [-4, -8, 24], "path": ["0", "0", "1", "2", "4"], "rt": [1572, 22, 1015], "actions": ["up", "up", "left"], "actionTimes": [5263, 5810, 7349], "queries": {"click": {"state": {"target": [], "time": []}, "edge": {"target": [], "time": []}}, "mouseover": {"state": {"target": [], "time": []}, "edge": {"target": [], "time": []}}, "mouseout": {"state": {"target": ["0"], "time": [2780]}, "edge": {"target": [], "time": []}}}, "displayed_time": "12.81", "trialTime": 14196, "trial_type": "mouselab-mdp", "trial_index": 49, "time_elapsed": 764578, "internal_node_id": "0.0-4.0-3.0-9.0"}}, {"uniqueid": "w25955609:a70369798", "current_trial": 50, "dateTime": 1664873970009, "trialdata": {"revealed_states": [], "num_clicks_accrued": [0, 0, 0, 0, 0, 0, 0, 0, 0, 0, 0, 0, 0], "stateRewards": ["", -2, -8, -24, -24, 4, -4, -48, 48, 2, 8, 48, -48], "withholdReward": true, "trial_id": "mdp_498095124548", "block": "test2", "trialIndex": 42, "score": 53, "costs": 0, "simulationMode": [null, null, null], "rewards": [4, -4, 48], "path": ["0", "0", "5", "6", "8"], "rt": [1039, 97, 1449], "actions": ["right", "right", "down"], "actionTimes": [2441, 3064, 5083], "queries": {"click": {"state": {"target": [], "time": []}, "edge": {"target": [], "time": []}}, "mouseover": {"state": {"target": [], "time": []}, "edge": {"target": [], "time": []}}, "mouseout": {"state": {"target": ["0"], "time": [1263]}, "edge": {"target": [], "time": []}}}, "displayed_time": "9.91", "trialTime": 11263, "trial_type": "mouselab-mdp", "trial_index": 50, "time_elapsed": 776057, "internal_node_id": "0.0-4.0-3.0-10.0"}}, {"uniqueid": "w25955609:a70369798", "current_trial": 51, "dateTime": 1664873981700, "trialdata": {"revealed_states": [], "num_clicks_accrued": [0, 0, 0, 0, 0, 0, 0, 0, 0, 0, 0, 0, 0], "stateRewards": ["", -4, 4, 24, 24, -2, 8, 24, -48, 4, -8, -24, -48], "withholdReward": false, "trial_id": "mdp_651542905861", "block": "test2", "trialIndex": 43, "score": 29, "costs": 0, "simulationMode": [null, null, null], "rewards": [-4, 4, 24], "path": ["0", "0", "1", "2", "4"], "rt": [1581, 25, 813], "actions": ["up", "up", "left"], "actionTimes": [3058, 3617, 4965], "queries": {"click": {"state": {"target": [], "time": []}, "edge": {"target": [], "time": []}}, "mouseover": {"state": {"target": [], "time": []}, "edge": {"target": [], "time": []}}, "mouseout": {"state": {"target": ["0"], "time": [472]}, "edge": {"target": [], "time": []}}}, "displayed_time": "9.61", "trialTime": 11447, "trial_type": "mouselab-mdp", "trial_index": 51, "time_elapsed": 787750, "internal_node_id": "0.0-4.0-3.0-11.0"}}, {"uniqueid": "w25955609:a70369798", "current_trial": 52, "dateTime": 1664873994199, "trialdata": {"revealed_states": [], "num_clicks_accrued": [0, 0, 0, 0, 0, 0, 0, 0, 0, 0, 0, 0, 0], "stateRewards": ["", 2, 4, 48, -48, 2, 8, -24, 48, 4, 8, 48, -48], "withholdReward": false, "trial_id": "mdp_110142964375", "block": "test2", "trialIndex": 44, "score": -37.25, "costs": -0.25, "simulationMode": [null, null, null], "rewards": [2, 4, -48], "path": ["0", "0", "1", "2", "4"], "rt": [2602, 72, 903], "actions": ["up", "up", "left"], "actionTimes": [4030, 4630, 6063], "queries": {"click": {"state": {"target": ["1"], "time": [2656]}, "edge": {"target": [], "time": []}}, "mouseover": {"state": {"target": ["1"], "time": [2298]}, "edge": {"target": [], "time": []}}, "mouseout": {"state": {"target": ["0"], "time": [848]}, "edge": {"target": [], "time": []}}}, "displayed_time": "10.57", "trialTime": 12274, "trial_type": "mouselab-mdp", "trial_index": 52, "time_elapsed": 800249, "internal_node_id": "0.0-4.0-3.0-12.0"}}, {"uniqueid": "w25955609:a70369798", "current_trial": 53, "dateTime": 1664874006831, "trialdata": {"revealed_states": [], "num_clicks_accrued": [0, 0, 0, 0, 0, 0, 0, 0, 0, 0, 0, 0, 0], "stateRewards": ["", -2, -4, 48, -24, -4, -4, -24, -24, -2, 4, -48, -24], "withholdReward": false, "trial_id": "mdp_410467837196", "block": "test2", "trialIndex": 45, "score": -17, "costs": 0, "simulationMode": [null, null, null], "rewards": [-2, 4, -24], "path": ["0", "0", "9", "10", "12"], "rt": [1318, 111, 470], "actions": ["left", "left", "down"], "actionTimes": [2978, 3615, 4629], "queries": {"click": {"state": {"target": [], "time": []}, "edge": {"target": [], "time": []}}, "mouseover": {"state": {"target": [], "time": []}, "edge": {"target": [], "time": []}}, "mouseout": {"state": {"target": ["1"], "time": [726]}, "edge": {"target": [], "time": []}}}, "displayed_time": "10.78", "trialTime": 12395, "trial_type": "mouselab-mdp", "trial_index": 53, "time_elapsed": 812880, "internal_node_id": "0.0-4.0-3.0-13.0"}}, {"uniqueid": "w25955609:a70369798", "current_trial": 54, "dateTime": 1664874018790, "trialdata": {"revealed_states": [], "num_clicks_accrued": [0, 0, 0, 0, 0, 0, 0, 0, 0, 0, 0, 0, 0], "stateRewards": ["", 2, -8, 24, -24, -2, 8, -48, -48, 2, -8, -24, -48], "withholdReward": true, "trial_id": "mdp_744278669205", "block": "test2", "trialIndex": 46, "score": -25, "costs": 0, "simulationMode": [null, null, null], "rewards": [2, -8, -24], "path": ["0", "0", "1", "2", "4"], "rt": [1294, 21, 849], "actions": ["up", "up", "left"], "actionTimes": [2551, 3115, 4492], "queries": {"click": {"state": {"target": [], "time": []}, "edge": {"target": [], "time": []}}, "mouseover": {"state": {"target": [], "time": []}, "edge": {"target": [], "time": []}}, "mouseout": {"state": {"target": ["0"], "time": [431]}, "edge": {"target": [], "time": []}}}, "displayed_time": "9.36", "trialTime": 11739, "trial_type": "mouselab-mdp", "trial_index": 54, "time_elapsed": 824840, "internal_node_id": "0.0-4.0-3.0-14.0"}}, {"uniqueid": "w25955609:a70369798", "current_trial": 55, "dateTime": 1664874033699, "trialdata": {"revealed_states": [], "num_clicks_accrued": [0, 0, 0, 0, 0, 0, 0, 0, 0, 0, 0, 0, 0], "stateRewards": ["", -4, 8, 24, -24, -2, 4, -24, 48, -2, 8, -48, -24], "withholdReward": true, "trial_id": "mdp_799359103169", "block": "test2", "trialIndex": 47, "score": -37, "costs": 0, "simulationMode": [null, null, null], "rewards": [-2, 8, -48], "path": ["0", "0", "9", "10", "11"], "rt": [6619, 59, 762], "actions": ["left", "left", "up"], "actionTimes": [8840, 9560, 10932], "queries": {"click": {"state": {"target": [], "time": []}, "edge": {"target": [], "time": []}}, "mouseover": {"state": {"target": ["0", "0"], "time": [3990, 5550]}, "edge": {"target": [], "time": []}}, "mouseout": {"state": {"target": ["0", "0", "0"], "time": [1263, 4505, 5753]}, "edge": {"target": [], "time": []}}}, "displayed_time": "11.55", "trialTime": 14688, "trial_type": "mouselab-mdp", "trial_index": 55, "time_elapsed": 839749, "internal_node_id": "0.0-4.0-3.0-15.0"}}, {"uniqueid": "w25955609:a70369798", "current_trial": 56, "dateTime": 1664874046510, "trialdata": {"revealed_states": [], "num_clicks_accrued": [0, 0, 0, 0, 0, 0, 0, 0, 0, 0, 0, 0, 0], "stateRewards": ["", -2, -8, -48, 24, 2, -4, -48, 48, 2, 4, 24, -24], "withholdReward": true, "trial_id": "mdp_849341543762", "block": "test2", "trialIndex": 48, "score": -53, "costs": 0, "simulationMode": [null, null, null], "rewards": [-2, -8, -48], "path": ["0", "0", "1", "2", "3"], "rt": [1487, 20, 1211], "actions": ["up", "up", "right"], "actionTimes": [3090, 3653, 5390], "queries": {"click": {"state": {"target": [], "time": []}, "edge": {"target": [], "time": []}}, "mouseover": {"state": {"target": [], "time": []}, "edge": {"target": [], "time": []}}, "mouseout": {"state": {"target": ["0", "0"], "time": [725, 915]}, "edge": {"target": [], "time": []}}}, "displayed_time": "10.80", "trialTime": 12456, "trial_type": "mouselab-mdp", "trial_index": 56, "time_elapsed": 852560, "internal_node_id": "0.0-4.0-3.0-16.0"}}, {"uniqueid": "w25955609:a70369798", "current_trial": 57, "dateTime": 1664874059219, "trialdata": {"revealed_states": [], "num_clicks_accrued": [0, 0, 0, 0, 0, 0, 0, 0, 0, 0, 0, 0, 0], "stateRewards": ["", 2, 4, 24, 48, -2, 8, 24, -24, -4, -4, 48, 48], "withholdReward": true, "trial_id": "mdp_753439303214", "block": "test2", "trialIndex": 49, "score": 45, "costs": 0, "simulationMode": [null, null, null], "rewards": [-4, -4, 48], "path": ["0", "0", "9", "10", "12"], "rt": [1114, 41, 506], "actions": ["left", "left", "down"], "actionTimes": [2429, 2995, 4030], "queries": {"click": {"state": {"target": [], "time": []}, "edge": {"target": [], "time": []}}, "mouseover": {"state": {"target": [], "time": []}, "edge": {"target": [], "time": []}}, "mouseout": {"state": {"target": ["0", "0"], "time": [451, 702]}, "edge": {"target": [], "time": []}}}, "displayed_time": "10.44", "trialTime": 12491, "trial_type": "mouselab-mdp", "trial_index": 57, "time_elapsed": 865267, "internal_node_id": "0.0-4.0-3.0-17.0"}}, {"uniqueid": "w25955609:a70369798", "current_trial": 58, "dateTime": 1664874071717, "trialdata": {"revealed_states": [], "num_clicks_accrued": [0, 0, 0, 0, 0, 0, 0, 0, 0, 0, 0, 0, 0], "stateRewards": ["", 2, -8, -48, 24, 4, 8, 48, -48, 2, -4, 24, 24], "withholdReward": true, "trial_id": "mdp_130475327289", "block": "test2", "trialIndex": 50, "score": 22.75, "costs": -0.25, "simulationMode": [null, null, null], "rewards": [2, -8, 24], "path": ["0", "0", "1", "2", "4"], "rt": [5074, 69, 804], "actions": ["up", "up", "left"], "actionTimes": [6370, 6981, 8309], "queries": {"click": {"state": {"target": ["4"], "time": [4625]}, "edge": {"target": [], "time": []}}, "mouseover": {"state": {"target": ["1", "2", "4", "2"], "time": [3790, 3955, 4320, 5168]}, "edge": {"target": [], "time": []}}, "mouseout": {"state": {"target": ["0", "1", "2", "4", "2"], "time": [473, 3837, 4170, 5150, 5204]}, "edge": {"target": [], "time": []}}}, "displayed_time": "10.43", "trialTime": 12299, "trial_type": "mouselab-mdp", "trial_index": 58, "time_elapsed": 877768, "internal_node_id": "0.0-4.0-3.0-18.0"}}, {"uniqueid": "w25955609:a70369798", "current_trial": 59, "dateTime": 1664874083658, "trialdata": {"revealed_states": [], "num_clicks_accrued": [0, 0, 0, 0, 0, 0, 0, 0, 0, 0, 0, 0, 0], "stateRewards": ["", -2, -8, 48, 24, 2, 4, 24, -24, -2, -4, 48, -48], "withholdReward": false, "trial_id": "mdp_411152402386", "block": "test2", "trialIndex": 51, "score": -49.25, "costs": -0.25, "simulationMode": [null, null, null], "rewards": [-2, -4, -48], "path": ["0", "0", "9", "10", "12"], "rt": [4498, 168, 330], "actions": ["left", "left", "down"], "actionTimes": [5979, 6669, 7522], "queries": {"click": {"state": {"target": ["8"], "time": [3851]}, "edge": {"target": [], "time": []}}, "mouseover": {"state": {"target": ["5", "8"], "time": [3005, 3545]}, "edge": {"target": [], "time": []}}, "mouseout": {"state": {"target": ["5"], "time": [3043]}, "edge": {"target": [], "time": []}}}, "displayed_time": "9.64", "trialTime": 11731, "trial_type": "mouselab-mdp", "trial_index": 59, "time_elapsed": 889709, "internal_node_id": "0.0-4.0-3.0-19.0"}}, {"uniqueid": "w25955609:a70369798", "current_trial": 60, "dateTime": 1664874094808, "trialdata": {"revealed_states": [], "num_clicks_accrued": [0, 0, 0, 0, 0, 0, 0, 0, 0, 0, 0, 0, 0], "stateRewards": ["", -4, 8, -24, -24, 2, 4, 48, 48, -2, 4, 24, -48], "withholdReward": true, "trial_id": "mdp_397308196941", "block": "test2", "trialIndex": 52, "score": -15, "costs": 0, "simulationMode": [null, null, null], "rewards": [-4, 8, -24], "path": ["0", "0", "1", "2", "4"], "rt": [1561, 18, 833], "actions": ["up", "up", "left"], "actionTimes": [3085, 3616, 4965], "queries": {"click": {"state": {"target": [], "time": []}, "edge": {"target": [], "time": []}}, "mouseover": {"state": {"target": [], "time": []}, "edge": {"target": [], "time": []}}, "mouseout": {"state": {"target": ["8", "5", "0"], "time": [697, 791, 1075]}, "edge": {"target": [], "time": []}}}, "displayed_time": "9.64", "trialTime": 10953, "trial_type": "mouselab-mdp", "trial_index": 60, "time_elapsed": 900858, "internal_node_id": "0.0-4.0-3.0-20.0"}}, {"uniqueid": "w25955609:a70369798", "current_trial": 61, "dateTime": 1664874106004, "trialdata": {"revealed_states": [], "num_clicks_accrued": [0, 0, 0, 0, 0, 0, 0, 0, 0, 0, 0, 0, 0], "stateRewards": ["", -2, 4, -24, -24, -2, 4, 48, 24, -4, -8, 24, -48], "withholdReward": false, "trial_id": "mdp_191839460481", "block": "test2", "trialIndex": 53, "score": -17, "costs": 0, "simulationMode": [null, null, null], "rewards": [-2, 4, -24], "path": ["0", "0", "1", "2", "4"], "rt": [2213, 53, 1034], "actions": ["up", "up", "left"], "actionTimes": [3657, 4234, 5808], "queries": {"click": {"state": {"target": [], "time": []}, "edge": {"target": [], "time": []}}, "mouseover": {"state": {"target": [], "time": []}, "edge": {"target": [], "time": []}}, "mouseout": {"state": {"target": ["0", "0"], "time": [530, 10238]}, "edge": {"target": [], "time": []}}}, "displayed_time": "9.56", "trialTime": 10983, "trial_type": "mouselab-mdp", "trial_index": 61, "time_elapsed": 912055, "internal_node_id": "0.0-4.0-3.0-21.0"}}, {"uniqueid": "w25955609:a70369798", "current_trial": 62, "dateTime": 1664874118739, "trialdata": {"revealed_states": [], "num_clicks_accrued": [0, 0, 0, 0, 0, 0, 0, 0, 0, 0, 0, 0, 0], "stateRewards": ["", -2, -4, -48, 48, -2, -4, 24, 48, -4, -8, -24, 24], "withholdReward": false, "trial_id": "mdp_917590390609", "block": "test2", "trialIndex": 54, "score": 17, "costs": 0, "simulationMode": [null, null, null], "rewards": [-4, -8, 24], "path": ["0", "0", "9", "10", "12"], "rt": [1424, 24, 446], "actions": ["left", "left", "down"], "actionTimes": [2841, 3423, 4429], "queries": {"click": {"state": {"target": [], "time": []}, "edge": {"target": [], "time": []}}, "mouseover": {"state": {"target": [], "time": []}, "edge": {"target": [], "time": []}}, "mouseout": {"state": {"target": ["0"], "time": [647]}, "edge": {"target": [], "time": []}}}, "displayed_time": "10.65", "trialTime": 12512, "trial_type": "mouselab-mdp", "trial_index": 62, "time_elapsed": 924790, "internal_node_id": "0.0-4.0-3.0-22.0"}}, {"uniqueid": "w25955609:a70369798", "current_trial": 63, "dateTime": 1664874131319, "trialdata": {"revealed_states": [], "num_clicks_accrued": [0, 0, 0, 0, 0, 0, 0, 0, 0, 0, 0, 0, 0], "stateRewards": ["", 4, 8, -48, 24, -2, 8, -48, -48, -4, 4, 48, -48], "withholdReward": true, "trial_id": "mdp_693807815190", "block": "test2", "trialIndex": 55, "score": -37, "costs": 0, "simulationMode": [null, null, null], "rewards": [-2, 8, -48], "path": ["0", "0", "5", "6", "8"], "rt": [970, 70, 1186], "actions": ["right", "right", "down"], "actionTimes": [3428, 4022, 5719], "queries": {"click": {"state": {"target": [], "time": []}, "edge": {"target": [], "time": []}}, "mouseover": {"state": {"target": [], "time": []}, "edge": {"target": [], "time": []}}, "mouseout": {"state": {"target": ["0"], "time": [823]}, "edge": {"target": [], "time": []}}}, "displayed_time": "10.61", "trialTime": 12367, "trial_type": "mouselab-mdp", "trial_index": 63, "time_elapsed": 937370, "internal_node_id": "0.0-4.0-3.0-23.0"}}, {"uniqueid": "w25955609:a70369798", "current_trial": 64, "dateTime": 1664874142378, "trialdata": {"revealed_states": [], "num_clicks_accrued": [0, 0, 0, 0, 0, 0, 0, 0, 0, 0, 0, 0, 0], "stateRewards": ["", 2, 8, 48, -24, -4, 4, 48, 24, -2, 8, 24, 24], "withholdReward": true, "trial_id": "mdp_123436106791", "block": "test2", "trialIndex": 56, "score": 63, "costs": 0, "simulationMode": [null, null, null], "rewards": [2, 8, 48], "path": ["0", "0", "1", "2", "3"], "rt": [1467, 51, 446], "actions": ["up", "up", "right"], "actionTimes": [2861, 3424, 4407], "queries": {"click": {"state": {"target": [], "time": []}, "edge": {"target": [], "time": []}}, "mouseover": {"state": {"target": [], "time": []}, "edge": {"target": [], "time": []}}, "mouseout": {"state": {"target": ["0"], "time": [585]}, "edge": {"target": [], "time": []}}}, "displayed_time": "9.55", "trialTime": 10851, "trial_type": "mouselab-mdp", "trial_index": 64, "time_elapsed": 948429, "internal_node_id": "0.0-4.0-3.0-24.0"}}, {"uniqueid": "w25955609:a70369798", "current_trial": 65, "dateTime": 1664874154923, "trialdata": {"revealed_states": [], "num_clicks_accrued": [0, 0, 0, 0, 0, 0, 0, 0, 0, 0, 0, 0, 0], "stateRewards": ["", -2, 4, -24, 48, 4, -8, 48, -48, 2, -8, 48, 24], "withholdReward": true, "trial_id": "mdp_501111216502", "block": "test2", "trialIndex": 57, "score": -47, "costs": 0, "simulationMode": [null, null, null], "rewards": [4, -8, -48], "path": ["0", "0", "5", "6", "8"], "rt": [2550, 43, 384], "actions": ["right", "right", "down"], "actionTimes": [4201, 4763, 5685], "queries": {"click": {"state": {"target": [], "time": []}, "edge": {"target": [], "time": []}}, "mouseover": {"state": {"target": [], "time": []}, "edge": {"target": [], "time": []}}, "mouseout": {"state": {"target": [], "time": []}, "edge": {"target": [], "time": []}}}, "displayed_time": "10.82", "trialTime": 12330, "trial_type": "mouselab-mdp", "trial_index": 65, "time_elapsed": 960973, "internal_node_id": "0.0-4.0-3.0-25.0"}}, {"uniqueid": "w25955609:a70369798", "current_trial": 66, "dateTime": 1664874165986, "trialdata": {"revealed_states": [], "num_clicks_accrued": [0, 0, 0, 0, 0, 0, 0, 0, 0, 0, 0, 0, 0], "stateRewards": ["", -4, -4, -48, 48, -4, -8, -24, -48, -2, 8, 48, 24], "withholdReward": true, "trial_id": "mdp_365393526663", "block": "test2", "trialIndex": 58, "score": -51, "costs": 0, "simulationMode": [null, null, null], "rewards": [-4, -4, -48], "path": ["0", "0", "1", "2", "3"], "rt": [1684, 117, 1344], "actions": ["up", "up", "right"], "actionTimes": [3229, 3872, 5757], "queries": {"click": {"state": {"target": [], "time": []}, "edge": {"target": [], "time": []}}, "mouseover": {"state": {"target": [], "time": []}, "edge": {"target": [], "time": []}}, "mouseout": {"state": {"target": ["0"], "time": [742]}, "edge": {"target": [], "time": []}}}, "displayed_time": "9.62", "trialTime": 10872, "trial_type": "mouselab-mdp", "trial_index": 66, "time_elapsed": 972036, "internal_node_id": "0.0-4.0-3.0-26.0"}}, {"uniqueid": "w25955609:a70369798", "current_trial": 67, "dateTime": 1664874178765, "trialdata": {"revealed_states": [], "num_clicks_accrued": [0, 0, 0, 0, 0, 0, 0, 0, 0, 0, 0, 0, 0], "stateRewards": ["", 2, -8, 24, 24, 4, -4, -24, -48, 4, 8, 24, 24], "withholdReward": true, "trial_id": "mdp_249803813713", "block": "test2", "trialIndex": 59, "score": 41, "costs": 0, "simulationMode": [null, null, null], "rewards": [4, 8, 24], "path": ["0", "0", "9", "10", "11"], "rt": [1219, 23, 579], "actions": ["left", "left", "up"], "actionTimes": [2960, 3520, 4644], "queries": {"click": {"state": {"target": [], "time": []}, "edge": {"target": [], "time": []}}, "mouseover": {"state": {"target": [], "time": []}, "edge": {"target": [], "time": []}}, "mouseout": {"state": {"target": ["0", "0"], "time": [1610, 6131]}, "edge": {"target": [], "time": []}}}, "displayed_time": "10.91", "trialTime": 12556, "trial_type": "mouselab-mdp", "trial_index": 67, "time_elapsed": 984815, "internal_node_id": "0.0-4.0-3.0-27.0"}}, {"uniqueid": "w25955609:a70369798", "current_trial": 68, "dateTime": 1664874191215, "trialdata": {"revealed_states": [], "num_clicks_accrued": [0, 0, 0, 0, 0, 0, 0, 0, 0, 0, 0, 0, 0], "stateRewards": ["", -2, -4, -24, -48, -4, -8, -48, 24, -4, -8, -24, -48], "withholdReward": false, "trial_id": "mdp_475782454549", "block": "test2", "trialIndex": 60, "score": -25, "costs": 0, "simulationMode": [null, null, null], "rewards": [-2, -4, -24], "path": ["0", "0", "1", "2", "3"], "rt": [1187, 57, 415], "actions": ["up", "up", "right"], "actionTimes": [2685, 3267, 4201], "queries": {"click": {"state": {"target": [], "time": []}, "edge": {"target": [], "time": []}}, "mouseover": {"state": {"target": [], "time": []}, "edge": {"target": [], "time": []}}, "mouseout": {"state": {"target": ["0"], "time": [660]}, "edge": {"target": [], "time": []}}}, "displayed_time": "10.78", "trialTime": 12229, "trial_type": "mouselab-mdp", "trial_index": 68, "time_elapsed": 997265, "internal_node_id": "0.0-4.0-3.0-28.0"}}, {"uniqueid": "w25955609:a70369798", "current_trial": 69, "dateTime": 1664874203456, "trialdata": {"revealed_states": [], "num_clicks_accrued": [0, 0, 0, 0, 0, 0, 0, 0, 0, 0, 0, 0, 0], "stateRewards": ["", -4, -4, -48, -24, 2, 8, 24, -48, 4, 4, 48, 48], "withholdReward": true, "trial_id": "mdp_693501840209", "block": "test2", "trialIndex": 61, "score": -27, "costs": 0, "simulationMode": [null, null, null], "rewards": [-4, -4, -24], "path": ["0", "0", "1", "2", "4"], "rt": [1345, 21, 1127], "actions": ["up", "up", "left"], "actionTimes": [2923, 3477, 5147], "queries": {"click": {"state": {"target": [], "time": []}, "edge": {"target": [], "time": []}}, "mouseover": {"state": {"target": [], "time": []}, "edge": {"target": [], "time": []}}, "mouseout": {"state": {"target": ["0"], "time": [735]}, "edge": {"target": [], "time": []}}}, "displayed_time": "10.66", "trialTime": 12030, "trial_type": "mouselab-mdp", "trial_index": 69, "time_elapsed": 1009505, "internal_node_id": "0.0-4.0-3.0-29.0"}}, {"uniqueid": "w25955609:a70369798", "current_trial": 70, "dateTime": 1664874284990, "trialdata": {"rt": 81521, "stimulus": "<h1> End of block! </h1>\n\nYou have reached the end of the block 2/4. If you need a short break, feel free to take one now before moving on.\n\n<br><br>\nIn the next block, you will complete another 30 rounds of this game.\n\n<br><br>\n<div style='text-align: center;'>Press <code>space</code> to begin.</div>\n<br><br>\n<div style='text-align: center;'>(If the experiment doesn't continue, try clicking on the text and then pressing <code>space</code>.)</div>", "response": " ", "trial_id": "mdp_ready_3", "trial_type": "html-keyboard-response", "trial_index": 70, "time_elapsed": 1091041, "internal_node_id": "0.0-4.0-4.0"}}, {"uniqueid": "w25955609:a70369798", "current_trial": 71, "dateTime": 1664874298257, "trialdata": {"revealed_states": [], "num_clicks_accrued": [0, 0, 0, 0, 0, 0, 0, 0, 0, 0, 0, 0, 0], "stateRewards": ["", 2, -8, 24, 24, 4, -4, -24, -48, 4, 8, 24, 24], "withholdReward": true, "trial_id": "mdp_249803813713", "block": "test3", "trialIndex": 62, "score": 23, "costs": 0, "simulationMode": [null, null, null], "rewards": [2, -8, 24], "path": ["0", "0", "1", "2", "4"], "rt": [965, 38, 811], "actions": ["up", "up", "left"], "actionTimes": [3667, 4217, 5544], "queries": {"click": {"state": {"target": [], "time": []}, "edge": {"target": [], "time": []}}, "mouseover": {"state": {"target": [], "time": []}, "edge": {"target": [], "time": []}}, "mouseout": {"state": {"target": ["10", "9"], "time": [1890, 1976]}, "edge": {"target": [], "time": []}}}, "displayed_time": "11.88", "trialTime": 13053, "trial_type": "mouselab-mdp", "trial_index": 71, "time_elapsed": 1104305, "internal_node_id": "0.0-4.0-5.0-0.0"}}, {"uniqueid": "w25955609:a70369798", "current_trial": 72, "dateTime": 1664874312347, "trialdata": {"revealed_states": [], "num_clicks_accrued": [0, 0, 0, 0, 0, 0, 0, 0, 0, 0, 0, 0, 0], "stateRewards": ["", -2, 8, 24, -48, -4, -8, -24, -48, -4, 8, -24, 48], "withholdReward": true, "trial_id": "mdp_464339499860", "block": "test3", "trialIndex": 63, "score": 35, "costs": 0, "simulationMode": [null, null, null], "rewards": [-2, 8, 24], "path": ["0", "0", "1", "2", "3"], "rt": [958, 23, 608], "actions": ["up", "up", "right"], "actionTimes": [3054, 3592, 4733], "queries": {"click": {"state": {"target": [], "time": []}, "edge": {"target": [], "time": []}}, "mouseover": {"state": {"target": [], "time": []}, "edge": {"target": [], "time": []}}, "mouseout": {"state": {"target": ["0", "0"], "time": [1185, 12630]}, "edge": {"target": [], "time": []}}}, "displayed_time": "11.29", "trialTime": 13889, "trial_type": "mouselab-mdp", "trial_index": 72, "time_elapsed": 1118397, "internal_node_id": "0.0-4.0-5.0-1.0"}}, {"uniqueid": "w25955609:a70369798", "current_trial": 73, "dateTime": 1664874325811, "trialdata": {"revealed_states": [], "num_clicks_accrued": [0, 0, 0, 0, 0, 0, 0, 0, 0, 0, 0, 0, 0], "stateRewards": ["", 4, -8, 24, 48, 2, -4, 48, 48, 4, -8, 48, 48], "withholdReward": true, "trial_id": "mdp_962498334245", "block": "test3", "trialIndex": 64, "score": 48.75, "costs": -0.25, "simulationMode": [null, null, null], "rewards": [4, -8, 48], "path": ["0", "0", "9", "10", "11"], "rt": [2842, 150, 490], "actions": ["left", "left", "up"], "actionTimes": [4217, 4915, 5935], "queries": {"click": {"state": {"target": ["9"], "time": [2842]}, "edge": {"target": [], "time": []}}, "mouseover": {"state": {"target": ["9", "5"], "time": [2614, 3442]}, "edge": {"target": [], "time": []}}, "mouseout": {"state": {"target": ["0", "9"], "time": [859, 3345]}, "edge": {"target": [], "time": []}}}, "displayed_time": "11.49", "trialTime": 13272, "trial_type": "mouselab-mdp", "trial_index": 73, "time_elapsed": 1131862, "internal_node_id": "0.0-4.0-5.0-2.0"}}, {"uniqueid": "w25955609:a70369798", "current_trial": 74, "dateTime": 1664874338313, "trialdata": {"revealed_states": [], "num_clicks_accrued": [0, 0, 0, 0, 0, 0, 0, 0, 0, 0, 0, 0, 0], "stateRewards": ["", 2, -8, -24, -48, -2, -4, 48, 48, 4, 8, 48, 48], "withholdReward": true, "trial_id": "mdp_347285045422", "block": "test3", "trialIndex": 65, "score": -25, "costs": 0, "simulationMode": [null, null, null], "rewards": [2, -8, -24], "path": ["0", "0", "1", "2", "3"], "rt": [1407, 15, 399], "actions": ["up", "up", "right"], "actionTimes": [3058, 3613, 4536], "queries": {"click": {"state": {"target": [], "time": []}, "edge": {"target": [], "time": []}}, "mouseover": {"state": {"target": [], "time": []}, "edge": {"target": [], "time": []}}, "mouseout": {"state": {"target": ["5"], "time": [672]}, "edge": {"target": [], "time": []}}}, "displayed_time": "10.77", "trialTime": 12310, "trial_type": "mouselab-mdp", "trial_index": 74, "time_elapsed": 1144363, "internal_node_id": "0.0-4.0-5.0-3.0"}}, {"uniqueid": "w25955609:a70369798", "current_trial": 75, "dateTime": 1664874351611, "trialdata": {"revealed_states": [], "num_clicks_accrued": [0, 0, 0, 0, 0, 0, 0, 0, 0, 0, 0, 0, 0], "stateRewards": ["", -2, -8, -24, -48, 4, -8, 48, 24, 2, 4, -48, -48], "withholdReward": true, "trial_id": "mdp_898082967464", "block": "test3", "trialIndex": 66, "score": -53, "costs": 0, "simulationMode": [null, null, null], "rewards": [-2, -8, -48], "path": ["0", "0", "1", "2", "4"], "rt": [1116, 21, 408], "actions": ["up", "up", "left"], "actionTimes": [3732, 4291, 5235], "queries": {"click": {"state": {"target": [], "time": []}, "edge": {"target": [], "time": []}}, "mouseover": {"state": {"target": [], "time": []}, "edge": {"target": [], "time": []}}, "mouseout": {"state": {"target": ["0"], "time": [1967]}, "edge": {"target": [], "time": []}}}, "displayed_time": "11.79", "trialTime": 13091, "trial_type": "mouselab-mdp", "trial_index": 75, "time_elapsed": 1157662, "internal_node_id": "0.0-4.0-5.0-4.0"}}, {"uniqueid": "w25955609:a70369798", "current_trial": 76, "dateTime": 1664874364989, "trialdata": {"revealed_states": [], "num_clicks_accrued": [0, 0, 0, 0, 0, 0, 0, 0, 0, 0, 0, 0, 0], "stateRewards": ["", -2, 8, -24, 48, -4, 4, -48, 24, 4, -8, 48, -24], "withholdReward": false, "trial_id": "mdp_425320427962", "block": "test3", "trialIndex": 67, "score": -43, "costs": 0, "simulationMode": [null, null, null], "rewards": [-4, 4, -48], "path": ["0", "0", "5", "6", "7"], "rt": [1112, 124, 571], "actions": ["right", "right", "up"], "actionTimes": [2500, 3142, 4232], "queries": {"click": {"state": {"target": [], "time": []}, "edge": {"target": [], "time": []}}, "mouseover": {"state": {"target": [], "time": []}, "edge": {"target": [], "time": []}}, "mouseout": {"state": {"target": ["0"], "time": [615]}, "edge": {"target": [], "time": []}}}, "displayed_time": "10.55", "trialTime": 13178, "trial_type": "mouselab-mdp", "trial_index": 76, "time_elapsed": 1171039, "internal_node_id": "0.0-4.0-5.0-5.0"}}, {"uniqueid": "w25955609:a70369798", "current_trial": 77, "dateTime": 1664874378150, "trialdata": {"revealed_states": [], "num_clicks_accrued": [0, 0, 0, 0, 0, 0, 0, 0, 0, 0, 0, 0, 0], "stateRewards": ["", -4, 8, 24, -24, 4, 8, -24, -48, 2, 4, 24, -24], "withholdReward": false, "trial_id": "mdp_782187007008", "block": "test3", "trialIndex": 68, "score": -13, "costs": 0, "simulationMode": [null, null, null], "rewards": [2, 4, -24], "path": ["0", "0", "9", "10", "12"], "rt": [1191, 17, 414], "actions": ["left", "left", "down"], "actionTimes": [3303, 3840, 4776], "queries": {"click": {"state": {"target": [], "time": []}, "edge": {"target": [], "time": []}}, "mouseover": {"state": {"target": [], "time": []}, "edge": {"target": [], "time": []}}, "mouseout": {"state": {"target": ["0"], "time": [575]}, "edge": {"target": [], "time": []}}}, "displayed_time": "11.24", "trialTime": 12956, "trial_type": "mouselab-mdp", "trial_index": 77, "time_elapsed": 1184201, "internal_node_id": "0.0-4.0-5.0-6.0"}}, {"uniqueid": "w25955609:a70369798", "current_trial": 78, "dateTime": 1664874391547, "trialdata": {"revealed_states": [], "num_clicks_accrued": [0, 0, 0, 0, 0, 0, 0, 0, 0, 0, 0, 0, 0], "stateRewards": ["", 2, 4, -48, 24, -4, -4, -24, 24, 2, -4, 24, -24], "withholdReward": false, "trial_id": "mdp_163600331068", "block": "test3", "trialIndex": 69, "score": 27, "costs": 0, "simulationMode": [null, null, null], "rewards": [2, -4, 24], "path": ["0", "0", "9", "10", "11"], "rt": [1905, 148, 649], "actions": ["left", "left", "up"], "actionTimes": [3315, 3987, 5153], "queries": {"click": {"state": {"target": [], "time": []}, "edge": {"target": [], "time": []}}, "mouseover": {"state": {"target": [], "time": []}, "edge": {"target": [], "time": []}}, "mouseout": {"state": {"target": ["0"], "time": [767]}, "edge": {"target": [], "time": []}}}, "displayed_time": "11.51", "trialTime": 13171, "trial_type": "mouselab-mdp", "trial_index": 78, "time_elapsed": 1197597, "internal_node_id": "0.0-4.0-5.0-7.0"}}, {"uniqueid": "w25955609:a70369798", "current_trial": 79, "dateTime": 1664874401423, "trialdata": {"revealed_states": [], "num_clicks_accrued": [0, 0, 0, 0, 0, 0, 0, 0, 0, 0, 0, 0, 0], "stateRewards": ["", 4, -8, 48, 48, 2, 4, 48, -48, 4, -4, -48, 48], "withholdReward": true, "trial_id": "mdp_519605841135", "block": "test3", "trialIndex": 70, "score": 53, "costs": 0, "simulationMode": [null, null, null], "rewards": [4, -4, 48], "path": ["0", "0", "9", "10", "12"], "rt": [1423, 100, 427], "actions": ["left", "left", "down"], "actionTimes": [2802, 3446, 4405], "queries": {"click": {"state": {"target": [], "time": []}, "edge": {"target": [], "time": []}}, "mouseover": {"state": {"target": [], "time": []}, "edge": {"target": [], "time": []}}, "mouseout": {"state": {"target": ["0", "0"], "time": [488, 815]}, "edge": {"target": [], "time": []}}}, "displayed_time": "8.45", "trialTime": 9660, "trial_type": "mouselab-mdp", "trial_index": 79, "time_elapsed": 1207474, "internal_node_id": "0.0-4.0-5.0-8.0"}}, {"uniqueid": "w25955609:a70369798", "current_trial": 80, "dateTime": 1664874414048, "trialdata": {"revealed_states": [], "num_clicks_accrued": [0, 0, 0, 0, 0, 0, 0, 0, 0, 0, 0, 0, 0], "stateRewards": ["", -2, 8, 48, 48, 2, 4, -48, 24, -4, -8, 48, 24], "withholdReward": true, "trial_id": "mdp_572910394648", "block": "test3", "trialIndex": 71, "score": 59, "costs": 0, "simulationMode": [null, null, null], "rewards": [-2, 8, 48], "path": ["0", "0", "1", "2", "3"], "rt": [2027, 108, 777], "actions": ["up", "up", "right"], "actionTimes": [4292, 4915, 6234], "queries": {"click": {"state": {"target": [], "time": []}, "edge": {"target": [], "time": []}}, "mouseover": {"state": {"target": [], "time": []}, "edge": {"target": [], "time": []}}, "mouseout": {"state": {"target": ["0"], "time": [672]}, "edge": {"target": [], "time": []}}}, "displayed_time": "11.41", "trialTime": 12419, "trial_type": "mouselab-mdp", "trial_index": 80, "time_elapsed": 1220099, "internal_node_id": "0.0-4.0-5.0-9.0"}}, {"uniqueid": "w25955609:a70369798", "current_trial": 81, "dateTime": 1664874426299, "trialdata": {"revealed_states": [], "num_clicks_accrued": [0, 0, 0, 0, 0, 0, 0, 0, 0, 0, 0, 0, 0], "stateRewards": ["", -2, -4, -24, 24, -2, 4, -24, -24, -4, 4, 24, -24], "withholdReward": true, "trial_id": "mdp_999419261719", "block": "test3", "trialIndex": 72, "score": -25.75, "costs": -0.75, "simulationMode": [null, null, null], "rewards": [-2, -4, -24], "path": ["0", "0", "1", "2", "3"], "rt": [6016, 98, 676], "actions": ["up", "up", "right"], "actionTimes": [7409, 8027, 9254], "queries": {"click": {"state": {"target": ["5", "9", "1"], "time": [2611, 3737, 4936]}, "edge": {"target": [], "time": []}}, "mouseover": {"state": {"target": ["5", "0", "9", "1"], "time": [2218, 3251, 3318, 4513]}, "edge": {"target": [], "time": []}}, "mouseout": {"state": {"target": ["0", "5", "0", "9"], "time": [519, 3221, 3285, 4488]}, "edge": {"target": [], "time": []}}}, "displayed_time": "10.60", "trialTime": 12034, "trial_type": "mouselab-mdp", "trial_index": 81, "time_elapsed": 1232348, "internal_node_id": "0.0-4.0-5.0-10.0"}}, {"uniqueid": "w25955609:a70369798", "current_trial": 82, "dateTime": 1664874438112, "trialdata": {"revealed_states": [], "num_clicks_accrued": [0, 0, 0, 0, 0, 0, 0, 0, 0, 0, 0, 0, 0], "stateRewards": ["", -2, -8, 48, 24, -2, 8, -48, -24, -2, 4, -48, 48], "withholdReward": true, "trial_id": "mdp_295220852217", "block": "test3", "trialIndex": 73, "score": 18.75, "costs": -0.25, "simulationMode": [null, null, null], "rewards": [-2, -8, 24], "path": ["0", "0", "1", "2", "4"], "rt": [3625, 65, 930], "actions": ["up", "up", "left"], "actionTimes": [4932, 5509, 6962], "queries": {"click": {"state": {"target": ["9"], "time": [3080]}, "edge": {"target": [], "time": []}}, "mouseover": {"state": {"target": ["9"], "time": [2742]}, "edge": {"target": [], "time": []}}, "mouseout": {"state": {"target": ["1"], "time": [612]}, "edge": {"target": [], "time": []}}}, "displayed_time": "10.43", "trialTime": 11561, "trial_type": "mouselab-mdp", "trial_index": 82, "time_elapsed": 1244162, "internal_node_id": "0.0-4.0-5.0-11.0"}}, {"uniqueid": "w25955609:a70369798", "current_trial": 83, "dateTime": 1664874449351, "trialdata": {"revealed_states": [], "num_clicks_accrued": [0, 0, 0, 0, 0, 0, 0, 0, 0, 0, 0, 0, 0], "stateRewards": ["", -4, -8, -24, 24, 2, 8, 24, 48, 2, 4, 24, -48], "withholdReward": true, "trial_id": "mdp_122352383932", "block": "test3", "trialIndex": 74, "score": -37, "costs": 0, "simulationMode": [null, null, null], "rewards": [2, 4, -48], "path": ["0", "0", "9", "10", "12"], "rt": [2299, 260, 249], "actions": ["left", "left", "down"], "actionTimes": [3812, 4602, 5379], "queries": {"click": {"state": {"target": [], "time": []}, "edge": {"target": [], "time": []}}, "mouseover": {"state": {"target": [], "time": []}, "edge": {"target": [], "time": []}}, "mouseout": {"state": {"target": ["9", "0"], "time": [571, 939]}, "edge": {"target": [], "time": []}}}, "displayed_time": "9.60", "trialTime": 11011, "trial_type": "mouselab-mdp", "trial_index": 83, "time_elapsed": 1255401, "internal_node_id": "0.0-4.0-5.0-12.0"}}, {"uniqueid": "w25955609:a70369798", "current_trial": 84, "dateTime": 1664874461619, "trialdata": {"revealed_states": [], "num_clicks_accrued": [0, 0, 0, 0, 0, 0, 0, 0, 0, 0, 0, 0, 0], "stateRewards": ["", -2, -4, 48, -24, -4, -4, -24, -24, -2, 4, -48, -24], "withholdReward": true, "trial_id": "mdp_410467837196", "block": "test3", "trialIndex": 75, "score": 47, "costs": 0, "simulationMode": [null, null, null], "rewards": [-2, -4, 48], "path": ["0", "0", "1", "2", "3"], "rt": [1218, 18, 380], "actions": ["up", "up", "right"], "actionTimes": [2774, 3337, 4255], "queries": {"click": {"state": {"target": [], "time": []}, "edge": {"target": [], "time": []}}, "mouseover": {"state": {"target": [], "time": []}, "edge": {"target": [], "time": []}}, "mouseout": {"state": {"target": ["0"], "time": [734]}, "edge": {"target": [], "time": []}}}, "displayed_time": "10.80", "trialTime": 12045, "trial_type": "mouselab-mdp", "trial_index": 84, "time_elapsed": 1267670, "internal_node_id": "0.0-4.0-5.0-13.0"}}, {"uniqueid": "w25955609:a70369798", "current_trial": 85, "dateTime": 1664874473667, "trialdata": {"revealed_states": [], "num_clicks_accrued": [0, 0, 0, 0, 0, 0, 0, 0, 0, 0, 0, 0, 0], "stateRewards": ["", 2, 4, 48, 24, -4, 8, 48, 48, 2, -4, -48, -24], "withholdReward": true, "trial_id": "mdp_822099887466", "block": "test3", "trialIndex": 76, "score": 35, "costs": 0, "simulationMode": [null, null, null], "rewards": [2, 4, 24], "path": ["0", "0", "1", "2", "4"], "rt": [1549, 52, 372], "actions": ["up", "up", "left"], "actionTimes": [3906, 4477, 5388], "queries": {"click": {"state": {"target": [], "time": []}, "edge": {"target": [], "time": []}}, "mouseover": {"state": {"target": [], "time": []}, "edge": {"target": [], "time": []}}, "mouseout": {"state": {"target": ["0"], "time": [561]}, "edge": {"target": [], "time": []}}}, "displayed_time": "10.55", "trialTime": 11796, "trial_type": "mouselab-mdp", "trial_index": 85, "time_elapsed": 1279714, "internal_node_id": "0.0-4.0-5.0-14.0"}}, {"uniqueid": "w25955609:a70369798", "current_trial": 86, "dateTime": 1664874486529, "trialdata": {"revealed_states": [], "num_clicks_accrued": [0, 0, 0, 0, 0, 0, 0, 0, 0, 0, 0, 0, 0], "stateRewards": ["", 2, -4, 48, -48, 2, 4, -24, 24, -4, -8, 24, -48], "withholdReward": true, "trial_id": "mdp_238810765895", "block": "test3", "trialIndex": 77, "score": -13, "costs": 0, "simulationMode": [null, null, null], "rewards": [2, 4, -24], "path": ["0", "0", "5", "6", "7"], "rt": [884, 54, 1391], "actions": ["right", "right", "up"], "actionTimes": [3206, 3789, 5708], "queries": {"click": {"state": {"target": [], "time": []}, "edge": {"target": [], "time": []}}, "mouseover": {"state": {"target": [], "time": []}, "edge": {"target": [], "time": []}}, "mouseout": {"state": {"target": ["0"], "time": [524]}, "edge": {"target": [], "time": []}}}, "displayed_time": "10.39", "trialTime": 12645, "trial_type": "mouselab-mdp", "trial_index": 86, "time_elapsed": 1292577, "internal_node_id": "0.0-4.0-5.0-15.0"}}, {"uniqueid": "w25955609:a70369798", "current_trial": 87, "dateTime": 1664874498557, "trialdata": {"revealed_states": [], "num_clicks_accrued": [0, 0, 0, 0, 0, 0, 0, 0, 0, 0, 0, 0, 0], "stateRewards": ["", -4, -4, -48, -24, 2, 8, 24, -48, 4, 4, 48, 48], "withholdReward": false, "trial_id": "mdp_693501840209", "block": "test3", "trialIndex": 78, "score": -27, "costs": 0, "simulationMode": [null, null, null], "rewards": [-4, -4, -24], "path": ["0", "0", "1", "2", "4"], "rt": [1042, 23, 391], "actions": ["up", "up", "left"], "actionTimes": [3192, 3745, 4681], "queries": {"click": {"state": {"target": [], "time": []}, "edge": {"target": [], "time": []}}, "mouseover": {"state": {"target": [], "time": []}, "edge": {"target": [], "time": []}}, "mouseout": {"state": {"target": ["0"], "time": [530]}, "edge": {"target": [], "time": []}}}, "displayed_time": "10.29", "trialTime": 11776, "trial_type": "mouselab-mdp", "trial_index": 87, "time_elapsed": 1304606, "internal_node_id": "0.0-4.0-5.0-16.0"}}, {"uniqueid": "w25955609:a70369798", "current_trial": 88, "dateTime": 1664874511335, "trialdata": {"revealed_states": [], "num_clicks_accrued": [0, 0, 0, 0, 0, 0, 0, 0, 0, 0, 0, 0, 0], "stateRewards": ["", -4, -4, -24, -48, -4, 8, -24, -48, 4, -8, 24, -24], "withholdReward": true, "trial_id": "mdp_924927483179", "block": "test3", "trialIndex": 79, "score": -23, "costs": 0, "simulationMode": [null, null, null], "rewards": [4, -8, -24], "path": ["0", "0", "9", "10", "12"], "rt": [1370, 53, 373], "actions": ["left", "left", "down"], "actionTimes": [3199, 3777, 4677], "queries": {"click": {"state": {"target": [], "time": []}, "edge": {"target": [], "time": []}}, "mouseover": {"state": {"target": [], "time": []}, "edge": {"target": [], "time": []}}, "mouseout": {"state": {"target": ["0"], "time": [994]}, "edge": {"target": [], "time": []}}}, "displayed_time": "10.98", "trialTime": 12548, "trial_type": "mouselab-mdp", "trial_index": 88, "time_elapsed": 1317384, "internal_node_id": "0.0-4.0-5.0-17.0"}}, {"uniqueid": "w25955609:a70369798", "current_trial": 89, "dateTime": 1664874524875, "trialdata": {"revealed_states": [], "num_clicks_accrued": [0, 0, 0, 0, 0, 0, 0, 0, 0, 0, 0, 0, 0], "stateRewards": ["", 4, 4, 48, -48, -2, 4, 48, -48, -4, 4, -24, -24], "withholdReward": false, "trial_id": "mdp_753324812898", "block": "test3", "trialIndex": 80, "score": -35.25, "costs": -0.25, "simulationMode": [null, null, null], "rewards": [4, 4, -48], "path": ["0", "0", "1", "2", "4"], "rt": [3140, 14, 805], "actions": ["up", "up", "left"], "actionTimes": [5450, 6010, 7347], "queries": {"click": {"state": {"target": ["1"], "time": [4235]}, "edge": {"target": [], "time": []}}, "mouseover": {"state": {"target": ["1"], "time": [3878]}, "edge": {"target": [], "time": []}}, "mouseout": {"state": {"target": ["0"], "time": [1680]}, "edge": {"target": [], "time": []}}}, "displayed_time": "11.56", "trialTime": 13315, "trial_type": "mouselab-mdp", "trial_index": 89, "time_elapsed": 1330924, "internal_node_id": "0.0-4.0-5.0-18.0"}}, {"uniqueid": "w25955609:a70369798", "current_trial": 90, "dateTime": 1664874537259, "trialdata": {"revealed_states": [], "num_clicks_accrued": [0, 0, 0, 0, 0, 0, 0, 0, 0, 0, 0, 0, 0], "stateRewards": ["", 2, -4, -48, 24, -4, 4, 24, 24, 2, -8, -24, -48], "withholdReward": true, "trial_id": "mdp_807654778305", "block": "test3", "trialIndex": 81, "score": 29, "costs": 0, "simulationMode": [null, null, null], "rewards": [-4, 4, 24], "path": ["0", "0", "5", "6", "8"], "rt": [2220, 144, 444], "actions": ["right", "right", "down"], "actionTimes": [3858, 4527, 5488], "queries": {"click": {"state": {"target": [], "time": []}, "edge": {"target": [], "time": []}}, "mouseover": {"state": {"target": [], "time": []}, "edge": {"target": [], "time": []}}, "mouseout": {"state": {"target": ["1"], "time": [897]}, "edge": {"target": [], "time": []}}}, "displayed_time": "10.82", "trialTime": 12175, "trial_type": "mouselab-mdp", "trial_index": 90, "time_elapsed": 1343309, "internal_node_id": "0.0-4.0-5.0-19.0"}}, {"uniqueid": "w25955609:a70369798", "current_trial": 91, "dateTime": 1664874552001, "trialdata": {"revealed_states": [], "num_clicks_accrued": [0, 0, 0, 0, 0, 0, 0, 0, 0, 0, 0, 0, 0], "stateRewards": ["", -4, -8, 24, 48, 2, -4, -24, 24, -4, 8, 48, 48], "withholdReward": true, "trial_id": "mdp_496672670022", "block": "test3", "trialIndex": 82, "score": 57, "costs": 0, "simulationMode": [null, null, null], "rewards": [-4, 8, 48], "path": ["0", "0", "9", "10", "12"], "rt": [1117, 58, 544], "actions": ["left", "left", "down"], "actionTimes": [3041, 3618, 4687], "queries": {"click": {"state": {"target": [], "time": []}, "edge": {"target": [], "time": []}}, "mouseover": {"state": {"target": [], "time": []}, "edge": {"target": [], "time": []}}, "mouseout": {"state": {"target": ["0"], "time": [474]}, "edge": {"target": [], "time": []}}}, "displayed_time": "11.14", "trialTime": 14497, "trial_type": "mouselab-mdp", "trial_index": 91, "time_elapsed": 1358049, "internal_node_id": "0.0-4.0-5.0-20.0"}}, {"uniqueid": "w25955609:a70369798", "current_trial": 92, "dateTime": 1664874564110, "trialdata": {"revealed_states": [], "num_clicks_accrued": [0, 0, 0, 0, 0, 0, 0, 0, 0, 0, 0, 0, 0], "stateRewards": ["", -2, 4, -24, -48, -4, 8, -24, 48, 4, 4, -48, 24], "withholdReward": true, "trial_id": "mdp_341117665701", "block": "test3", "trialIndex": 83, "score": -41, "costs": 0, "simulationMode": [null, null, null], "rewards": [-2, 4, -48], "path": ["0", "0", "1", "2", "4"], "rt": [1322, 126, 735], "actions": ["up", "up", "left"], "actionTimes": [3761, 4407, 5678], "queries": {"click": {"state": {"target": [], "time": []}, "edge": {"target": [], "time": []}}, "mouseover": {"state": {"target": [], "time": []}, "edge": {"target": [], "time": []}}, "mouseout": {"state": {"target": ["0"], "time": [1403]}, "edge": {"target": [], "time": []}}}, "displayed_time": "10.67", "trialTime": 11887, "trial_type": "mouselab-mdp", "trial_index": 92, "time_elapsed": 1370160, "internal_node_id": "0.0-4.0-5.0-21.0"}}, {"uniqueid": "w25955609:a70369798", "current_trial": 93, "dateTime": 1664874576996, "trialdata": {"revealed_states": [], "num_clicks_accrued": [0, 0, 0, 0, 0, 0, 0, 0, 0, 0, 0, 0, 0], "stateRewards": ["", -2, 4, 24, 48, 2, 4, -48, -48, -2, 8, 48, -24], "withholdReward": true, "trial_id": "mdp_305701202606", "block": "test3", "trialIndex": 84, "score": 55, "costs": 0, "simulationMode": [null, null, null], "rewards": [-2, 4, 48], "path": ["0", "0", "1", "2", "4"], "rt": [1304, 25, 755], "actions": ["up", "up", "left"], "actionTimes": [3827, 4385, 5664], "queries": {"click": {"state": {"target": [], "time": []}, "edge": {"target": [], "time": []}}, "mouseover": {"state": {"target": [], "time": []}, "edge": {"target": [], "time": []}}, "mouseout": {"state": {"target": ["0"], "time": [1661]}, "edge": {"target": [], "time": []}}}, "displayed_time": "10.62", "trialTime": 12673, "trial_type": "mouselab-mdp", "trial_index": 93, "time_elapsed": 1383046, "internal_node_id": "0.0-4.0-5.0-22.0"}}, {"uniqueid": "w25955609:a70369798", "current_trial": 94, "dateTime": 1664874589985, "trialdata": {"revealed_states": [], "num_clicks_accrued": [0, 0, 0, 0, 0, 0, 0, 0, 0, 0, 0, 0, 0], "stateRewards": ["", -4, 4, 48, 24, -4, 4, -24, 48, -2, -8, 24, -48], "withholdReward": false, "trial_id": "mdp_261501605436", "block": "test3", "trialIndex": 85, "score": 29, "costs": 0, "simulationMode": [null, null, null], "rewards": [-4, 4, 24], "path": ["0", "0", "1", "2", "4"], "rt": [1250, 64, 381], "actions": ["up", "up", "left"], "actionTimes": [3401, 3990, 4914], "queries": {"click": {"state": {"target": [], "time": []}, "edge": {"target": [], "time": []}}, "mouseover": {"state": {"target": [], "time": []}, "edge": {"target": [], "time": []}}, "mouseout": {"state": {"target": ["0"], "time": [582]}, "edge": {"target": [], "time": []}}}, "displayed_time": "11.34", "trialTime": 12773, "trial_type": "mouselab-mdp", "trial_index": 94, "time_elapsed": 1396033, "internal_node_id": "0.0-4.0-5.0-23.0"}}, {"uniqueid": "w25955609:a70369798", "current_trial": 95, "dateTime": 1664874600887, "trialdata": {"revealed_states": [], "num_clicks_accrued": [0, 0, 0, 0, 0, 0, 0, 0, 0, 0, 0, 0, 0], "stateRewards": ["", 4, -8, -48, 24, 4, 4, -24, -24, 2, 4, -48, 24], "withholdReward": true, "trial_id": "mdp_626971397185", "block": "test3", "trialIndex": 86, "score": 25, "costs": 0, "simulationMode": [null, null, null], "rewards": [4, -8, 24], "path": ["0", "0", "1", "2", "4"], "rt": [1504, 57, 1063], "actions": ["up", "up", "left"], "actionTimes": [2794, 3368, 4959], "queries": {"click": {"state": {"target": [], "time": []}, "edge": {"target": [], "time": []}}, "mouseover": {"state": {"target": [], "time": []}, "edge": {"target": [], "time": []}}, "mouseout": {"state": {"target": ["0"], "time": [597]}, "edge": {"target": [], "time": []}}}, "displayed_time": "9.44", "trialTime": 10692, "trial_type": "mouselab-mdp", "trial_index": 95, "time_elapsed": 1406938, "internal_node_id": "0.0-4.0-5.0-24.0"}}, {"uniqueid": "w25955609:a70369798", "current_trial": 96, "dateTime": 1664874612817, "trialdata": {"revealed_states": [], "num_clicks_accrued": [0, 0, 0, 0, 0, 0, 0, 0, 0, 0, 0, 0, 0], "stateRewards": ["", 4, 4, 48, -48, 4, 4, -48, 24, 2, 8, 24, -48], "withholdReward": true, "trial_id": "mdp_291674656283", "block": "test3", "trialIndex": 87, "score": -35, "costs": 0, "simulationMode": [null, null, null], "rewards": [4, 4, -48], "path": ["0", "0", "1", "2", "4"], "rt": [1349, 20, 436], "actions": ["up", "up", "left"], "actionTimes": [2913, 3467, 4441], "queries": {"click": {"state": {"target": [], "time": []}, "edge": {"target": [], "time": []}}, "mouseover": {"state": {"target": [], "time": []}, "edge": {"target": [], "time": []}}, "mouseout": {"state": {"target": ["0"], "time": [563]}, "edge": {"target": [], "time": []}}}, "displayed_time": "10.66", "trialTime": 11712, "trial_type": "mouselab-mdp", "trial_index": 96, "time_elapsed": 1418868, "internal_node_id": "0.0-4.0-5.0-25.0"}}, {"uniqueid": "w25955609:a70369798", "current_trial": 97, "dateTime": 1664874626320, "trialdata": {"revealed_states": [], "num_clicks_accrued": [0, 0, 0, 0, 0, 0, 0, 0, 0, 0, 0, 0, 0], "stateRewards": ["", -4, 8, -24, -48, 2, 8, -48, -24, -2, -4, 48, -48], "withholdReward": true, "trial_id": "mdp_599927291428", "block": "test3", "trialIndex": 88, "score": -15, "costs": 0, "simulationMode": [null, null, null], "rewards": [-4, 8, -24], "path": ["0", "0", "1", "2", "3"], "rt": [1234, 23, 363], "actions": ["up", "up", "right"], "actionTimes": [3619, 4183, 5076], "queries": {"click": {"state": {"target": [], "time": []}, "edge": {"target": [], "time": []}}, "mouseover": {"state": {"target": [], "time": []}, "edge": {"target": [], "time": []}}, "mouseout": {"state": {"target": ["0"], "time": [1777]}, "edge": {"target": [], "time": []}}}, "displayed_time": "11.61", "trialTime": 13281, "trial_type": "mouselab-mdp", "trial_index": 97, "time_elapsed": 1432371, "internal_node_id": "0.0-4.0-5.0-26.0"}}, {"uniqueid": "w25955609:a70369798", "current_trial": 98, "dateTime": 1664874639117, "trialdata": {"revealed_states": [], "num_clicks_accrued": [0, 0, 0, 0, 0, 0, 0, 0, 0, 0, 0, 0, 0], "stateRewards": ["", -4, -8, 48, 48, -4, 4, 48, -24, 4, 8, -24, -48], "withholdReward": true, "trial_id": "mdp_142906093415", "block": "test3", "trialIndex": 89, "score": -31, "costs": 0, "simulationMode": [null, null, null], "rewards": [4, 8, -48], "path": ["0", "0", "9", "10", "12"], "rt": [1263, 49, 448], "actions": ["left", "left", "down"], "actionTimes": [3604, 4193, 5173], "queries": {"click": {"state": {"target": [], "time": []}, "edge": {"target": [], "time": []}}, "mouseover": {"state": {"target": [], "time": []}, "edge": {"target": [], "time": []}}, "mouseout": {"state": {"target": ["0"], "time": [669]}, "edge": {"target": [], "time": []}}}, "displayed_time": "11.50", "trialTime": 12582, "trial_type": "mouselab-mdp", "trial_index": 98, "time_elapsed": 1445168, "internal_node_id": "0.0-4.0-5.0-27.0"}}, {"uniqueid": "w25955609:a70369798", "current_trial": 99, "dateTime": 1664874652701, "trialdata": {"revealed_states": [], "num_clicks_accrued": [0, 0, 0, 0, 0, 0, 0, 0, 0, 0, 0, 0, 0], "stateRewards": ["", 2, -8, 24, -24, -2, 8, -48, -48, 2, -8, -24, -48], "withholdReward": false, "trial_id": "mdp_744278669205", "block": "test3", "trialIndex": 90, "score": -25, "costs": 0, "simulationMode": [null, null, null], "rewards": [2, -8, -24], "path": ["0", "0", "1", "2", "4"], "rt": [1168, 73, 395], "actions": ["up", "up", "left"], "actionTimes": [3830, 4418, 5340], "queries": {"click": {"state": {"target": [], "time": []}, "edge": {"target": [], "time": []}}, "mouseover": {"state": {"target": [], "time": []}, "edge": {"target": [], "time": []}}, "mouseout": {"state": {"target": ["0", "0"], "time": [1764, 2294]}, "edge": {"target": [], "time": []}}}, "displayed_time": "11.85", "trialTime": 13372, "trial_type": "mouselab-mdp", "trial_index": 99, "time_elapsed": 1458752, "internal_node_id": "0.0-4.0-5.0-28.0"}}, {"uniqueid": "w25955609:a70369798", "current_trial": 100, "dateTime": 1664874665892, "trialdata": {"revealed_states": [], "num_clicks_accrued": [0, 0, 0, 0, 0, 0, 0, 0, 0, 0, 0, 0, 0], "stateRewards": ["", 4, -4, 48, 24, 2, 4, 24, -24, 2, 4, 24, 48], "withholdReward": true, "trial_id": "mdp_736351885282", "block": "test3", "trialIndex": 91, "score": 28.75, "costs": -0.25, "simulationMode": [null, null, null], "rewards": [4, -4, 24], "path": ["0", "0", "1", "2", "4"], "rt": [3144, 41, 440], "actions": ["up", "up", "left"], "actionTimes": [5372, 5940, 6925], "queries": {"click": {"state": {"target": ["1"], "time": [4017]}, "edge": {"target": [], "time": []}}, "mouseover": {"state": {"target": ["1"], "time": [3796]}, "edge": {"target": [], "time": []}}, "mouseout": {"state": {"target": ["0"], "time": [726]}, "edge": {"target": [], "time": []}}}, "displayed_time": "11.33", "trialTime": 12971, "trial_type": "mouselab-mdp", "trial_index": 100, "time_elapsed": 1471942, "internal_node_id": "0.0-4.0-5.0-29.0"}}, {"uniqueid": "w25955609:a70369798", "current_trial": 101, "dateTime": 1664874686160, "trialdata": {"rt": 20262, "stimulus": "<h1> End of block! </h1>\n\nYou have reached the end of the block 3/4. If you need a short break, feel free to take one now before moving on.\n\n<br><br>\nIn the next block, you will complete another 30 rounds of this game.\n\n<br><br>\n<div style='text-align: center;'>Press <code>space</code> to begin.</div>\n<br><br>\n<div style='text-align: center;'>(If the experiment doesn't continue, try clicking on the text and then pressing <code>space</code>.)</div>", "response": " ", "trial_id": "mdp_ready_4", "trial_type": "html-keyboard-response", "tria