{"condition": 0, "counterbalance": 0, "assignmentId": "a98732283", "workerId": "w69507088", "hitId": "h35355160", "currenttrial": 959, "bonus": 0, "data": [{"uniqueid": "w69507088:a98732283", "current_trial": 0, "dateTime": 1664470888709, "trialdata": {"success": true, "trial_type": "fullscreen", "trial_index": 0, "time_elapsed": 2717, "internal_node_id": "0.0-0.0"}}, {"uniqueid": "w69507088:a98732283", "current_trial": 1, "dateTime": 1664470933226, "trialdata": {"view_history": [{"page_index": 0, "viewing_time": 44512}], "rt": 44513, "trial_id": "exp_instructions_distractor", "trial_type": "instructions", "trial_index": 1, "time_elapsed": 47234, "internal_node_id": "0.0-1.0"}}, {"uniqueid": "w69507088:a98732283", "current_trial": 2, "dateTime": 1664470956354, "trialdata": {"view_history": [{"page_index": 0, "viewing_time": 23126}], "rt": 23126, "trial_id": "color_game_instructions", "trial_type": "instructions", "trial_index": 2, "time_elapsed": 70362, "internal_node_id": "0.0-2.0"}}, {"uniqueid": "w69507088:a98732283", "current_trial": 3, "dateTime": 1664470969708, "trialdata": {"rt": 13349, "stimulus": "<h1> Get ready to start the game! </h1>\n\nThank you for reading the instructions. Get ready start with the first of 5 block(s) of this game.\n<br><br>\nIn this first block, you will complete 90 rounds of this game before moving on.\n<br><br>\nRemember, the better you perform, the bigger your bonus will be!\n<br><br>\n<div style='text-align: center;'>Press <code>space</code> to begin.</div>", "response": " ", "trial_id": "stroop_1_ready_1", "trial_type": "html-keyboard-response", "trial_index": 3, "time_elapsed": 83716, "internal_node_id": "0.0-3.0"}}, {"uniqueid": "w69507088:a98732283", "current_trial": 4, "dateTime": 1664470970718, "trialdata": {"rt": 990, "stimulus": "<p id='stroop-text' class='stroop-red'>MONKEY</p>", "response": "r", "stimulus-type": "unrelated", "word": "MONKEY", "color": "red", "correct_response": "r", "trial_id": "stroop-trial-1-unrelated-6", "trial_type": "html-keyboard-response", "trial_index": 4, "time_elapsed": 84725, "internal_node_id": "0.0-4.0-0.0"}}, {"uniqueid": "w69507088:a98732283", "current_trial": 5, "dateTime": 1664470972812, "trialdata": {"rt": 1589, "stimulus": "<p id='stroop-text' class='stroop-blue'>GREEN</p>", "response": "b", "stimulus-type": "incongruent", "word": "green", "color": "blue", "correct_response": "b", "trial_id": "stroop-trial-1-incongruent-14", "trial_type": "html-keyboard-response", "trial_index": 5, "time_elapsed": 86819, "internal_node_id": "0.0-4.0-1.0"}}, {"uniqueid": "w69507088:a98732283", "current_trial": 6, "dateTime": 1664470974246, "trialdata": {"rt": 930, "stimulus": "<p id='stroop-text' class='stroop-yellow'>MONKEY</p>", "response": "y", "stimulus-type": "unrelated", "word": "MONKEY", "color": "yellow", "correct_response": "y", "trial_id": "stroop-trial-1-unrelated-17", "trial_type": "html-keyboard-response", "trial_index": 6, "time_elapsed": 88254, "internal_node_id": "0.0-4.0-2.0"}}, {"uniqueid": "w69507088:a98732283", "current_trial": 7, "dateTime": 1664470975568, "trialdata": {"rt": 817, "stimulus": "<p id='stroop-text' class='stroop-green'>GREEN</p>", "response": "g", "stimulus-type": "congruent", "word": "green", "color": "green", "correct_response": "g", "trial_id": "stroop-trial-1-congruent-5", "trial_type": "html-keyboard-response", "trial_index": 7, "time_elapsed": 89575, "internal_node_id": "0.0-4.0-3.0"}}, {"uniqueid": "w69507088:a98732283", "current_trial": 8, "dateTime": 1664470977100, "trialdata": {"rt": 1026, "stimulus": "<p id='stroop-text' class='stroop-blue'>BRIDGE</p>", "response": "b", "stimulus-type": "unrelated", "word": "BRIDGE", "color": "blue", "correct_response": "b", "trial_id": "stroop-trial-1-unrelated-3", "trial_type": "html-keyboard-response", "trial_index": 8, "time_elapsed": 91107, "internal_node_id": "0.0-4.0-4.0"}}, {"uniqueid": "w69507088:a98732283", "current_trial": 9, "dateTime": 1664470978467, "trialdata": {"rt": 862, "stimulus": "<p id='stroop-text' class='stroop-green'>GREEN</p>", "response": "g", "stimulus-type": "congruent", "word": "green", "color": "green", "correct_response": "g", "trial_id": "stroop-trial-1-congruent-1", "trial_type": "html-keyboard-response", "trial_index": 9, "time_elapsed": 92474, "internal_node_id": "0.0-4.0-5.0"}}, {"uniqueid": "w69507088:a98732283", "current_trial": 10, "dateTime": 1664470979731, "trialdata": {"rt": 760, "stimulus": "<p id='stroop-text' class='stroop-yellow'>YELLOW</p>", "response": "y", "stimulus-type": "congruent", "word": "yellow", "color": "yellow", "correct_response": "y", "trial_id": "stroop-trial-1-congruent-20", "trial_type": "html-keyboard-response", "trial_index": 10, "time_elapsed": 93738, "internal_node_id": "0.0-4.0-6.0"}}, {"uniqueid": "w69507088:a98732283", "current_trial": 11, "dateTime": 1664470981241, "trialdata": {"rt": 1006, "stimulus": "<p id='stroop-text' class='stroop-green'>GREEN</p>", "response": "g", "stimulus-type": "congruent", "word": "green", "color": "green", "correct_response": "g", "trial_id": "stroop-trial-1-congruent-17", "trial_type": "html-keyboard-response", "trial_index": 11, "time_elapsed": 95249, "internal_node_id": "0.0-4.0-7.0"}}, {"uniqueid": "w69507088:a98732283", "current_trial": 12, "dateTime": 1664470982368, "trialdata": {"rt": 625, "stimulus": "<p id='stroop-text' class='stroop-green'>GREEN</p>", "response": "g", "stimulus-type": "congruent", "word": "green", "color": "green", "correct_response": "g", "trial_id": "stroop-trial-1-congruent-18", "trial_type": "html-keyboard-response", "trial_index": 12, "time_elapsed": 96376, "internal_node_id": "0.0-4.0-8.0"}}, {"uniqueid": "w69507088:a98732283", "current_trial": 13, "dateTime": 1664470983927, "trialdata": {"rt": 1056, "stimulus": "<p id='stroop-text' class='stroop-green'>MONKEY</p>", "response": "g", "stimulus-type": "unrelated", "word": "MONKEY", "color": "green", "correct_response": "g", "trial_id": "stroop-trial-1-unrelated-27", "trial_type": "html-keyboard-response", "trial_index": 13, "time_elapsed": 97934, "internal_node_id": "0.0-4.0-9.0"}}, {"uniqueid": "w69507088:a98732283", "current_trial": 14, "dateTime": 1664470985579, "trialdata": {"rt": 1145, "stimulus": "<p id='stroop-text' class='stroop-red'>BLUE</p>", "response": "r", "stimulus-type": "incongruent", "word": "blue", "color": "red", "correct_response": "r", "trial_id": "stroop-trial-1-incongruent-25", "trial_type": "html-keyboard-response", "trial_index": 14, "time_elapsed": 99586, "internal_node_id": "0.0-4.0-10.0"}}, {"uniqueid": "w69507088:a98732283", "current_trial": 15, "dateTime": 1664470988458, "trialdata": {"rt": 2375, "stimulus": "<p id='stroop-text' class='stroop-blue'>YELLOW</p>", "response": "y", "stimulus-type": "incongruent", "word": "yellow", "color": "blue", "correct_response": "b", "trial_id": "stroop-trial-1-incongruent-19", "trial_type": "html-keyboard-response", "trial_index": 15, "time_elapsed": 102466, "internal_node_id": "0.0-4.0-11.0"}}, {"uniqueid": "w69507088:a98732283", "current_trial": 16, "dateTime": 1664470991966, "trialdata": {"rt": 3002, "stimulus": "<p id='stroop-text' class='stroop-green'>BLUE</p>", "response": "b", "stimulus-type": "incongruent", "word": "blue", "color": "green", "correct_response": "g", "trial_id": "stroop-trial-1-incongruent-2", "trial_type": "html-keyboard-response", "trial_index": 16, "time_elapsed": 105974, "internal_node_id": "0.0-4.0-12.0"}}, {"uniqueid": "w69507088:a98732283", "current_trial": 17, "dateTime": 1664470993691, "trialdata": {"rt": 1220, "stimulus": "<p id='stroop-text' class='stroop-green'>BLUE</p>", "response": "g", "stimulus-type": "incongruent", "word": "blue", "color": "green", "correct_response": "g", "trial_id": "stroop-trial-1-incongruent-20", "trial_type": "html-keyboard-response", "trial_index": 17, "time_elapsed": 107699, "internal_node_id": "0.0-4.0-13.0"}}, {"uniqueid": "w69507088:a98732283", "current_trial": 18, "dateTime": 1664470994992, "trialdata": {"rt": 797, "stimulus": "<p id='stroop-text' class='stroop-green'>BOAT</p>", "response": "g", "stimulus-type": "unrelated", "word": "BOAT", "color": "green", "correct_response": "g", "trial_id": "stroop-trial-1-unrelated-25", "trial_type": "html-keyboard-response", "trial_index": 18, "time_elapsed": 109000, "internal_node_id": "0.0-4.0-14.0"}}, {"uniqueid": "w69507088:a98732283", "current_trial": 19, "dateTime": 1664470996594, "trialdata": {"rt": 1098, "stimulus": "<p id='stroop-text' class='stroop-blue'>BLUE</p>", "response": "b", "stimulus-type": "congruent", "word": "blue", "color": "blue", "correct_response": "b", "trial_id": "stroop-trial-1-congruent-3", "trial_type": "html-keyboard-response", "trial_index": 19, "time_elapsed": 110602, "internal_node_id": "0.0-4.0-15.0"}}, {"uniqueid": "w69507088:a98732283", "current_trial": 20, "dateTime": 1664470998066, "trialdata": {"rt": 965, "stimulus": "<p id='stroop-text' class='stroop-blue'>BRIDGE</p>", "response": "b", "stimulus-type": "unrelated", "word": "BRIDGE", "color": "blue", "correct_response": "b", "trial_id": "stroop-trial-1-unrelated-11", "trial_type": "html-keyboard-response", "trial_index": 20, "time_elapsed": 112074, "internal_node_id": "0.0-4.0-16.0"}}, {"uniqueid": "w69507088:a98732283", "current_trial": 21, "dateTime": 1664470999583, "trialdata": {"rt": 1015, "stimulus": "<p id='stroop-text' class='stroop-yellow'>BRIDGE</p>", "response": "y", "stimulus-type": "unrelated", "word": "BRIDGE", "color": "yellow", "correct_response": "y", "trial_id": "stroop-trial-1-unrelated-7", "trial_type": "html-keyboard-response", "trial_index": 21, "time_elapsed": 113590, "internal_node_id": "0.0-4.0-17.0"}}, {"uniqueid": "w69507088:a98732283", "current_trial": 22, "dateTime": 1664471001648, "trialdata": {"rt": 1560, "stimulus": "<p id='stroop-text' class='stroop-blue'>RED</p>", "response": "b", "stimulus-type": "incongruent", "word": "red", "color": "blue", "correct_response": "b", "trial_id": "stroop-trial-1-incongruent-13", "trial_type": "html-keyboard-response", "trial_index": 22, "time_elapsed": 115655, "internal_node_id": "0.0-4.0-18.0"}}, {"uniqueid": "w69507088:a98732283", "current_trial": 23, "dateTime": 1664471003057, "trialdata": {"rt": 904, "stimulus": "<p id='stroop-text' class='stroop-yellow'>YELLOW</p>", "response": "y", "stimulus-type": "congruent", "word": "yellow", "color": "yellow", "correct_response": "y", "trial_id": "stroop-trial-1-congruent-4", "trial_type": "html-keyboard-response", "trial_index": 23, "time_elapsed": 117064, "internal_node_id": "0.0-4.0-19.0"}}, {"uniqueid": "w69507088:a98732283", "current_trial": 24, "dateTime": 1664471004382, "trialdata": {"rt": 820, "stimulus": "<p id='stroop-text' class='stroop-green'>WINDOW</p>", "response": "g", "stimulus-type": "unrelated", "word": "WINDOW", "color": "green", "correct_response": "g", "trial_id": "stroop-trial-1-unrelated-23", "trial_type": "html-keyboard-response", "trial_index": 24, "time_elapsed": 118389, "internal_node_id": "0.0-4.0-20.0"}}, {"uniqueid": "w69507088:a98732283", "current_trial": 25, "dateTime": 1664471006003, "trialdata": {"rt": 1117, "stimulus": "<p id='stroop-text' class='stroop-green'>MONKEY</p>", "response": "g", "stimulus-type": "unrelated", "word": "MONKEY", "color": "green", "correct_response": "g", "trial_id": "stroop-trial-1-unrelated-1", "trial_type": "html-keyboard-response", "trial_index": 25, "time_elapsed": 120011, "internal_node_id": "0.0-4.0-21.0"}}, {"uniqueid": "w69507088:a98732283", "current_trial": 26, "dateTime": 1664471007416, "trialdata": {"rt": 908, "stimulus": "<p id='stroop-text' class='stroop-blue'>WINDOW</p>", "response": "b", "stimulus-type": "unrelated", "word": "WINDOW", "color": "blue", "correct_response": "b", "trial_id": "stroop-trial-1-unrelated-30", "trial_type": "html-keyboard-response", "trial_index": 26, "time_elapsed": 121424, "internal_node_id": "0.0-4.0-22.0"}}, {"uniqueid": "w69507088:a98732283", "current_trial": 27, "dateTime": 1664471008919, "trialdata": {"rt": 997, "stimulus": "<p id='stroop-text' class='stroop-red'>RED</p>", "response": "r", "stimulus-type": "congruent", "word": "red", "color": "red", "correct_response": "r", "trial_id": "stroop-trial-1-congruent-16", "trial_type": "html-keyboard-response", "trial_index": 27, "time_elapsed": 122927, "internal_node_id": "0.0-4.0-23.0"}}, {"uniqueid": "w69507088:a98732283", "current_trial": 28, "dateTime": 1664471010561, "trialdata": {"rt": 1137, "stimulus": "<p id='stroop-text' class='stroop-red'>YELLOW</p>", "response": "r", "stimulus-type": "incongruent", "word": "yellow", "color": "red", "correct_response": "r", "trial_id": "stroop-trial-1-incongruent-23", "trial_type": "html-keyboard-response", "trial_index": 28, "time_elapsed": 124568, "internal_node_id": "0.0-4.0-24.0"}}, {"uniqueid": "w69507088:a98732283", "current_trial": 29, "dateTime": 1664471011719, "trialdata": {"rt": 654, "stimulus": "<p id='stroop-text' class='stroop-red'>YELLOW</p>", "response": "r", "stimulus-type": "incongruent", "word": "yellow", "color": "red", "correct_response": "r", "trial_id": "stroop-trial-1-incongruent-6", "trial_type": "html-keyboard-response", "trial_index": 29, "time_elapsed": 125727, "internal_node_id": "0.0-4.0-25.0"}}, {"uniqueid": "w69507088:a98732283", "current_trial": 30, "dateTime": 1664471013029, "trialdata": {"rt": 804, "stimulus": "<p id='stroop-text' class='stroop-red'>YELLOW</p>", "response": "r", "stimulus-type": "incongruent", "word": "yellow", "color": "red", "correct_response": "r", "trial_id": "stroop-trial-1-incongruent-24", "trial_type": "html-keyboard-response", "trial_index": 30, "time_elapsed": 127037, "internal_node_id": "0.0-4.0-26.0"}}, {"uniqueid": "w69507088:a98732283", "current_trial": 31, "dateTime": 1664471014511, "trialdata": {"rt": 978, "stimulus": "<p id='stroop-text' class='stroop-yellow'>BOAT</p>", "response": "y", "stimulus-type": "unrelated", "word": "BOAT", "color": "yellow", "correct_response": "y", "trial_id": "stroop-trial-1-unrelated-24", "trial_type": "html-keyboard-response", "trial_index": 31, "time_elapsed": 128519, "internal_node_id": "0.0-4.0-27.0"}}, {"uniqueid": "w69507088:a98732283", "current_trial": 32, "dateTime": 1664471015745, "trialdata": {"rt": 728, "stimulus": "<p id='stroop-text' class='stroop-blue'>STONE</p>", "response": "b", "stimulus-type": "unrelated", "word": "STONE", "color": "blue", "correct_response": "b", "trial_id": "stroop-trial-1-unrelated-12", "trial_type": "html-keyboard-response", "trial_index": 32, "time_elapsed": 129753, "internal_node_id": "0.0-4.0-28.0"}}, {"uniqueid": "w69507088:a98732283", "current_trial": 33, "dateTime": 1664471017372, "trialdata": {"rt": 1122, "stimulus": "<p id='stroop-text' class='stroop-yellow'>RED</p>", "response": "y", "stimulus-type": "incongruent", "word": "red", "color": "yellow", "correct_response": "y", "trial_id": "stroop-trial-1-incongruent-30", "trial_type": "html-keyboard-response", "trial_index": 33, "time_elapsed": 131380, "internal_node_id": "0.0-4.0-29.0"}}, {"uniqueid": "w69507088:a98732283", "current_trial": 34, "dateTime": 1664471018521, "trialdata": {"rt": 644, "stimulus": "<p id='stroop-text' class='stroop-blue'>BLUE</p>", "response": "b", "stimulus-type": "congruent", "word": "blue", "color": "blue", "correct_response": "b", "trial_id": "stroop-trial-1-congruent-29", "trial_type": "html-keyboard-response", "trial_index": 34, "time_elapsed": 132528, "internal_node_id": "0.0-4.0-30.0"}}, {"uniqueid": "w69507088:a98732283", "current_trial": 35, "dateTime": 1664471019706, "trialdata": {"rt": 681, "stimulus": "<p id='stroop-text' class='stroop-red'>BLUE</p>", "response": "r", "stimulus-type": "incongruent", "word": "blue", "color": "red", "correct_response": "r", "trial_id": "stroop-trial-1-incongruent-16", "trial_type": "html-keyboard-response", "trial_index": 35, "time_elapsed": 133714, "internal_node_id": "0.0-4.0-31.0"}}, {"uniqueid": "w69507088:a98732283", "current_trial": 36, "dateTime": 1664471021264, "trialdata": {"rt": 1052, "stimulus": "<p id='stroop-text' class='stroop-blue'>BLUE</p>", "response": "b", "stimulus-type": "congruent", "word": "blue", "color": "blue", "correct_response": "b", "trial_id": "stroop-trial-1-congruent-15", "trial_type": "html-keyboard-response", "trial_index": 36, "time_elapsed": 135271, "internal_node_id": "0.0-4.0-32.0"}}, {"uniqueid": "w69507088:a98732283", "current_trial": 37, "dateTime": 1664471022402, "trialdata": {"rt": 633, "stimulus": "<p id='stroop-text' class='stroop-red'>RED</p>", "response": "r", "stimulus-type": "congruent", "word": "red", "color": "red", "correct_response": "r", "trial_id": "stroop-trial-1-congruent-10", "trial_type": "html-keyboard-response", "trial_index": 37, "time_elapsed": 136410, "internal_node_id": "0.0-4.0-33.0"}}, {"uniqueid": "w69507088:a98732283", "current_trial": 38, "dateTime": 1664471023490, "trialdata": {"rt": 584, "stimulus": "<p id='stroop-text' class='stroop-green'>BOAT</p>", "response": "b", "stimulus-type": "unrelated", "word": "BOAT", "color": "green", "correct_response": "g", "trial_id": "stroop-trial-1-unrelated-19", "trial_type": "html-keyboard-response", "trial_index": 38, "time_elapsed": 137498, "internal_node_id": "0.0-4.0-34.0"}}, {"uniqueid": "w69507088:a98732283", "current_trial": 39, "dateTime": 1664471024540, "trialdata": {"rt": 545, "stimulus": "<p id='stroop-text' class='stroop-red'>RED</p>", "response": "r", "stimulus-type": "congruent", "word": "red", "color": "red", "correct_response": "r", "trial_id": "stroop-trial-1-congruent-8", "trial_type": "html-keyboard-response", "trial_index": 39, "time_elapsed": 138547, "internal_node_id": "0.0-4.0-35.0"}}, {"uniqueid": "w69507088:a98732283", "current_trial": 40, "dateTime": 1664471025734, "trialdata": {"rt": 689, "stimulus": "<p id='stroop-text' class='stroop-yellow'>YELLOW</p>", "response": "y", "stimulus-type": "congruent", "word": "yellow", "color": "yellow", "correct_response": "y", "trial_id": "stroop-trial-1-congruent-12", "trial_type": "html-keyboard-response", "trial_index": 40, "time_elapsed": 139742, "internal_node_id": "0.0-4.0-36.0"}}, {"uniqueid": "w69507088:a98732283", "current_trial": 41, "dateTime": 1664471027190, "trialdata": {"rt": 949, "stimulus": "<p id='stroop-text' class='stroop-red'>GREEN</p>", "response": "r", "stimulus-type": "incongruent", "word": "green", "color": "red", "correct_response": "r", "trial_id": "stroop-trial-1-incongruent-3", "trial_type": "html-keyboard-response", "trial_index": 41, "time_elapsed": 141198, "internal_node_id": "0.0-4.0-37.0"}}, {"uniqueid": "w69507088:a98732283", "current_trial": 42, "dateTime": 1664471028808, "trialdata": {"rt": 1113, "stimulus": "<p id='stroop-text' class='stroop-green'>BRIDGE</p>", "response": "g", "stimulus-type": "unrelated", "word": "BRIDGE", "color": "green", "correct_response": "g", "trial_id": "stroop-trial-1-unrelated-10", "trial_type": "html-keyboard-response", "trial_index": 42, "time_elapsed": 142816, "internal_node_id": "0.0-4.0-38.0"}}, {"uniqueid": "w69507088:a98732283", "current_trial": 43, "dateTime": 1664471030249, "trialdata": {"rt": 935, "stimulus": "<p id='stroop-text' class='stroop-green'>BLUE</p>", "response": "g", "stimulus-type": "incongruent", "word": "blue", "color": "green", "correct_response": "g", "trial_id": "stroop-trial-1-incongruent-1", "trial_type": "html-keyboard-response", "trial_index": 43, "time_elapsed": 144256, "internal_node_id": "0.0-4.0-39.0"}}, {"uniqueid": "w69507088:a98732283", "current_trial": 44, "dateTime": 1664471031759, "trialdata": {"rt": 1005, "stimulus": "<p id='stroop-text' class='stroop-red'>FORK</p>", "response": "r", "stimulus-type": "unrelated", "word": "FORK", "color": "red", "correct_response": "r", "trial_id": "stroop-trial-1-unrelated-9", "trial_type": "html-keyboard-response", "trial_index": 44, "time_elapsed": 145766, "internal_node_id": "0.0-4.0-40.0"}}, {"uniqueid": "w69507088:a98732283", "current_trial": 45, "dateTime": 1664471033258, "trialdata": {"rt": 994, "stimulus": "<p id='stroop-text' class='stroop-blue'>YELLOW</p>", "response": "b", "stimulus-type": "incongruent", "word": "yellow", "color": "blue", "correct_response": "b", "trial_id": "stroop-trial-1-incongruent-9", "trial_type": "html-keyboard-response", "trial_index": 45, "time_elapsed": 147266, "internal_node_id": "0.0-4.0-41.0"}}, {"uniqueid": "w69507088:a98732283", "current_trial": 46, "dateTime": 1664471034786, "trialdata": {"rt": 1016, "stimulus": "<p id='stroop-text' class='stroop-green'>FORK</p>", "response": "g", "stimulus-type": "unrelated", "word": "FORK", "color": "green", "correct_response": "g", "trial_id": "stroop-trial-1-unrelated-29", "trial_type": "html-keyboard-response", "trial_index": 46, "time_elapsed": 148794, "internal_node_id": "0.0-4.0-42.0"}}, {"uniqueid": "w69507088:a98732283", "current_trial": 47, "dateTime": 1664471036142, "trialdata": {"rt": 851, "stimulus": "<p id='stroop-text' class='stroop-green'>BLUE</p>", "response": "g", "stimulus-type": "incongruent", "word": "blue", "color": "green", "correct_response": "g", "trial_id": "stroop-trial-1-incongruent-5", "trial_type": "html-keyboard-response", "trial_index": 47, "time_elapsed": 150150, "internal_node_id": "0.0-4.0-43.0"}}, {"uniqueid": "w69507088:a98732283", "current_trial": 48, "dateTime": 1664471037264, "trialdata": {"rt": 616, "stimulus": "<p id='stroop-text' class='stroop-green'>BOTTLE</p>", "response": "g", "stimulus-type": "unrelated", "word": "BOTTLE", "color": "green", "correct_response": "g", "trial_id": "stroop-trial-1-unrelated-15", "trial_type": "html-keyboard-response", "trial_index": 48, "time_elapsed": 151271, "internal_node_id": "0.0-4.0-44.0"}}, {"uniqueid": "w69507088:a98732283", "current_trial": 49, "dateTime": 1664471038571, "trialdata": {"rt": 800, "stimulus": "<p id='stroop-text' class='stroop-yellow'>STONE</p>", "response": "y", "stimulus-type": "unrelated", "word": "STONE", "color": "yellow", "correct_response": "y", "trial_id": "stroop-trial-1-unrelated-5", "trial_type": "html-keyboard-response", "trial_index": 49, "time_elapsed": 152577, "internal_node_id": "0.0-4.0-45.0"}}, {"uniqueid": "w69507088:a98732283", "current_trial": 50, "dateTime": 1664471039698, "trialdata": {"rt": 622, "stimulus": "<p id='stroop-text' class='stroop-red'>WINDOW</p>", "response": "r", "stimulus-type": "unrelated", "word": "WINDOW", "color": "red", "correct_response": "r", "trial_id": "stroop-trial-1-unrelated-20", "trial_type": "html-keyboard-response", "trial_index": 50, "time_elapsed": 153705, "internal_node_id": "0.0-4.0-46.0"}}, {"uniqueid": "w69507088:a98732283", "current_trial": 51, "dateTime": 1664471040868, "trialdata": {"rt": 665, "stimulus": "<p id='stroop-text' class='stroop-green'>BRAIN</p>", "response": "g", "stimulus-type": "unrelated", "word": "BRAIN", "color": "green", "correct_response": "g", "trial_id": "stroop-trial-1-unrelated-22", "trial_type": "html-keyboard-response", "trial_index": 51, "time_elapsed": 154875, "internal_node_id": "0.0-4.0-47.0"}}, {"uniqueid": "w69507088:a98732283", "current_trial": 52, "dateTime": 1664471042357, "trialdata": {"rt": 976, "stimulus": "<p id='stroop-text' class='stroop-blue'>WINDOW</p>", "response": "b", "stimulus-type": "unrelated", "word": "WINDOW", "color": "blue", "correct_response": "b", "trial_id": "stroop-trial-1-unrelated-26", "trial_type": "html-keyboard-response", "trial_index": 52, "time_elapsed": 156364, "internal_node_id": "0.0-4.0-48.0"}}, {"uniqueid": "w69507088:a98732283", "current_trial": 53, "dateTime": 1664471043581, "trialdata": {"rt": 719, "stimulus": "<p id='stroop-text' class='stroop-green'>GREEN</p>", "response": "g", "stimulus-type": "congruent", "word": "green", "color": "green", "correct_response": "g", "trial_id": "stroop-trial-1-congruent-2", "trial_type": "html-keyboard-response", "trial_index": 53, "time_elapsed": 157589, "internal_node_id": "0.0-4.0-49.0"}}, {"uniqueid": "w69507088:a98732283", "current_trial": 54, "dateTime": 1664471044633, "trialdata": {"rt": 545, "stimulus": "<p id='stroop-text' class='stroop-green'>GREEN</p>", "response": "g", "stimulus-type": "congruent", "word": "green", "color": "green", "correct_response": "g", "trial_id": "stroop-trial-1-congruent-7", "trial_type": "html-keyboard-response", "trial_index": 54, "time_elapsed": 158640, "internal_node_id": "0.0-4.0-50.0"}}, {"uniqueid": "w69507088:a98732283", "current_trial": 55, "dateTime": 1664471045604, "trialdata": {"rt": 456, "stimulus": "<p id='stroop-text' class='stroop-green'>GREEN</p>", "response": "g", "stimulus-type": "congruent", "word": "green", "color": "green", "correct_response": "g", "trial_id": "stroop-trial-1-congruent-22", "trial_type": "html-keyboard-response", "trial_index": 55, "time_elapsed": 159611, "internal_node_id": "0.0-4.0-51.0"}}, {"uniqueid": "w69507088:a98732283", "current_trial": 56, "dateTime": 1664471047190, "trialdata": {"rt": 1082, "stimulus": "<p id='stroop-text' class='stroop-red'>YELLOW</p>", "response": "r", "stimulus-type": "incongruent", "word": "yellow", "color": "red", "correct_response": "r", "trial_id": "stroop-trial-1-incongruent-22", "trial_type": "html-keyboard-response", "trial_index": 56, "time_elapsed": 161197, "internal_node_id": "0.0-4.0-52.0"}}, {"uniqueid": "w69507088:a98732283", "current_trial": 57, "dateTime": 1664471048456, "trialdata": {"rt": 761, "stimulus": "<p id='stroop-text' class='stroop-yellow'>YELLOW</p>", "response": "y", "stimulus-type": "congruent", "word": "yellow", "color": "yellow", "correct_response": "y", "trial_id": "stroop-trial-1-congruent-23", "trial_type": "html-keyboard-response", "trial_index": 57, "time_elapsed": 162464, "internal_node_id": "0.0-4.0-53.0"}}, {"uniqueid": "w69507088:a98732283", "current_trial": 58, "dateTime": 1664471049617, "trialdata": {"rt": 655, "stimulus": "<p id='stroop-text' class='stroop-yellow'>SHIP</p>", "response": "y", "stimulus-type": "unrelated", "word": "SHIP", "color": "yellow", "correct_response": "y", "trial_id": "stroop-trial-1-unrelated-18", "trial_type": "html-keyboard-response", "trial_index": 58, "time_elapsed": 163625, "internal_node_id": "0.0-4.0-54.0"}}, {"uniqueid": "w69507088:a98732283", "current_trial": 59, "dateTime": 1664471050975, "trialdata": {"rt": 852, "stimulus": "<p id='stroop-text' class='stroop-red'>YELLOW</p>", "response": "r", "stimulus-type": "incongruent", "word": "yellow", "color": "red", "correct_response": "r", "trial_id": "stroop-trial-1-incongruent-15", "trial_type": "html-keyboard-response", "trial_index": 59, "time_elapsed": 164982, "internal_node_id": "0.0-4.0-55.0"}}, {"uniqueid": "w69507088:a98732283", "current_trial": 60, "dateTime": 1664471052300, "trialdata": {"rt": 820, "stimulus": "<p id='stroop-text' class='stroop-yellow'>BRAIN</p>", "response": "y", "stimulus-type": "unrelated", "word": "BRAIN", "color": "yellow", "correct_response": "y", "trial_id": "stroop-trial-1-unrelated-14", "trial_type": "html-keyboard-response", "trial_index": 60, "time_elapsed": 166308, "internal_node_id": "0.0-4.0-56.0"}}, {"uniqueid": "w69507088:a98732283", "current_trial": 61, "dateTime": 1664471053966, "trialdata": {"rt": 1161, "stimulus": "<p id='stroop-text' class='stroop-red'>YELLOW</p>", "response": "r", "stimulus-type": "incongruent", "word": "yellow", "color": "red", "correct_response": "r", "trial_id": "stroop-trial-1-incongruent-29", "trial_type": "html-keyboard-response", "trial_index": 61, "time_elapsed": 167973, "internal_node_id": "0.0-4.0-57.0"}}, {"uniqueid": "w69507088:a98732283", "current_trial": 62, "dateTime": 1664471055285, "trialdata": {"rt": 812, "stimulus": "<p id='stroop-text' class='stroop-yellow'>RED</p>", "response": "y", "stimulus-type": "incongruent", "word": "red", "color": "yellow", "correct_response": "y", "trial_id": "stroop-trial-1-incongruent-12", "trial_type": "html-keyboard-response", "trial_index": 62, "time_elapsed": 169293, "internal_node_id": "0.0-4.0-58.0"}}, {"uniqueid": "w69507088:a98732283", "current_trial": 63, "dateTime": 1664471056272, "trialdata": {"rt": 482, "stimulus": "<p id='stroop-text' class='stroop-yellow'>BOAT</p>", "response": "y", "stimulus-type": "unrelated", "word": "BOAT", "color": "yellow", "correct_response": "y", "trial_id": "stroop-trial-1-unrelated-4", "trial_type": "html-keyboard-response", "trial_index": 63, "time_elapsed": 170279, "internal_node_id": "0.0-4.0-59.0"}}, {"uniqueid": "w69507088:a98732283", "current_trial": 64, "dateTime": 1664471057690, "trialdata": {"rt": 915, "stimulus": "<p id='stroop-text' class='stroop-blue'>GREEN</p>", "response": "b", "stimulus-type": "incongruent", "word": "green", "color": "blue", "correct_response": "b", "trial_id": "stroop-trial-1-incongruent-28", "trial_type": "html-keyboard-response", "trial_index": 64, "time_elapsed": 171698, "internal_node_id": "0.0-4.0-60.0"}}, {"uniqueid": "w69507088:a98732283", "current_trial": 65, "dateTime": 1664471059138, "trialdata": {"rt": 944, "stimulus": "<p id='stroop-text' class='stroop-red'>YELLOW</p>", "response": "r", "stimulus-type": "incongruent", "word": "yellow", "color": "red", "correct_response": "r", "trial_id": "stroop-trial-1-incongruent-21", "trial_type": "html-keyboard-response", "trial_index": 65, "time_elapsed": 173146, "internal_node_id": "0.0-4.0-61.0"}}, {"uniqueid": "w69507088:a98732283", "current_trial": 66, "dateTime": 1664471060189, "trialdata": {"rt": 546, "stimulus": "<p id='stroop-text' class='stroop-red'>RED</p>", "response": "r", "stimulus-type": "congruent", "word": "red", "color": "red", "correct_response": "r", "trial_id": "stroop-trial-1-congruent-27", "trial_type": "html-keyboard-response", "trial_index": 66, "time_elapsed": 174196, "internal_node_id": "0.0-4.0-62.0"}}, {"uniqueid": "w69507088:a98732283", "current_trial": 67, "dateTime": 1664471061293, "trialdata": {"rt": 600, "stimulus": "<p id='stroop-text' class='stroop-yellow'>YELLOW</p>", "response": "y", "stimulus-type": "congruent", "word": "yellow", "color": "yellow", "correct_response": "y", "trial_id": "stroop-trial-1-congruent-25", "trial_type": "html-keyboard-response", "trial_index": 67, "time_elapsed": 175301, "internal_node_id": "0.0-4.0-63.0"}}, {"uniqueid": "w69507088:a98732283", "current_trial": 68, "dateTime": 1664471062711, "trialdata": {"rt": 913, "stimulus": "<p id='stroop-text' class='stroop-green'>RED</p>", "response": "g", "stimulus-type": "incongruent", "word": "red", "color": "green", "correct_response": "g", "trial_id": "stroop-trial-1-incongruent-17", "trial_type": "html-keyboard-response", "trial_index": 68, "time_elapsed": 176719, "internal_node_id": "0.0-4.0-64.0"}}, {"uniqueid": "w69507088:a98732283", "current_trial": 69, "dateTime": 1664471063818, "trialdata": {"rt": 600, "stimulus": "<p id='stroop-text' class='stroop-blue'>CHAIR</p>", "response": "b", "stimulus-type": "unrelated", "word": "CHAIR", "color": "blue", "correct_response": "b", "trial_id": "stroop-trial-1-unrelated-16", "trial_type": "html-keyboard-response", "trial_index": 69, "time_elapsed": 177825, "internal_node_id": "0.0-4.0-65.0"}}, {"uniqueid": "w69507088:a98732283", "current_trial": 70, "dateTime": 1664471064935, "trialdata": {"rt": 609, "stimulus": "<p id='stroop-text' class='stroop-red'>RED</p>", "response": "r", "stimulus-type": "congruent", "word": "red", "color": "red", "correct_response": "r", "trial_id": "stroop-trial-1-congruent-26", "trial_type": "html-keyboard-response", "trial_index": 70, "time_elapsed": 178943, "internal_node_id": "0.0-4.0-66.0"}}, {"uniqueid": "w69507088:a98732283", "current_trial": 71, "dateTime": 1664471066246, "trialdata": {"rt": 806, "stimulus": "<p id='stroop-text' class='stroop-red'>BOTTLE</p>", "response": "r", "stimulus-type": "unrelated", "word": "BOTTLE", "color": "red", "correct_response": "r", "trial_id": "stroop-trial-1-unrelated-21", "trial_type": "html-keyboard-response", "trial_index": 71, "time_elapsed": 180254, "internal_node_id": "0.0-4.0-67.0"}}, {"uniqueid": "w69507088:a98732283", "current_trial": 72, "dateTime": 1664471067348, "trialdata": {"rt": 595, "stimulus": "<p id='stroop-text' class='stroop-yellow'>YELLOW</p>", "response": "y", "stimulus-type": "congruent", "word": "yellow", "color": "yellow", "correct_response": "y", "trial_id": "stroop-trial-1-congruent-6", "trial_type": "html-keyboard-response", "trial_index": 72, "time_elapsed": 181355, "internal_node_id": "0.0-4.0-68.0"}}, {"uniqueid": "w69507088:a98732283", "current_trial": 73, "dateTime": 1664471068435, "trialdata": {"rt": 582, "stimulus": "<p id='stroop-text' class='stroop-green'>GREEN</p>", "response": "g", "stimulus-type": "congruent", "word": "green", "color": "green", "correct_response": "g", "trial_id": "stroop-trial-1-congruent-9", "trial_type": "html-keyboard-response", "trial_index": 73, "time_elapsed": 182443, "internal_node_id": "0.0-4.0-69.0"}}, {"uniqueid": "w69507088:a98732283", "current_trial": 74, "dateTime": 1664471070405, "trialdata": {"rt": 1465, "stimulus": "<p id='stroop-text' class='stroop-yellow'>BLUE</p>", "response": "y", "stimulus-type": "incongruent", "word": "blue", "color": "yellow", "correct_response": "y", "trial_id": "stroop-trial-1-incongruent-11", "trial_type": "html-keyboard-response", "trial_index": 74, "time_elapsed": 184413, "internal_node_id": "0.0-4.0-70.0"}}, {"uniqueid": "w69507088:a98732283", "current_trial": 75, "dateTime": 1664471071742, "trialdata": {"rt": 830, "stimulus": "<p id='stroop-text' class='stroop-green'>BOAT</p>", "response": "g", "stimulus-type": "unrelated", "word": "BOAT", "color": "green", "correct_response": "g", "trial_id": "stroop-trial-1-unrelated-28", "trial_type": "html-keyboard-response", "trial_index": 75, "time_elapsed": 185750, "internal_node_id": "0.0-4.0-71.0"}}, {"uniqueid": "w69507088:a98732283", "current_trial": 76, "dateTime": 1664471073076, "trialdata": {"rt": 829, "stimulus": "<p id='stroop-text' class='stroop-blue'>GREEN</p>", "response": "b", "stimulus-type": "incongruent", "word": "green", "color": "blue", "correct_response": "b", "trial_id": "stroop-trial-1-incongruent-26", "trial_type": "html-keyboard-response", "trial_index": 76, "time_elapsed": 187083, "internal_node_id": "0.0-4.0-72.0"}}, {"uniqueid": "w69507088:a98732283", "current_trial": 77, "dateTime": 1664471075355, "trialdata": {"rt": 1774, "stimulus": "<p id='stroop-text' class='stroop-green'>RED</p>", "response": "r", "stimulus-type": "incongruent", "word": "red", "color": "green", "correct_response": "g", "trial_id": "stroop-trial-1-incongruent-7", "trial_type": "html-keyboard-response", "trial_index": 77, "time_elapsed": 189363, "internal_node_id": "0.0-4.0-73.0"}}, {"uniqueid": "w69507088:a98732283", "current_trial": 78, "dateTime": 1664471077016, "trialdata": {"rt": 1155, "stimulus": "<p id='stroop-text' class='stroop-blue'>BLUE</p>", "response": "b", "stimulus-type": "congruent", "word": "blue", "color": "blue", "correct_response": "b", "trial_id": "stroop-trial-1-congruent-24", "trial_type": "html-keyboard-response", "trial_index": 78, "time_elapsed": 191024, "internal_node_id": "0.0-4.0-74.0"}}, {"uniqueid": "w69507088:a98732283", "current_trial": 79, "dateTime": 1664471078421, "trialdata": {"rt": 900, "stimulus": "<p id='stroop-text' class='stroop-yellow'>CHAIR</p>", "response": "y", "stimulus-type": "unrelated", "word": "CHAIR", "color": "yellow", "correct_response": "y", "trial_id": "stroop-trial-1-unrelated-13", "trial_type": "html-keyboard-response", "trial_index": 79, "time_elapsed": 192429, "internal_node_id": "0.0-4.0-75.0"}}, {"uniqueid": "w69507088:a98732283", "current_trial": 80, "dateTime": 1664471079695, "trialdata": {"rt": 767, "stimulus": "<p id='stroop-text' class='stroop-red'>BLUE</p>", "response": "r", "stimulus-type": "incongruent", "word": "blue", "color": "red", "correct_response": "r", "trial_id": "stroop-trial-1-incongruent-8", "trial_type": "html-keyboard-response", "trial_index": 80, "time_elapsed": 193702, "internal_node_id": "0.0-4.0-76.0"}}, {"uniqueid": "w69507088:a98732283", "current_trial": 81, "dateTime": 1664471080700, "trialdata": {"rt": 500, "stimulus": "<p id='stroop-text' class='stroop-red'>RED</p>", "response": "r", "stimulus-type": "congruent", "word": "red", "color": "red", "correct_response": "r", "trial_id": "stroop-trial-1-congruent-30", "trial_type": "html-keyboard-response", "trial_index": 81, "time_elapsed": 194708, "internal_node_id": "0.0-4.0-77.0"}}, {"uniqueid": "w69507088:a98732283", "current_trial": 82, "dateTime": 1664471081591, "trialdata": {"rt": 385, "stimulus": "<p id='stroop-text' class='stroop-red'>RED</p>", "response": "r", "stimulus-type": "congruent", "word": "red", "color": "red", "correct_response": "r", "trial_id": "stroop-trial-1-congruent-13", "trial_type": "html-keyboard-response", "trial_index": 82, "time_elapsed": 195598, "internal_node_id": "0.0-4.0-78.0"}}, {"uniqueid": "w69507088:a98732283", "current_trial": 83, "dateTime": 1664471082800, "trialdata": {"rt": 702, "stimulus": "<p id='stroop-text' class='stroop-yellow'>GREEN</p>", "response": "y", "stimulus-type": "incongruent", "word": "green", "color": "yellow", "correct_response": "y", "trial_id": "stroop-trial-1-incongruent-4", "trial_type": "html-keyboard-response", "trial_index": 83, "time_elapsed": 196807, "internal_node_id": "0.0-4.0-79.0"}}, {"uniqueid": "w69507088:a98732283", "current_trial": 84, "dateTime": 1664471084059, "trialdata": {"rt": 754, "stimulus": "<p id='stroop-text' class='stroop-blue'>WINDOW</p>", "response": "b", "stimulus-type": "unrelated", "word": "WINDOW", "color": "blue", "correct_response": "b", "trial_id": "stroop-trial-1-unrelated-8", "trial_type": "html-keyboard-response", "trial_index": 84, "time_elapsed": 198066, "internal_node_id": "0.0-4.0-80.0"}}, {"uniqueid": "w69507088:a98732283", "current_trial": 85, "dateTime": 1664471085297, "trialdata": {"rt": 733, "stimulus": "<p id='stroop-text' class='stroop-yellow'>GREEN</p>", "response": "g", "stimulus-type": "incongruent", "word": "green", "color": "yellow", "correct_response": "y", "trial_id": "stroop-trial-1-incongruent-27", "trial_type": "html-keyboard-response", "trial_index": 85, "time_elapsed": 199305, "internal_node_id": "0.0-4.0-81.0"}}, {"uniqueid": "w69507088:a98732283", "current_trial": 86, "dateTime": 1664471086473, "trialdata": {"rt": 670, "stimulus": "<p id='stroop-text' class='stroop-red'>RED</p>", "response": "r", "stimulus-type": "congruent", "word": "red", "color": "red", "correct_response": "r", "trial_id": "stroop-trial-1-congruent-21", "trial_type": "html-keyboard-response", "trial_index": 86, "time_elapsed": 200480, "internal_node_id": "0.0-4.0-82.0"}}, {"uniqueid": "w69507088:a98732283", "current_trial": 87, "dateTime": 1664471087500, "trialdata": {"rt": 522, "stimulus": "<p id='stroop-text' class='stroop-red'>BOTTLE</p>", "response": "r", "stimulus-type": "unrelated", "word": "BOTTLE", "color": "red", "correct_response": "r", "trial_id": "stroop-trial-1-unrelated-2", "trial_type": "html-keyboard-response", "trial_index": 87, "time_elapsed": 201508, "internal_node_id": "0.0-4.0-83.0"}}, {"uniqueid": "w69507088:a98732283", "current_trial": 88, "dateTime": 1664471088584, "trialdata": {"rt": 577, "stimulus": "<p id='stroop-text' class='stroop-green'>GREEN</p>", "response": "g", "stimulus-type": "congruent", "word": "green", "color": "green", "correct_response": "g", "trial_id": "stroop-trial-1-congruent-11", "trial_type": "html-keyboard-response", "trial_index": 88, "time_elapsed": 202591, "internal_node_id": "0.0-4.0-84.0"}}, {"uniqueid": "w69507088:a98732283", "current_trial": 89, "dateTime": 1664471089627, "trialdata": {"rt": 538, "stimulus": "<p id='stroop-text' class='stroop-green'>GREEN</p>", "response": "g", "stimulus-type": "congruent", "word": "green", "color": "green", "correct_response": "g", "trial_id": "stroop-trial-1-congruent-14", "trial_type": "html-keyboard-response", "trial_index": 89, "time_elapsed": 203634, "internal_node_id": "0.0-4.0-85.0"}}, {"uniqueid": "w69507088:a98732283", "current_trial": 90, "dateTime": 1664471091209, "trialdata": {"rt": 1076, "stimulus": "<p id='stroop-text' class='stroop-yellow'>BLUE</p>", "response": "b", "stimulus-type": "incongruent", "word": "blue", "color": "yellow", "correct_response": "y", "trial_id": "stroop-trial-1-incongruent-18", "trial_type": "html-keyboard-response", "trial_index": 90, "time_elapsed": 205216, "internal_node_id": "0.0-4.0-86.0"}}, {"uniqueid": "w69507088:a98732283", "current_trial": 91, "dateTime": 1664471092512, "trialdata": {"rt": 796, "stimulus": "<p id='stroop-text' class='stroop-green'>GREEN</p>", "response": "g", "stimulus-type": "congruent", "word": "green", "color": "green", "correct_response": "g", "trial_id": "stroop-trial-1-congruent-19", "trial_type": "html-keyboard-response", "trial_index": 91, "time_elapsed": 206520, "internal_node_id": "0.0-4.0-87.0"}}, {"uniqueid": "w69507088:a98732283", "current_trial": 92, "dateTime": 1664471093453, "trialdata": {"rt": 435, "stimulus": "<p id='stroop-text' class='stroop-yellow'>YELLOW</p>", "response": "y", "stimulus-type": "congruent", "word": "yellow", "color": "yellow", "correct_response": "y", "trial_id": "stroop-trial-1-congruent-28", "trial_type": "html-keyboard-response", "trial_index": 92, "time_elapsed": 207460, "internal_node_id": "0.0-4.0-88.0"}}, {"uniqueid": "w69507088:a98732283", "current_trial": 93, "dateTime": 1664471094668, "trialdata": {"rt": 708, "stimulus": "<p id='stroop-text' class='stroop-green'>YELLOW</p>", "response": "g", "stimulus-type": "incongruent", "word": "yellow", "color": "green", "correct_response": "g", "trial_id": "stroop-trial-1-incongruent-10", "trial_type": "html-keyboard-response", "trial_index": 93, "time_elapsed": 208676, "internal_node_id": "0.0-4.0-89.0"}}, {"uniqueid": "w69507088:a98732283", "current_trial": 94, "dateTime": 1664471102558, "trialdata": {"rt": 7382, "stimulus": "  <h1> End of block! </h1>\n\n  You have reached the end of the block 1/5. If you need a short break, feel free to take one now before moving on.\n\n  <br><br>\n  In the next block, you will complete another 90 rounds of this game.\n\n  <br><br>\n  <div style='text-align: center;'>Press <code>space</code> to begin.</div>\n  <br><br>\n<div style='text-align: center;'>(If the experiment doesn't continue, try clicking on the text and then pressing <code>space</code>.)</div>", "response": " ", "trial_id": "stroop_1_ready_2", "trial_type": "html-keyboard-response", "trial_index": 94, "time_elapsed": 216566, "internal_node_id": "0.0-5.0"}}, {"uniqueid": "w69507088:a98732283", "current_trial": 95, "dateTime": 1664471103415, "trialdata": {"rt": 855, "stimulus": "<p id='stroop-text' class='stroop-yellow'>YELLOW</p>", "response": "y", "stimulus-type": "congruent", "word": "yellow", "color": "yellow", "correct_response": "y", "trial_id": "stroop-trial-1-congruent-10", "trial_type": "html-keyboard-response", "trial_index": 95, "time_elapsed": 217423, "internal_node_id": "0.0-6.0-0.0"}}, {"uniqueid": "w69507088:a98732283", "current_trial": 96, "dateTime": 1664471104576, "trialdata": {"rt": 656, "stimulus": "<p id='stroop-text' class='stroop-red'>BRIDGE</p>", "response": "r", "stimulus-type": "unrelated", "word": "BRIDGE", "color": "red", "correct_response": "r", "trial_id": "stroop-trial-1-unrelated-10", "trial_type": "html-keyboard-response", "trial_index": 96, "time_elapsed": 218584, "internal_node_id": "0.0-6.0-1.0"}}, {"uniqueid": "w69507088:a98732283", "current_trial": 97, "dateTime": 1664471105790, "trialdata": {"rt": 708, "stimulus": "<p id='stroop-text' class='stroop-blue'>SHIP</p>", "response": "b", "stimulus-type": "unrelated", "word": "SHIP", "color": "blue", "correct_response": "b", "trial_id": "stroop-trial-1-unrelated-21", "trial_type": "html-keyboard-response", "trial_index": 97, "time_elapsed": 219797, "internal_node_id": "0.0-6.0-2.0"}}, {"uniqueid": "w69507088:a98732283", "current_trial": 98, "dateTime": 1664471106863, "trialdata": {"rt": 568, "stimulus": "<p id='stroop-text' class='stroop-green'>GREEN</p>", "response": "g", "stimulus-type": "congruent", "word": "green", "color": "green", "correct_response": "g", "trial_id": "stroop-trial-1-congruent-29", "trial_type": "html-keyboard-response", "trial_index": 98, "time_elapsed": 220871, "internal_node_id": "0.0-6.0-3.0"}}, {"uniqueid": "w69507088:a98732283", "current_trial": 99, "dateTime": 1664471108013, "trialdata": {"rt": 645, "stimulus": "<p id='stroop-text' class='stroop-red'>WINDOW</p>", "response": "r", "stimulus-type": "unrelated", "word": "WINDOW", "color": "red", "correct_response": "r", "trial_id": "stroop-trial-1-unrelated-18", "trial_type": "html-keyboard-response", "trial_index": 99, "time_elapsed": 222021, "internal_node_id": "0.0-6.0-4.0"}}, {"uniqueid": "w69507088:a98732283", "current_trial": 100, "dateTime": 1664471109413, "trialdata": {"rt": 892, "stimulus": "<p id='stroop-text' class='stroop-blue'>SHIP</p>", "response": "b", "stimulus-type": "unrelated", "word": "SHIP", "color": "blue", "correct_response": "b", "trial_id": "stroop-trial-1-unrelated-9", "trial_type": "html-keyboard-response", "trial_index": 100, "time_elapsed": 223420, "internal_node_id": "0.0-6.0-5.0"}}, {"uniqueid": "w69507088:a98732283", "current_trial": 101, "dateTime": 1664471110685, "trialdata": {"rt": 767, "stimulus": "<p id='stroop-text' class='stroop-red'>YELLOW</p>", "response": "r", "stimulus-type": "incongruent", "word": "yellow", "color": "red", "correct_response": "r", "trial_id": "stroop-trial-1-incongruent-4", "trial_type": "html-keyboard-response", "trial_index": 101, "time_elapsed": 224692, "internal_node_id": "0.0-6.0-6.0"}}, {"uniqueid": "w69507088:a98732283", "current_trial": 102, "dateTime": 1664471111714, "trialdata": {"rt": 521, "stimulus": "<p id='stroop-text' class='stroop-blue'>BLUE</p>", "response": "b", "stimulus-type": "congruent", "word": "blue", "color": "blue", "correct_response": "b", "trial_id": "stroop-trial-1-congruent-15", "trial_type": "html-keyboard-response", "trial_index": 102, "time_elapsed": 225722, "internal_node_id": "0.0-6.0-7.0"}}, {"uniqueid": "w69507088:a98732283", "current_trial": 103, "dateTime": 1664471112813, "trialdata": {"rt": 587, "stimulus": "<p id='stroop-text' class='stroop-red'>YELLOW</p>", "response": "y", "stimulus-type": "incongruent", "word": "yellow", "color": "red", "correct_response": "r", "trial_id": "stroop-trial-1-incongruent-21", "trial_type": "html-keyboard-response", "trial_index": 103, "time_elapsed": 226821, "internal_node_id": "0.0-6.0-8.0"}}, {"uniqueid": "w69507088:a98732283", "current_trial": 104, "dateTime": 1664471114044, "trialdata": {"rt": 724, "stimulus": "<p id='stroop-text' class='stroop-yellow'>BLUE</p>", "response": "y", "stimulus-type": "incongruent", "word": "blue", "color": "yellow", "correct_response": "y", "trial_id": "stroop-trial-1-incongruent-13", "trial_type": "html-keyboard-response", "trial_index": 104, "time_elapsed": 228051, "internal_node_id": "0.0-6.0-9.0"}}, {"uniqueid": "w69507088:a98732283", "current_trial": 105, "dateTime": 1664471115156, "trialdata": {"rt": 607, "stimulus": "<p id='stroop-text' class='stroop-green'>BLUE</p>", "response": "g", "stimulus-type": "incongruent", "word": "blue", "color": "green", "correct_response": "g", "trial_id": "stroop-trial-1-incongruent-5", "trial_type": "html-keyboard-response", "trial_index": 105, "time_elapsed": 229163, "internal_node_id": "0.0-6.0-10.0"}}, {"uniqueid": "w69507088:a98732283", "current_trial": 106, "dateTime": 1664471116240, "trialdata": {"rt": 579, "stimulus": "<p id='stroop-text' class='stroop-blue'>STONE</p>", "response": "b", "stimulus-type": "unrelated", "word": "STONE", "color": "blue", "correct_response": "b", "trial_id": "stroop-trial-1-unrelated-2", "trial_type": "html-keyboard-response", "trial_index": 106, "time_elapsed": 230247, "internal_node_id": "0.0-6.0-11.0"}}, {"uniqueid": "w69507088:a98732283", "current_trial": 107, "dateTime": 1664471117547, "trialdata": {"rt": 799, "stimulus": "<p id='stroop-text' class='stroop-green'>BRIDGE</p>", "response": "g", "stimulus-type": "unrelated", "word": "BRIDGE", "color": "green", "correct_response": "g", "trial_id": "stroop-trial-1-unrelated-11", "trial_type": "html-keyboard-response", "trial_index": 107, "time_elapsed": 231555, "internal_node_id": "0.0-6.0-12.0"}}, {"uniqueid": "w69507088:a98732283", "current_trial": 108, "dateTime": 1664471118741, "trialdata": {"rt": 689, "stimulus": "<p id='stroop-text' class='stroop-yellow'>BOTTLE</p>", "response": "y", "stimulus-type": "unrelated", "word": "BOTTLE", "color": "yellow", "correct_response": "y", "trial_id": "stroop-trial-1-unrelated-20", "trial_type": "html-keyboard-response", "trial_index": 108, "time_elapsed": 232749, "internal_node_id": "0.0-6.0-13.0"}}, {"uniqueid": "w69507088:a98732283", "current_trial": 109, "dateTime": 1664471119799, "trialdata": {"rt": 552, "stimulus": "<p id='stroop-text' class='stroop-yellow'>FORK</p>", "response": "y", "stimulus-type": "unrelated", "word": "FORK", "color": "yellow", "correct_response": "y", "trial_id": "stroop-trial-1-unrelated-4", "trial_type": "html-keyboard-response", "trial_index": 109, "time_elapsed": 233807, "internal_node_id": "0.0-6.0-14.0"}}, {"uniqueid": "w69507088:a98732283", "current_trial": 110, "dateTime": 1664471120800, "trialdata": {"rt": 496, "stimulus": "<p id='stroop-text' class='stroop-red'>GREEN</p>", "response": "r", "stimulus-type": "incongruent", "word": "green", "color": "red", "correct_response": "r", "trial_id": "stroop-trial-1-incongruent-26", "trial_type": "html-keyboard-response", "trial_index": 110, "time_elapsed": 234808, "internal_node_id": "0.0-6.0-15.0"}}, {"uniqueid": "w69507088:a98732283", "current_trial": 111, "dateTime": 1664471121915, "trialdata": {"rt": 609, "stimulus": "<p id='stroop-text' class='stroop-green'>GREEN</p>", "response": "g", "stimulus-type": "congruent", "word": "green", "color": "green", "correct_response": "g", "trial_id": "stroop-trial-1-congruent-16", "trial_type": "html-keyboard-response", "trial_index": 111, "time_elapsed": 235923, "internal_node_id": "0.0-6.0-16.0"}}, {"uniqueid": "w69507088:a98732283", "current_trial": 112, "dateTime": 1664471122943, "trialdata": {"rt": 519, "stimulus": "<p id='stroop-text' class='stroop-yellow'>YELLOW</p>", "response": "y", "stimulus-type": "congruent", "word": "yellow", "color": "yellow", "correct_response": "y", "trial_id": "stroop-trial-1-congruent-25", "trial_type": "html-keyboard-response", "trial_index": 112, "time_elapsed": 236950, "internal_node_id": "0.0-6.0-17.0"}}, {"uniqueid": "w69507088:a98732283", "current_trial": 113, "dateTime": 1664471124074, "trialdata": {"rt": 625, "stimulus": "<p id='stroop-text' class='stroop-blue'>GREEN</p>", "response": "g", "stimulus-type": "incongruent", "word": "green", "color": "blue", "correct_response": "b", "trial_id": "stroop-trial-1-incongruent-2", "trial_type": "html-keyboard-response", "trial_index": 113, "time_elapsed": 238081, "internal_node_id": "0.0-6.0-18.0"}}, {"uniqueid": "w69507088:a98732283", "current_trial": 114, "dateTime": 1664471125110, "trialdata": {"rt": 528, "stimulus": "<p id='stroop-text' class='stroop-yellow'>YELLOW</p>", "response": "y", "stimulus-type": "congruent", "word": "yellow", "color": "yellow", "correct_response": "y", "trial_id": "stroop-trial-1-congruent-3", "trial_type": "html-keyboard-response", "trial_index": 114, "time_elapsed": 239117, "internal_node_id": "0.0-6.0-19.0"}}, {"uniqueid": "w69507088:a98732283", "current_trial": 115, "dateTime": 1664471126654, "trialdata": {"rt": 1038, "stimulus": "<p id='stroop-text' class='stroop-green'>SHIP</p>", "response": "g", "stimulus-type": "unrelated", "word": "SHIP", "color": "green", "correct_response": "g", "trial_id": "stroop-trial-1-unrelated-23", "trial_type": "html-keyboard-response", "trial_index": 115, "time_elapsed": 240661, "internal_node_id": "0.0-6.0-20.0"}}, {"uniqueid": "w69507088:a98732283", "current_trial": 116, "dateTime": 1664471127588, "trialdata": {"rt": 428, "stimulus": "<p id='stroop-text' class='stroop-green'>CHAIR</p>", "response": "g", "stimulus-type": "unrelated", "word": "CHAIR", "color": "green", "correct_response": "g", "trial_id": "stroop-trial-1-unrelated-28", "trial_type": "html-keyboard-response", "trial_index": 116, "time_elapsed": 241595, "internal_node_id": "0.0-6.0-21.0"}}, {"uniqueid": "w69507088:a98732283", "current_trial": 117, "dateTime": 1664471128559, "trialdata": {"rt": 466, "stimulus": "<p id='stroop-text' class='stroop-green'>GREEN</p>", "response": "g", "stimulus-type": "congruent", "word": "green", "color": "green", "correct_response": "g", "trial_id": "stroop-trial-1-congruent-6", "trial_type": "html-keyboard-response", "trial_index": 117, "time_elapsed": 242566, "internal_node_id": "0.0-6.0-22.0"}}, {"uniqueid": "w69507088:a98732283", "current_trial": 118, "dateTime": 1664471129539, "trialdata": {"rt": 474, "stimulus": "<p id='stroop-text' class='stroop-yellow'>BLUE</p>", "response": "y", "stimulus-type": "incongruent", "word": "blue", "color": "yellow", "correct_response": "y", "trial_id": "stroop-trial-1-incongruent-16", "trial_type": "html-keyboard-response", "trial_index": 118, "time_elapsed": 243547, "internal_node_id": "0.0-6.0-23.0"}}, {"uniqueid": "w69507088:a98732283", "current_trial": 119, "dateTime": 1664471130618, "trialdata": {"rt": 574, "stimulus": "<p id='stroop-text' class='stroop-green'>BOAT</p>", "response": "g", "stimulus-type": "unrelated", "word": "BOAT", "color": "green", "correct_response": "g", "trial_id": "stroop-trial-1-unrelated-19", "trial_type": "html-keyboard-response", "trial_index": 119, "time_elapsed": 244625, "internal_node_id": "0.0-6.0-24.0"}}, {"uniqueid": "w69507088:a98732283", "current_trial": 120, "dateTime": 1664471131708, "trialdata": {"rt": 584, "stimulus": "<p id='stroop-text' class='stroop-green'>CHAIR</p>", "response": "g", "stimulus-type": "unrelated", "word": "CHAIR", "color": "green", "correct_response": "g", "trial_id": "stroop-trial-1-unrelated-26", "trial_type": "html-keyboard-response", "trial_index": 120, "time_elapsed": 245715, "internal_node_id": "0.0-6.0-25.0"}}, {"uniqueid": "w69507088:a98732283", "current_trial": 121, "dateTime": 1664471132910, "trialdata": {"rt": 694, "stimulus": "<p id='stroop-text' class='stroop-blue'>RED</p>", "response": "b", "stimulus-type": "incongruent", "word": "red", "color": "blue", "correct_response": "b", "trial_id": "stroop-trial-1-incongruent-24", "trial_type": "html-keyboard-response", "trial_index": 121, "time_elapsed": 246918, "internal_node_id": "0.0-6.0-26.0"}}, {"uniqueid": "w69507088:a98732283", "current_trial": 122, "dateTime": 1664471134119, "trialdata": {"rt": 702, "stimulus": "<p id='stroop-text' class='stroop-green'>BRIDGE</p>", "response": "g", "stimulus-type": "unrelated", "word": "BRIDGE", "color": "green", "correct_response": "g", "trial_id": "stroop-trial-1-unrelated-13", "trial_type": "html-keyboard-response", "trial_index": 122, "time_elapsed": 248126, "internal_node_id": "0.0-6.0-27.0"}}, {"uniqueid": "w69507088:a98732283", "current_trial": 123, "dateTime": 1664471135165, "trialdata": {"rt": 541, "stimulus": "<p id='stroop-text' class='stroop-red'>BRAIN</p>", "response": "r", "stimulus-type": "unrelated", "word": "BRAIN", "color": "red", "correct_response": "r", "trial_id": "stroop-trial-1-unrelated-24", "trial_type": "html-keyboard-response", "trial_index": 123, "time_elapsed": 249173, "internal_node_id": "0.0-6.0-28.0"}}, {"uniqueid": "w69507088:a98732283", "current_trial": 124, "dateTime": 1664471136400, "trialdata": {"rt": 728, "stimulus": "<p id='stroop-text' class='stroop-yellow'>RED</p>", "response": "y", "stimulus-type": "incongruent", "word": "red", "color": "yellow", "correct_response": "y", "trial_id": "stroop-trial-1-incongruent-11", "trial_type": "html-keyboard-response", "trial_index": 124, "time_elapsed": 250407, "internal_node_id": "0.0-6.0-29.0"}}, {"uniqueid": "w69507088:a98732283", "current_trial": 125, "dateTime": 1664471137689, "trialdata": {"rt": 781, "stimulus": "<p id='stroop-text' class='stroop-green'>STONE</p>", "response": "g", "stimulus-type": "unrelated", "word": "STONE", "color": "green", "correct_response": "g", "trial_id": "stroop-trial-1-unrelated-14", "trial_type": "html-keyboard-response", "trial_index": 125, "time_elapsed": 251696, "internal_node_id": "0.0-6.0-30.0"}}, {"uniqueid": "w69507088:a98732283", "current_trial": 126, "dateTime": 1664471138714, "trialdata": {"rt": 520, "stimulus": "<p id='stroop-text' class='stroop-green'>BOAT</p>", "response": "g", "stimulus-type": "unrelated", "word": "BOAT", "color": "green", "correct_response": "g", "trial_id": "stroop-trial-1-unrelated-8", "trial_type": "html-keyboard-response", "trial_index": 126, "time_elapsed": 252721, "internal_node_id": "0.0-6.0-31.0"}}, {"uniqueid": "w69507088:a98732283", "current_trial": 127, "dateTime": 1664471140492, "trialdata": {"rt": 1271, "stimulus": "<p id='stroop-text' class='stroop-yellow'>GREEN</p>", "response": "y", "stimulus-type": "incongruent", "word": "green", "color": "yellow", "correct_response": "y", "trial_id": "stroop-trial-1-incongruent-15", "trial_type": "html-keyboard-response", "trial_index": 127, "time_elapsed": 254499, "internal_node_id": "0.0-6.0-32.0"}}, {"uniqueid": "w69507088:a98732283", "current_trial": 128, "dateTime": 1664471141573, "trialdata": {"rt": 575, "stimulus": "<p id='stroop-text' class='stroop-green'>GREEN</p>", "response": "g", "stimulus-type": "congruent", "word": "green", "color": "green", "correct_response": "g", "trial_id": "stroop-trial-1-congruent-18", "trial_type": "html-keyboard-response", "trial_index": 128, "time_elapsed": 255580, "internal_node_id": "0.0-6.0-33.0"}}, {"uniqueid": "w69507088:a98732283", "current_trial": 129, "dateTime": 1664471142569, "trialdata": {"rt": 489, "stimulus": "<p id='stroop-text' class='stroop-red'>DOG</p>", "response": "r", "stimulus-type": "unrelated", "word": "DOG", "color": "red", "correct_response": "r", "trial_id": "stroop-trial-1-unrelated-22", "trial_type": "html-keyboard-response", "trial_index": 129, "time_elapsed": 256577, "internal_node_id": "0.0-6.0-34.0"}}, {"uniqueid": "w69507088:a98732283", "current_trial": 130, "dateTime": 1664471143723, "trialdata": {"rt": 648, "stimulus": "<p id='stroop-text' class='stroop-red'>GREEN</p>", "response": "r", "stimulus-type": "incongruent", "word": "green", "color": "red", "correct_response": "r", "trial_id": "stroop-trial-1-incongruent-14", "trial_type": "html-keyboard-response", "trial_index": 130, "time_elapsed": 257730, "internal_node_id": "0.0-6.0-35.0"}}, {"uniqueid": "w69507088:a98732283", "current_trial": 131, "dateTime": 1664471145120, "trialdata": {"rt": 889, "stimulus": "<p id='stroop-text' class='stroop-green'>BLUE</p>", "response": "g", "stimulus-type": "incongruent", "word": "blue", "color": "green", "correct_response": "g", "trial_id": "stroop-trial-1-incongruent-29", "trial_type": "html-keyboard-response", "trial_index": 131, "time_elapsed": 259127, "internal_node_id": "0.0-6.0-36.0"}}, {"uniqueid": "w69507088:a98732283", "current_trial": 132, "dateTime": 1664471146230, "trialdata": {"rt": 604, "stimulus": "<p id='stroop-text' class='stroop-red'>RED</p>", "response": "r", "stimulus-type": "congruent", "word": "red", "color": "red", "correct_response": "r", "trial_id": "stroop-trial-1-congruent-22", "trial_type": "html-keyboard-response", "trial_index": 132, "time_elapsed": 260237, "internal_node_id": "0.0-6.0-37.0"}}, {"uniqueid": "w69507088:a98732283", "current_trial": 133, "dateTime": 1664471147412, "trialdata": {"rt": 675, "stimulus": "<p id='stroop-text' class='stroop-blue'>DOG</p>", "response": "b", "stimulus-type": "unrelated", "word": "DOG", "color": "blue", "correct_response": "b", "trial_id": "stroop-trial-1-unrelated-29", "trial_type": "html-keyboard-response", "trial_index": 133, "time_elapsed": 261420, "internal_node_id": "0.0-6.0-38.0"}}, {"uniqueid": "w69507088:a98732283", "current_trial": 134, "dateTime": 1664471148831, "trialdata": {"rt": 914, "stimulus": "<p id='stroop-text' class='stroop-green'>BOTTLE</p>", "response": "g", "stimulus-type": "unrelated", "word": "BOTTLE", "color": "green", "correct_response": "g", "trial_id": "stroop-trial-1-unrelated-7", "trial_type": "html-keyboard-response", "trial_index": 134, "time_elapsed": 262839, "internal_node_id": "0.0-6.0-39.0"}}, {"uniqueid": "w69507088:a98732283", "current_trial": 135, "dateTime": 1664471149682, "trialdata": {"rt": 342, "stimulus": "<p id='stroop-text' class='stroop-yellow'>DOG</p>", "response": "y", "stimulus-type": "unrelated", "word": "DOG", "color": "yellow", "correct_response": "y", "trial_id": "stroop-trial-1-unrelated-16", "trial_type": "html-keyboard-response", "trial_index": 135, "time_elapsed": 263690, "internal_node_id": "0.0-6.0-40.0"}}, {"uniqueid": "w69507088:a98732283", "current_trial": 136, "dateTime": 1664471150668, "trialdata": {"rt": 481, "stimulus": "<p id='stroop-text' class='stroop-green'>GREEN</p>", "response": "y", "stimulus-type": "congruent", "word": "green", "color": "green", "correct_response": "g", "trial_id": "stroop-trial-1-congruent-8", "trial_type": "html-keyboard-response", "trial_index": 136, "time_elapsed": 264675, "internal_node_id": "0.0-6.0-41.0"}}, {"uniqueid": "w69507088:a98732283", "current_trial": 137, "dateTime": 1664471151759, "trialdata": {"rt": 583, "stimulus": "<p id='stroop-text' class='stroop-yellow'>BOAT</p>", "response": "y", "stimulus-type": "unrelated", "word": "BOAT", "color": "yellow", "correct_response": "y", "trial_id": "stroop-trial-1-unrelated-27", "trial_type": "html-keyboard-response", "trial_index": 137, "time_elapsed": 265767, "internal_node_id": "0.0-6.0-42.0"}}, {"uniqueid": "w69507088:a98732283", "current_trial": 138, "dateTime": 1664471152726, "trialdata": {"rt": 461, "stimulus": "<p id='stroop-text' class='stroop-yellow'>WINDOW</p>", "response": "y", "stimulus-type": "unrelated", "word": "WINDOW", "color": "yellow", "correct_response": "y", "trial_id": "stroop-trial-1-unrelated-12", "trial_type": "html-keyboard-response", "trial_index": 138, "time_elapsed": 266734, "internal_node_id": "0.0-6.0-43.0"}}, {"uniqueid": "w69507088:a98732283", "current_trial": 139, "dateTime": 1664471153813, "trialdata": {"rt": 578, "stimulus": "<p id='stroop-text' class='stroop-blue'>CHAIR</p>", "response": "b", "stimulus-type": "unrelated", "word": "CHAIR", "color": "blue", "correct_response": "b", "trial_id": "stroop-trial-1-unrelated-15", "trial_type": "html-keyboard-response", "trial_index": 139, "time_elapsed": 267820, "internal_node_id": "0.0-6.0-44.0"}}, {"uniqueid": "w69507088:a98732283", "current_trial": 140, "dateTime": 1664471154877, "trialdata": {"rt": 559, "stimulus": "<p id='stroop-text' class='stroop-red'>RED</p>", "response": "r", "stimulus-type": "congruent", "word": "red", "color": "red", "correct_response": "r", "trial_id": "stroop-trial-1-congruent-17", "trial_type": "html-keyboard-response", "trial_index": 140, "time_elapsed": 268885, "internal_node_id": "0.0-6.0-45.0"}}, {"uniqueid": "w69507088:a98732283", "current_trial": 141, "dateTime": 1664471155987, "trialdata": {"rt": 588, "stimulus": "<p id='stroop-text' class='stroop-yellow'>YELLOW</p>", "response": "y", "stimulus-type": "congruent", "word": "yellow", "color": "yellow", "correct_response": "y", "trial_id": "stroop-trial-1-congruent-9", "trial_type": "html-keyboard-response", "trial_index": 141, "time_elapsed": 269994, "internal_node_id": "0.0-6.0-46.0"}}, {"uniqueid": "w69507088:a98732283", "current_trial": 142, "dateTime": 1664471157108, "trialdata": {"rt": 602, "stimulus": "<p id='stroop-text' class='stroop-green'>GREEN</p>", "response": "g", "stimulus-type": "congruent", "word": "green", "color": "green", "correct_response": "g", "trial_id": "stroop-trial-1-congruent-14", "trial_type": "html-keyboard-response", "trial_index": 142, "time_elapsed": 271115, "internal_node_id": "0.0-6.0-47.0"}}, {"uniqueid": "w69507088:a98732283", "current_trial": 143, "dateTime": 1664471158384, "trialdata": {"rt": 767, "stimulus": "<p id='stroop-text' class='stroop-blue'>RED</p>", "response": "b", "stimulus-type": "incongruent", "word": "red", "color": "blue", "correct_response": "b", "trial_id": "stroop-trial-1-incongruent-17", "trial_type": "html-keyboard-response", "trial_index": 143, "time_elapsed": 272392, "internal_node_id": "0.0-6.0-48.0"}}, {"uniqueid": "w69507088:a98732283", "current_trial": 144, "dateTime": 1664471159375, "trialdata": {"rt": 486, "stimulus": "<p id='stroop-text' class='stroop-green'>GREEN</p>", "response": "g", "stimulus-type": "congruent", "word": "green", "color": "green", "correct_response": "g", "trial_id": "stroop-trial-1-congruent-12", "trial_type": "html-keyboard-response", "trial_index": 144, "time_elapsed": 273383, "internal_node_id": "0.0-6.0-49.0"}}, {"uniqueid": "w69507088:a98732283", "current_trial": 145, "dateTime": 1664471160242, "trialdata": {"rt": 359, "stimulus": "<p id='stroop-text' class='stroop-blue'>GREEN</p>", "response": "b", "stimulus-type": "incongruent", "word": "green", "color": "blue", "correct_response": "b", "trial_id": "stroop-trial-1-incongruent-23", "trial_type": "html-keyboard-response", "trial_index": 145, "time_elapsed": 274249, "internal_node_id": "0.0-6.0-50.0"}}, {"uniqueid": "w69507088:a98732283", "current_trial": 146, "dateTime": 1664471161192, "trialdata": {"rt": 444, "stimulus": "<p id='stroop-text' class='stroop-green'>RED</p>", "response": "g", "stimulus-type": "incongruent", "word": "red", "color": "green", "correct_response": "g", "trial_id": "stroop-trial-1-incongruent-19", "trial_type": "html-keyboard-response", "trial_index": 146, "time_elapsed": 275199, "internal_node_id": "0.0-6.0-51.0"}}, {"uniqueid": "w69507088:a98732283", "current_trial": 147, "dateTime": 1664471162153, "trialdata": {"rt": 455, "stimulus": "<p id='stroop-text' class='stroop-blue'>STONE</p>", "response": "b", "stimulus-type": "unrelated", "word": "STONE", "color": "blue", "correct_response": "b", "trial_id": "stroop-trial-1-unrelated-5", "trial_type": "html-keyboard-response", "trial_index": 147, "time_elapsed": 276161, "internal_node_id": "0.0-6.0-52.0"}}, {"uniqueid": "w69507088:a98732283", "current_trial": 148, "dateTime": 1664471163142, "trialdata": {"rt": 482, "stimulus": "<p id='stroop-text' class='stroop-red'>BLUE</p>", "response": "r", "stimulus-type": "incongruent", "word": "blue", "color": "red", "correct_response": "r", "trial_id": "stroop-trial-1-incongruent-18", "trial_type": "html-keyboard-response", "trial_index": 148, "time_elapsed": 277150, "internal_node_id": "0.0-6.0-53.0"}}, {"uniqueid": "w69507088:a98732283", "current_trial": 149, "dateTime": 1664471164763, "trialdata": {"rt": 1115, "stimulus": "<p id='stroop-text' class='stroop-blue'>BLUE</p>", "response": "b", "stimulus-type": "congruent", "word": "blue", "color": "blue", "correct_response": "b", "trial_id": "stroop-trial-1-congruent-20", "trial_type": "html-keyboard-response", "trial_index": 149, "time_elapsed": 278770, "internal_node_id": "0.0-6.0-54.0"}}, {"uniqueid": "w69507088:a98732283", "current_trial": 150, "dateTime": 1664471165792, "trialdata": {"rt": 523, "stimulus": "<p id='stroop-text' class='stroop-yellow'>YELLOW</p>", "response": "y", "stimulus-type": "congruent", "word": "yellow", "color": "yellow", "correct_response": "y", "trial_id": "stroop-trial-1-congruent-1", "trial_type": "html-keyboard-response", "trial_index": 150, "time_elapsed": 279799, "internal_node_id": "0.0-6.0-55.0"}}, {"uniqueid": "w69507088:a98732283", "current_trial": 151, "dateTime": 1664471166775, "trialdata": {"rt": 476, "stimulus": "<p id='stroop-text' class='stroop-yellow'>YELLOW</p>", "response": "y", "stimulus-type": "congruent", "word": "yellow", "color": "yellow", "correct_response": "y", "trial_id": "stroop-trial-1-congruent-21", "trial_type": "html-keyboard-response", "trial_index": 151, "time_elapsed": 280782, "internal_node_id": "0.0-6.0-56.0"}}, {"uniqueid": "w69507088:a98732283", "current_trial": 152, "dateTime": 1664471168150, "trialdata": {"rt": 869, "stimulus": "<p id='stroop-text' class='stroop-blue'>BOTTLE</p>", "response": "b", "stimulus-type": "unrelated", "word": "BOTTLE", "color": "blue", "correct_response": "b", "trial_id": "stroop-trial-1-unrelated-3", "trial_type": "html-keyboard-response", "trial_index": 152, "time_elapsed": 282157, "internal_node_id": "0.0-6.0-57.0"}}, {"uniqueid": "w69507088:a98732283", "current_trial": 153, "dateTime": 1664471169068, "trialdata": {"rt": 412, "stimulus": "<p id='stroop-text' class='stroop-blue'>RED</p>", "response": "b", "stimulus-type": "incongruent", "word": "red", "color": "blue", "correct_response": "b", "trial_id": "stroop-trial-1-incongruent-28", "trial_type": "html-keyboard-response", "trial_index": 153, "time_elapsed": 283075, "internal_node_id": "0.0-6.0-58.0"}}, {"uniqueid": "w69507088:a98732283", "current_trial": 154, "dateTime": 1664471170128, "trialdata": {"rt": 552, "stimulus": "<p id='stroop-text' class='stroop-red'>RED</p>", "response": "r", "stimulus-type": "congruent", "word": "red", "color": "red", "correct_response": "r", "trial_id": "stroop-trial-1-congruent-2", "trial_type": "html-keyboard-response", "trial_index": 154, "time_elapsed": 284135, "internal_node_id": "0.0-6.0-59.0"}}, {"uniqueid": "w69507088:a98732283", "current_trial": 155, "dateTime": 1664471171053, "trialdata": {"rt": 418, "stimulus": "<p id='stroop-text' class='stroop-green'>GREEN</p>", "response": "g", "stimulus-type": "congruent", "word": "green", "color": "green", "correct_response": "g", "trial_id": "stroop-trial-1-congruent-28", "trial_type": "html-keyboard-response", "trial_index": 155, "time_elapsed": 285061, "internal_node_id": "0.0-6.0-60.0"}}, {"uniqueid": "w69507088:a98732283", "current_trial": 156, "dateTime": 1664471172193, "trialdata": {"rt": 633, "stimulus": "<p id='stroop-text' class='stroop-red'>STONE</p>", "response": "r", "stimulus-type": "unrelated", "word": "STONE", "color": "red", "correct_response": "r", "trial_id": "stroop-trial-1-unrelated-6", "trial_type": "html-keyboard-response", "trial_index": 156, "time_elapsed": 286200, "internal_node_id": "0.0-6.0-61.0"}}, {"uniqueid": "w69507088:a98732283", "current_trial": 157, "dateTime": 1664471173071, "trialdata": {"rt": 372, "stimulus": "<p id='stroop-text' class='stroop-red'>RED</p>", "response": "r", "stimulus-type": "congruent", "word": "red", "color": "red", "correct_response": "r", "trial_id": "stroop-trial-1-congruent-23", "trial_type": "html-keyboard-response", "trial_index": 157, "time_elapsed": 287078, "internal_node_id": "0.0-6.0-62.0"}}, {"uniqueid": "w69507088:a98732283", "current_trial": 158, "dateTime": 1664471174107, "trialdata": {"rt": 531, "stimulus": "<p id='stroop-text' class='stroop-blue'>FORK</p>", "response": "b", "stimulus-type": "unrelated", "word": "FORK", "color": "blue", "correct_response": "b", "trial_id": "stroop-trial-1-unrelated-17", "trial_type": "html-keyboard-response", "trial_index": 158, "time_elapsed": 288115, "internal_node_id": "0.0-6.0-63.0"}}, {"uniqueid": "w69507088:a98732283", "current_trial": 159, "dateTime": 1664471175321, "trialdata": {"rt": 707, "stimulus": "<p id='stroop-text' class='stroop-yellow'>GREEN</p>", "response": "g", "stimulus-type": "incongruent", "word": "green", "color": "yellow", "correct_response": "y", "trial_id": "stroop-trial-1-incongruent-27", "trial_type": "html-keyboard-response", "trial_index": 159, "time_elapsed": 289329, "internal_node_id": "0.0-6.0-64.0"}}, {"uniqueid": "w69507088:a98732283", "current_trial": 160, "dateTime": 1664471176604, "trialdata": {"rt": 776, "stimulus": "<p id='stroop-text' class='stroop-red'>BLUE</p>", "response": "r", "stimulus-type": "incongruent", "word": "blue", "color": "red", "correct_response": "r", "trial_id": "stroop-trial-1-incongruent-8", "trial_type": "html-keyboard-response", "trial_index": 160, "time_elapsed": 290611, "internal_node_id": "0.0-6.0-65.0"}}, {"uniqueid": "w69507088:a98732283", "current_trial": 161, "dateTime": 1664471177501, "trialdata": {"rt": 391, "stimulus": "<p id='stroop-text' class='stroop-blue'>BLUE</p>", "response": "g", "stimulus-type": "congruent", "word": "blue", "color": "blue", "correct_response": "b", "trial_id": "stroop-trial-1-congruent-30", "trial_type": "html-keyboard-response", "trial_index": 161, "time_elapsed": 291508, "internal_node_id": "0.0-6.0-66.0"}}, {"uniqueid": "w69507088:a98732283", "current_trial": 162, "dateTime": 1664471178657, "trialdata": {"rt": 650, "stimulus": "<p id='stroop-text' class='stroop-yellow'>BLUE</p>", "response": "g", "stimulus-type": "incongruent", "word": "blue", "color": "yellow", "correct_response": "y", "trial_id": "stroop-trial-1-incongruent-20", "trial_type": "html-keyboard-response", "trial_index": 162, "time_elapsed": 292664, "internal_node_id": "0.0-6.0-67.0"}}, {"uniqueid": "w69507088:a98732283", "current_trial": 163, "dateTime": 1664471179897, "trialdata": {"rt": 734, "stimulus": "<p id='stroop-text' class='stroop-blue'>GREEN</p>", "response": "b", "stimulus-type": "incongruent", "word": "green", "color": "blue", "correct_response": "b", "trial_id": "stroop-trial-1-incongruent-22", "trial_type": "html-keyboard-response", "trial_index": 163, "time_elapsed": 293905, "internal_node_id": "0.0-6.0-68.0"}}, {"uniqueid": "w69507088:a98732283", "current_trial": 164, "dateTime": 1664471181028, "trialdata": {"rt": 624, "stimulus": "<p id='stroop-text' class='stroop-red'>RED</p>", "response": "y", "stimulus-type": "congruent", "word": "red", "color": "red", "correct_response": "r", "trial_id": "stroop-trial-1-congruent-27", "trial_type": "html-keyboard-response", "trial_index": 164, "time_elapsed": 295036, "internal_node_id": "0.0-6.0-69.0"}}, {"uniqueid": "w69507088:a98732283", "current_trial": 165, "dateTime": 1664471182132, "trialdata": {"rt": 597, "stimulus": "<p id='stroop-text' class='stroop-red'>GREEN</p>", "response": "r", "stimulus-type": "incongruent", "word": "green", "color": "red", "correct_response": "r", "trial_id": "stroop-trial-1-incongruent-1", "trial_type": "html-keyboard-response", "trial_index": 165, "time_elapsed": 296140, "internal_node_id": "0.0-6.0-70.0"}}, {"uniqueid": "w69507088:a98732283", "current_trial": 166, "dateTime": 1664471183230, "trialdata": {"rt": 592, "stimulus": "<p id='stroop-text' class='stroop-blue'>BLUE</p>", "response": "b", "stimulus-type": "congruent", "word": "blue", "color": "blue", "correct_response": "b", "trial_id": "stroop-trial-1-congruent-11", "trial_type": "html-keyboard-response", "trial_index": 166, "time_elapsed": 297237, "internal_node_id": "0.0-6.0-71.0"}}, {"uniqueid": "w69507088:a98732283", "current_trial": 167, "dateTime": 1664471184569, "trialdata": {"rt": 834, "stimulus": "<p id='stroop-text' class='stroop-blue'>GREEN</p>", "response": "b", "stimulus-type": "incongruent", "word": "green", "color": "blue", "correct_response": "b", "trial_id": "stroop-trial-1-incongruent-9", "trial_type": "html-keyboard-response", "trial_index": 167, "time_elapsed": 298576, "internal_node_id": "0.0-6.0-72.0"}}, {"uniqueid": "w69507088:a98732283", "current_trial": 168, "dateTime": 1664471185937, "trialdata": {"rt": 861, "stimulus": "<p id='stroop-text' class='stroop-yellow'>YELLOW</p>", "response": "y", "stimulus-type": "congruent", "word": "yellow", "color": "yellow", "correct_response": "y", "trial_id": "stroop-trial-1-congruent-26", "trial_type": "html-keyboard-response", "trial_index": 168, "time_elapsed": 299944, "internal_node_id": "0.0-6.0-73.0"}}, {"uniqueid": "w69507088:a98732283", "current_trial": 169, "dateTime": 1664471187010, "trialdata": {"rt": 566, "stimulus": "<p id='stroop-text' class='stroop-red'>RED</p>", "response": "r", "stimulus-type": "congruent", "word": "red", "color": "red", "correct_response": "r", "trial_id": "stroop-trial-1-congruent-5", "trial_type": "html-keyboard-response", "trial_index": 169, "time_elapsed": 301017, "internal_node_id": "0.0-6.0-74.0"}}, {"uniqueid": "w69507088:a98732283", "current_trial": 170, "dateTime": 1664471188244, "trialdata": {"rt": 728, "stimulus": "<p id='stroop-text' class='stroop-blue'>BOAT</p>", "response": "b", "stimulus-type": "unrelated", "word": "BOAT", "color": "blue", "correct_response": "b", "trial_id": "stroop-trial-1-unrelated-30", "trial_type": "html-keyboard-response", "trial_index": 170, "time_elapsed": 302251, "internal_node_id": "0.0-6.0-75.0"}}, {"uniqueid": "w69507088:a98732283", "current_trial": 171, "dateTime": 1664471189192, "trialdata": {"rt": 442, "stimulus": "<p id='stroop-text' class='stroop-yellow'>YELLOW</p>", "response": "y", "stimulus-type": "congruent", "word": "yellow", "color": "yellow", "correct_response": "y", "trial_id": "stroop-trial-1-congruent-4", "trial_type": "html-keyboard-response", "trial_index": 171, "time_elapsed": 303200, "internal_node_id": "0.0-6.0-76.0"}}, {"uniqueid": "w69507088:a98732283", "current_trial": 172, "dateTime": 1664471190420, "trialdata": {"rt": 722, "stimulus": "<p id='stroop-text' class='stroop-yellow'>RED</p>", "response": "y", "stimulus-type": "incongruent", "word": "red", "color": "yellow", "correct_response": "y", "trial_id": "stroop-trial-1-incongruent-25", "trial_type": "html-keyboard-response", "trial_index": 172, "time_elapsed": 304428, "internal_node_id": "0.0-6.0-77.0"}}, {"uniqueid": "w69507088:a98732283", "current_trial": 173, "dateTime": 1664471191443, "trialdata": {"rt": 515, "stimulus": "<p id='stroop-text' class='stroop-green'>MONKEY</p>", "response": "b", "stimulus-type": "unrelated", "word": "MONKEY", "color": "green", "correct_response": "g", "trial_id": "stroop-trial-1-unrelated-1", "trial_type": "html-keyboard-response", "trial_index": 173, "time_elapsed": 305450, "internal_node_id": "0.0-6.0-78.0"}}, {"uniqueid": "w69507088:a98732283", "current_trial": 174, "dateTime": 1664471192499, "trialdata": {"rt": 548, "stimulus": "<p id='stroop-text' class='stroop-red'>SHIP</p>", "response": "r", "stimulus-type": "unrelated", "word": "SHIP", "color": "red", "correct_response": "r", "trial_id": "stroop-trial-1-unrelated-25", "trial_type": "html-keyboard-response", "trial_index": 174, "time_elapsed": 306507, "internal_node_id": "0.0-6.0-79.0"}}, {"uniqueid": "w69507088:a98732283", "current_trial": 175, "dateTime": 1664471193994, "trialdata": {"rt": 987, "stimulus": "<p id='stroop-text' class='stroop-green'>RED</p>", "response": "g", "stimulus-type": "incongruent", "word": "red", "color": "green", "correct_response": "g", "trial_id": "stroop-trial-1-incongruent-10", "trial_type": "html-keyboard-response", "trial_index": 175, "time_elapsed": 308001, "internal_node_id": "0.0-6.0-80.0"}}, {"uniqueid": "w69507088:a98732283", "current_trial": 176, "dateTime": 1664471195008, "trialdata": {"rt": 507, "stimulus": "<p id='stroop-text' class='stroop-red'>RED</p>", "response": "r", "stimulus-type": "congruent", "word": "red", "color": "red", "correct_response": "r", "trial_id": "stroop-trial-1-congruent-7", "trial_type": "html-keyboard-response", "trial_index": 176, "time_elapsed": 309015, "internal_node_id": "0.0-6.0-81.0"}}, {"uniqueid": "w69507088:a98732283", "current_trial": 177, "dateTime": 1664471195987, "trialdata": {"rt": 473, "stimulus": "<p id='stroop-text' class='stroop-green'>BLUE</p>", "response": "g", "stimulus-type": "incongruent", "word": "blue", "color": "green", "correct_response": "g", "trial_id": "stroop-trial-1-incongruent-3", "trial_type": "html-keyboard-response", "trial_index": 177, "time_elapsed": 309994, "internal_node_id": "0.0-6.0-82.0"}}, {"uniqueid": "w69507088:a98732283", "current_trial": 178, "dateTime": 1664471197090, "trialdata": {"rt": 597, "stimulus": "<p id='stroop-text' class='stroop-red'>BLUE</p>", "response": "r", "stimulus-type": "incongruent", "word": "blue", "color": "red", "correct_response": "r", "trial_id": "stroop-trial-1-incongruent-7", "trial_type": "html-keyboard-response", "trial_index": 178, "time_elapsed": 311097, "internal_node_id": "0.0-6.0-83.0"}}, {"uniqueid": "w69507088:a98732283", "current_trial": 179, "dateTime": 1664471198299, "trialdata": {"rt": 700, "stimulus": "<p id='stroop-text' class='stroop-yellow'>BLUE</p>", "response": "y", "stimulus-type": "incongruent", "word": "blue", "color": "yellow", "correct_response": "y", "trial_id": "stroop-trial-1-incongruent-6", "trial_type": "html-keyboard-response", "trial_index": 179, "time_elapsed": 312307, "internal_node_id": "0.0-6.0-84.0"}}, {"uniqueid": "w69507088:a98732283", "current_trial": 180, "dateTime": 1664471199678, "trialdata": {"rt": 873, "stimulus": "<p id='stroop-text' class='stroop-red'>GREEN</p>", "response": "r", "stimulus-type": "incongruent", "word": "green", "color": "red", "correct_response": "r", "trial_id": "stroop-trial-1-incongruent-12", "trial_type": "html-keyboard-response", "trial_index": 180, "time_elapsed": 313685, "internal_node_id": "0.0-6.0-85.0"}}, {"uniqueid": "w69507088:a98732283", "current_trial": 181, "dateTime": 1664471200709, "trialdata": {"rt": 523, "stimulus": "<p id='stroop-text' class='stroop-blue'>BLUE</p>", "response": "b", "stimulus-type": "congruent", "word": "blue", "color": "blue", "correct_response": "b", "trial_id": "stroop-trial-1-congruent-13", "trial_type": "html-keyboard-response", "trial_index": 181, "time_elapsed": 314716, "internal_node_id": "0.0-6.0-86.0"}}, {"uniqueid": "w69507088:a98732283", "current_trial": 182, "dateTime": 1664471201541, "trialdata": {"rt": 326, "stimulus": "<p id='stroop-text' class='stroop-green'>YELLOW</p>", "response": "g", "stimulus-type": "incongruent", "word": "yellow", "color": "green", "correct_response": "g", "trial_id": "stroop-trial-1-incongruent-30", "trial_type": "html-keyboard-response", "trial_index": 182, "time_elapsed": 315548, "internal_node_id": "0.0-6.0-87.0"}}, {"uniqueid": "w69507088:a98732283", "current_trial": 183, "dateTime": 1664471202459, "trialdata": {"rt": 411, "stimulus": "<p id='stroop-text' class='stroop-blue'>BLUE</p>", "response": "b", "stimulus-type": "congruent", "word": "blue", "color": "blue", "correct_response": "b", "trial_id": "stroop-trial-1-congruent-19", "trial_type": "html-keyboard-response", "trial_index": 183, "time_elapsed": 316466, "internal_node_id": "0.0-6.0-88.0"}}, {"uniqueid": "w69507088:a98732283", "current_trial": 184, "dateTime": 1664471203435, "trialdata": {"rt": 467, "stimulus": "<p id='stroop-text' class='stroop-red'>RED</p>", "response": "r", "stimulus-type": "congruent", "word": "red", "color": "red", "correct_response": "r", "trial_id": "stroop-trial-1-congruent-24", "trial_type": "html-keyboard-response", "trial_index": 184, "time_elapsed": 317442, "internal_node_id": "0.0-6.0-89.0"}}, {"uniqueid": "w69507088:a98732283", "current_trial": 185, "dateTime": 1664471205504, "trialdata": {"rt": 1564, "stimulus": "  <h1> End of block! </h1>\n\n  You have reached the end of the block 2/5. If you need a short break, feel free to take one now before moving on.\n\n  <br><br>\n  In the next block, you will complete another 90 rounds of this game.\n\n  <br><br>\n  <div style='text-align: center;'>Press <code>space</code> to begin.</div>\n  <br><br>\n<div style='text-align: center;'>(If the experiment doesn't continue, try clicking on the text and then pressing <code>space</code>.)</div>", "response": " ", "trial_id": "stroop_1_ready_3", "trial_type": "html-keyboard-response", "trial_index": 185, "time_elapsed": 319512, "internal_node_id": "0.0-7.0"}}, {"uniqueid": "w69507088:a98732283", "current_trial": 186, "dateTime": 1664471206315, "trialdata": {"rt": 804, "stimulus": "<p id='stroop-text' class='stroop-yellow'>BLUE</p>", "response": "y", "stimulus-type": "incongruent", "word": "blue", "color": "yellow", "correct_response": "y", "trial_id": "stroop-trial-1-incongruent-16", "trial_type": "html-keyboard-response", "trial_index": 186, "time_elapsed": 320323, "internal_node_id": "0.0-8.0-0.0"}}, {"uniqueid": "w69507088:a98732283", "current_trial": 187, "dateTime": 1664471207420, "trialdata": {"rt": 599, "stimulus": "<p id='stroop-text' class='stroop-blue'>BLUE</p>", "response": "b", "stimulus-type": "congruent", "word": "blue", "color": "blue", "correct_response": "b", "trial_id": "stroop-trial-1-congruent-16", "trial_type": "html-keyboard-response", "trial_index": 187, "time_elapsed": 321428, "internal_node_id": "0.0-8.0-1.0"}}, {"uniqueid": "w69507088:a98732283", "current_trial": 188, "dateTime": 1664471208731, "trialdata": {"rt": 804, "stimulus": "<p id='stroop-text' class='stroop-green'>BLUE</p>", "response": "r", "stimulus-type": "incongruent", "word": "blue", "color": "green", "correct_response": "g", "trial_id": "stroop-trial-1-incongruent-1", "trial_type": "html-keyboard-response", "trial_index": 188, "time_elapsed": 322739, "internal_node_id": "0.0-8.0-2.0"}}, {"uniqueid": "w69507088:a98732283", "current_trial": 189, "dateTime": 1664471209698, "trialdata": {"rt": 457, "stimulus": "<p id='stroop-text' class='stroop-green'>GREEN</p>", "response": "g", "stimulus-type": "congruent", "word": "green", "color": "green", "correct_response": "g", "trial_id": "stroop-trial-1-congruent-24", "trial_type": "html-keyboard-response", "trial_index": 189, "time_elapsed": 323705, "internal_node_id": "0.0-8.0-3.0"}}, {"uniqueid": "w69507088:a98732283", "current_trial": 190, "dateTime": 1664471210653, "trialdata": {"rt": 449, "stimulus": "<p id='stroop-text' class='stroop-green'>BLUE</p>", "response": "g", "stimulus-type": "incongruent", "word": "blue", "color": "green", "correct_response": "g", "trial_id": "stroop-trial-1-incongruent-23", "trial_type": "html-keyboard-response", "trial_index": 190, "time_elapsed": 324661, "internal_node_id": "0.0-8.0-4.0"}}, {"uniqueid": "w69507088:a98732283", "current_trial": 191, "dateTime": 1664471211650, "trialdata": {"rt": 493, "stimulus": "<p id='stroop-text' class='stroop-yellow'>YELLOW</p>", "response": "y", "stimulus-type": "congruent", "word": "yellow", "color": "yellow", "correct_response": "y", "trial_id": "stroop-trial-1-congruent-27", "trial_type": "html-keyboard-response", "trial_index": 191, "time_elapsed": 325657, "internal_node_id": "0.0-8.0-5.0"}}, {"uniqueid": "w69507088:a98732283", "current_trial": 192, "dateTime": 1664471212741, "trialdata": {"rt": 585, "stimulus": "<p id='stroop-text' class='stroop-blue'>BRAIN</p>", "response": "b", "stimulus-type": "unrelated", "word": "BRAIN", "color": "blue", "correct_response": "b", "trial_id": "stroop-trial-1-unrelated-12", "trial_type": "html-keyboard-response", "trial_index": 192, "time_elapsed": 326748, "internal_node_id": "0.0-8.0-6.0"}}, {"uniqueid": "w69507088:a98732283", "current_trial": 193, "dateTime": 1664471213726, "trialdata": {"rt": 478, "stimulus": "<p id='stroop-text' class='stroop-blue'>BRAIN</p>", "response": "b", "stimulus-type": "unrelated", "word": "BRAIN", "color": "blue", "correct_response": "b", "trial_id": "stroop-trial-1-unrelated-20", "trial_type": "html-keyboard-response", "trial_index": 193, "time_elapsed": 327733, "internal_node_id": "0.0-8.0-7.0"}}, {"uniqueid": "w69507088:a98732283", "current_trial": 194, "dateTime": 1664471214641, "trialdata": {"rt": 409, "stimulus": "<p id='stroop-text' class='stroop-blue'>YELLOW</p>", "response": "b", "stimulus-type": "incongruent", "word": "yellow", "color": "blue", "correct_response": "b", "trial_id": "stroop-trial-1-incongruent-14", "trial_type": "html-keyboard-response", "trial_index": 194, "time_elapsed": 328649, "internal_node_id": "0.0-8.0-8.0"}}, {"uniqueid": "w69507088:a98732283", "current_trial": 195, "dateTime": 1664471215743, "trialdata": {"rt": 594, "stimulus": "<p id='stroop-text' class='stroop-red'>WINDOW</p>", "response": "y", "stimulus-type": "unrelated", "word": "WINDOW", "color": "red", "correct_response": "r", "trial_id": "stroop-trial-1-unrelated-9", "trial_type": "html-keyboard-response", "trial_index": 195, "time_elapsed": 329750, "internal_node_id": "0.0-8.0-9.0"}}, {"uniqueid": "w69507088:a98732283", "current_trial": 196, "dateTime": 1664471216784, "trialdata": {"rt": 535, "stimulus": "<p id='stroop-text' class='stroop-green'>GREEN</p>", "response": "g", "stimulus-type": "congruent", "word": "green", "color": "green", "correct_response": "g", "trial_id": "stroop-trial-1-congruent-10", "trial_type": "html-keyboard-response", "trial_index": 196, "time_elapsed": 330791, "internal_node_id": "0.0-8.0-10.0"}}, {"uniqueid": "w69507088:a98732283", "current_trial": 197, "dateTime": 1664471217832, "trialdata": {"rt": 542, "stimulus": "<p id='stroop-text' class='stroop-red'>RED</p>", "response": "r", "stimulus-type": "congruent", "word": "red", "color": "red", "correct_response": "r", "trial_id": "stroop-trial-1-congruent-18", "trial_type": "html-keyboard-response", "trial_index": 197, "time_elapsed": 331840, "internal_node_id": "0.0-8.0-11.0"}}, {"uniqueid": "w69507088:a98732283", "current_trial": 198, "dateTime": 1664471218959, "trialdata": {"rt": 625, "stimulus": "<p id='stroop-text' class='stroop-green'>GREEN</p>", "response": "g", "stimulus-type": "congruent", "word": "green", "color": "green", "correct_response": "g", "trial_id": "stroop-trial-1-congruent-2", "trial_type": "html-keyboard-response", "trial_index": 198, "time_elapsed": 332967, "internal_node_id": "0.0-8.0-12.0"}}, {"uniqueid": "w69507088:a98732283", "current_trial": 199, "dateTime": 1664471219994, "trialdata": {"rt": 533, "stimulus": "<p id='stroop-text' class='stroop-red'>RED</p>", "response": "r", "stimulus-type": "congruent", "word": "red", "color": "red", "correct_response": "r", "trial_id": "stroop-trial-1-congruent-30", "trial_type": "html-keyboard-response", "trial_index": 199, "time_elapsed": 334002, "internal_node_id": "0.0-8.0-13.0"}}, {"uniqueid": "w69507088:a98732283", "current_trial": 200, "dateTime": 1664471220946, "trialdata": {"rt": 449, "stimulus": "<p id='stroop-text' class='stroop-red'>RED</p>", "response": "r", "stimulus-type": "congruent", "word": "red", "color": "red", "correct_response": "r", "trial_id": "stroop-trial-1-congruent-1", "trial_type": "html-keyboard-response", "trial_index": 200, "time_elapsed": 334954, "internal_node_id": "0.0-8.0-14.0"}}, {"uniqueid": "w69507088:a98732283", "current_trial": 201, "dateTime": 1664471222010, "trialdata": {"rt": 558, "stimulus": "<p id='stroop-text' class='stroop-red'>DOG</p>", "response": "r", "stimulus-type": "unrelated", "word": "DOG", "color": "red", "correct_response": "r", "trial_id": "stroop-trial-1-unrelated-23", "trial_type": "html-keyboard-response", "trial_index": 201, "time_elapsed": 336018, "internal_node_id": "0.0-8.0-15.0"}}, {"uniqueid": "w69507088:a98732283", "current_trial": 202, "dateTime": 1664471222883, "trialdata": {"rt": 365, "stimulus": "<p id='stroop-text' class='stroop-green'>GREEN</p>", "response": "g", "stimulus-type": "congruent", "word": "green", "color": "green", "correct_response": "g", "trial_id": "stroop-trial-1-congruent-8", "trial_type": "html-keyboard-response", "trial_index": 202, "time_elapsed": 336890, "internal_node_id": "0.0-8.0-16.0"}}, {"uniqueid": "w69507088:a98732283", "current_trial": 203, "dateTime": 1664471223774, "trialdata": {"rt": 389, "stimulus": "<p id='stroop-text' class='stroop-red'>RED</p>", "response": "r", "stimulus-type": "congruent", "word": "red", "color": "red", "correct_response": "r", "trial_id": "stroop-trial-1-congruent-11", "trial_type": "html-keyboard-response", "trial_index": 203, "time_elapsed": 337782, "internal_node_id": "0.0-8.0-17.0"}}, {"uniqueid": "w69507088:a98732283", "current_trial": 204, "dateTime": 1664471224703, "trialdata": {"rt": 426, "stimulus": "<p id='stroop-text' class='stroop-red'>SHIP</p>", "response": "r", "stimulus-type": "unrelated", "word": "SHIP", "color": "red", "correct_response": "r", "trial_id": "stroop-trial-1-unrelated-14", "trial_type": "html-keyboard-response", "trial_index": 204, "time_elapsed": 338711, "internal_node_id": "0.0-8.0-18.0"}}, {"uniqueid": "w69507088:a98732283", "current_trial": 205, "dateTime": 1664471225794, "trialdata": {"rt": 588, "stimulus": "<p id='stroop-text' class='stroop-yellow'>RED</p>", "response": "y", "stimulus-type": "incongruent", "word": "red", "color": "yellow", "correct_response": "y", "trial_id": "stroop-trial-1-incongruent-26", "trial_type": "html-keyboard-response", "trial_index": 205, "time_elapsed": 339802, "internal_node_id": "0.0-8.0-19.0"}}, {"uniqueid": "w69507088:a98732283", "current_trial": 206, "dateTime": 1664471226918, "trialdata": {"rt": 621, "stimulus": "<p id='stroop-text' class='stroop-red'>BRIDGE</p>", "response": "r", "stimulus-type": "unrelated", "word": "BRIDGE", "color": "red", "correct_response": "r", "trial_id": "stroop-trial-1-unrelated-6", "trial_type": "html-keyboard-response", "trial_index": 206, "time_elapsed": 340926, "internal_node_id": "0.0-8.0-20.0"}}, {"uniqueid": "w69507088:a98732283", "current_trial": 207, "dateTime": 1664471228170, "trialdata": {"rt": 745, "stimulus": "<p id='stroop-text' class='stroop-yellow'>WINDOW</p>", "response": "y", "stimulus-type": "unrelated", "word": "WINDOW", "color": "yellow", "correct_response": "y", "trial_id": "stroop-trial-1-unrelated-22", "trial_type": "html-keyboard-response", "trial_index": 207, "time_elapsed": 342177, "internal_node_id": "0.0-8.0-21.0"}}, {"uniqueid": "w69507088:a98732283", "current_trial": 208, "dateTime": 1664471229322, "trialdata": {"rt": 646, "stimulus": "<p id='stroop-text' class='stroop-red'>GREEN</p>", "response": "r", "stimulus-type": "incongruent", "word": "green", "color": "red", "correct_response": "r", "trial_id": "stroop-trial-1-incongruent-7", "trial_type": "html-keyboard-response", "trial_index": 208, "time_elapsed": 343330, "internal_node_id": "0.0-8.0-22.0"}}, {"uniqueid": "w69507088:a98732283", "current_trial": 209, "dateTime": 1664471230425, "trialdata": {"rt": 593, "stimulus": "<p id='stroop-text' class='stroop-green'>GREEN</p>", "response": "g", "stimulus-type": "congruent", "word": "green", "color": "green", "correct_response": "g", "trial_id": "stroop-trial-1-congruent-26", "trial_type": "html-keyboard-response", "trial_index": 209, "time_elapsed": 344432, "internal_node_id": "0.0-8.0-23.0"}}, {"uniqueid": "w69507088:a98732283", "current_trial": 210, "dateTime": 1664471231484, "trialdata": {"rt": 551, "stimulus": "<p id='stroop-text' class='stroop-red'>GREEN</p>", "response": "r", "stimulus-type": "incongruent", "word": "green", "color": "red", "correct_response": "r", "trial_id": "stroop-trial-1-incongruent-19", "trial_type": "html-keyboard-response", "trial_index": 210, "time_elapsed": 345491, "internal_node_id": "0.0-8.0-24.0"}}, {"uniqueid": "w69507088:a98732283", "current_trial": 211, "dateTime": 1664471232438, "trialdata": {"rt": 448, "stimulus": "<p id='stroop-text' class='stroop-blue'>BLUE</p>", "response": "b", "stimulus-type": "congruent", "word": "blue", "color": "blue", "correct_response": "b", "trial_id": "stroop-trial-1-congruent-20", "trial_type": "html-keyboard-response", "trial_index": 211, "time_elapsed": 346446, "internal_node_id": "0.0-8.0-25.0"}}, {"uniqueid": "w69507088:a98732283", "current_trial": 212, "dateTime": 1664471233407, "trialdata": {"rt": 461, "stimulus": "<p id='stroop-text' class='stroop-blue'>BLUE</p>", "response": "b", "stimulus-type": "congruent", "word": "blue", "color": "blue", "correct_response": "b", "trial_id": "stroop-trial-1-congruent-6", "trial_type": "html-keyboard-response", "trial_index": 212, "time_elapsed": 347414, "internal_node_id": "0.0-8.0-26.0"}}, {"uniqueid": "w69507088:a98732283", "current_trial": 213, "dateTime": 1664471234339, "trialdata": {"rt": 425, "stimulus": "<p id='stroop-text' class='stroop-blue'>YELLOW</p>", "response": "b", "stimulus-type": "incongruent", "word": "yellow", "color": "blue", "correct_response": "b", "trial_id": "stroop-trial-1-incongruent-12", "trial_type": "html-keyboard-response", "trial_index": 213, "time_elapsed": 348346, "internal_node_id": "0.0-8.0-27.0"}}, {"uniqueid": "w69507088:a98732283", "current_trial": 214, "dateTime": 1664471235443, "trialdata": {"rt": 598, "stimulus": "<p id='stroop-text' class='stroop-yellow'>GREEN</p>", "response": "y", "stimulus-type": "incongruent", "word": "green", "color": "yellow", "correct_response": "y", "trial_id": "stroop-trial-1-incongruent-5", "trial_type": "html-keyboard-response", "trial_index": 214, "time_elapsed": 349451, "internal_node_id": "0.0-8.0-28.0"}}, {"uniqueid": "w69507088:a98732283", "current_trial": 215, "dateTime": 1664471236410, "trialdata": {"rt": 460, "stimulus": "<p id='stroop-text' class='stroop-green'>BLUE</p>", "response": "g", "stimulus-type": "incongruent", "word": "blue", "color": "green", "correct_response": "g", "trial_id": "stroop-trial-1-incongruent-15", "trial_type": "html-keyboard-response", "trial_index": 215, "time_elapsed": 350418, "internal_node_id": "0.0-8.0-29.0"}}, {"uniqueid": "w69507088:a98732283", "current_trial": 216, "dateTime": 1664471237855, "trialdata": {"rt": 937, "stimulus": "<p id='stroop-text' class='stroop-blue'>BLUE</p>", "response": "b", "stimulus-type": "congruent", "word": "blue", "color": "blue", "correct_response": "b", "trial_id": "stroop-trial-1-congruent-5", "trial_type": "html-keyboard-response", "trial_index": 216, "time_elapsed": 351862, "internal_node_id": "0.0-8.0-30.0"}}, {"uniqueid": "w69507088:a98732283", "current_trial": 217, "dateTime": 1664471238931, "trialdata": {"rt": 565, "stimulus": "<p id='stroop-text' class='stroop-red'>RED</p>", "response": "r", "stimulus-type": "congruent", "word": "red", "color": "red", "correct_response": "r", "trial_id": "stroop-trial-1-congruent-4", "trial_type": "html-keyboard-response", "trial_index": 217, "time_elapsed": 352939, "internal_node_id": "0.0-8.0-31.0"}}, {"uniqueid": "w69507088:a98732283", "current_trial": 218, "dateTime": 1664471239848, "trialdata": {"rt": 410, "stimulus": "<p id='stroop-text' class='stroop-red'>SHIP</p>", "response": "r", "stimulus-type": "unrelated", "word": "SHIP", "color": "red", "correct_response": "r", "trial_id": "stroop-trial-1-unrelated-17", "trial_type": "html-keyboard-response", "trial_index": 218, "time_elapsed": 353856, "internal_node_id": "0.0-8.0-32.0"}}, {"uniqueid": "w69507088:a98732283", "current_trial": 219, "dateTime": 1664471240672, "trialdata": {"rt": 317, "stimulus": "<p id='stroop-text' class='stroop-red'>CHAIR</p>", "response": "r", "stimulus-type": "unrelated", "word": "CHAIR", "color": "red", "correct_response": "r", "trial_id": "stroop-trial-1-unrelated-13", "trial_type": "html-keyboard-response", "trial_index": 219, "time_elapsed": 354680, "internal_node_id": "0.0-8.0-33.0"}}, {"uniqueid": "w69507088:a98732283", "current_trial": 220, "dateTime": 1664471241574, "trialdata": {"rt": 395, "stimulus": "<p id='stroop-text' class='stroop-red'>BOAT</p>", "response": "r", "stimulus-type": "unrelated", "word": "BOAT", "color": "red", "correct_response": "r", "trial_id": "stroop-trial-1-unrelated-21", "trial_type": "html-keyboard-response", "trial_index": 220, "time_elapsed": 355582, "internal_node_id": "0.0-8.0-34.0"}}, {"uniqueid": "w69507088:a98732283", "current_trial": 221, "dateTime": 1664471242864, "trialdata": {"rt": 780, "stimulus": "<p id='stroop-text' class='stroop-blue'>GREEN</p>", "response": "b", "stimulus-type": "incongruent", "word": "green", "color": "blue", "correct_response": "b", "trial_id": "stroop-trial-1-incongruent-25", "trial_type": "html-keyboard-response", "trial_index": 221, "time_elapsed": 356871, "internal_node_id": "0.0-8.0-35.0"}}, {"uniqueid": "w69507088:a98732283", "current_trial": 222, "dateTime": 1664471243844, "trialdata": {"rt": 472, "stimulus": "<p id='stroop-text' class='stroop-blue'>FORK</p>", "response": "b", "stimulus-type": "unrelated", "word": "FORK", "color": "blue", "correct_response": "b", "trial_id": "stroop-trial-1-unrelated-30", "trial_type": "html-keyboard-response", "trial_index": 222, "time_elapsed": 357851, "i