{"condition": 0, "counterbalance": 0, "assignmentId": "a85331231", "workerId": "w52290585", "hitId": "h51730299", "currenttrial": 971, "bonus": 0, "data": [{"uniqueid": "w52290585:a85331231", "current_trial": 0, "dateTime": 1664555568383, "trialdata": {"success": true, "trial_type": "fullscreen", "trial_index": 0, "time_elapsed": 15445, "internal_node_id": "0.0-0.0"}}, {"uniqueid": "w52290585:a85331231", "current_trial": 1, "dateTime": 1664555698300, "trialdata": {"view_history": [{"page_index": 0, "viewing_time": 129904}], "rt": 129906, "trial_id": "exp_instructions_distractor", "trial_type": "instructions", "trial_index": 1, "time_elapsed": 145363, "internal_node_id": "0.0-1.0"}}, {"uniqueid": "w52290585:a85331231", "current_trial": 2, "dateTime": 1664555766761, "trialdata": {"view_history": [{"page_index": 0, "viewing_time": 68457}], "rt": 68457, "trial_id": "color_game_instructions", "trial_type": "instructions", "trial_index": 2, "time_elapsed": 213824, "internal_node_id": "0.0-2.0"}}, {"uniqueid": "w52290585:a85331231", "current_trial": 3, "dateTime": 1664555777968, "trialdata": {"rt": 11204, "stimulus": "<h1> Get ready to start the game! </h1>\n\nThank you for reading the instructions. Get ready start with the first of 5 block(s) of this game.\n<br><br>\nIn this first block, you will complete 90 rounds of this game before moving on.\n<br><br>\nRemember, the better you perform, the bigger your bonus will be!\n<br><br>\n<div style='text-align: center;'>Press <code>space</code> to begin.</div>", "response": " ", "trial_id": "stroop_1_ready_1", "trial_type": "html-keyboard-response", "trial_index": 3, "time_elapsed": 225031, "internal_node_id": "0.0-3.0"}}, {"uniqueid": "w52290585:a85331231", "current_trial": 4, "dateTime": 1664555780653, "trialdata": {"rt": 2635, "stimulus": "<p id='stroop-text' class='stroop-red'>RED</p>", "response": "r", "stimulus-type": "congruent", "word": "red", "color": "red", "correct_response": "r", "trial_id": "stroop-trial-1-congruent-27", "trial_type": "html-keyboard-response", "trial_index": 4, "time_elapsed": 227715, "internal_node_id": "0.0-4.0-0.0"}}, {"uniqueid": "w52290585:a85331231", "current_trial": 5, "dateTime": 1664555782848, "trialdata": {"rt": 1692, "stimulus": "<p id='stroop-text' class='stroop-yellow'>GREEN</p>", "response": "y", "stimulus-type": "incongruent", "word": "green", "color": "yellow", "correct_response": "y", "trial_id": "stroop-trial-1-incongruent-5", "trial_type": "html-keyboard-response", "trial_index": 5, "time_elapsed": 229910, "internal_node_id": "0.0-4.0-1.0"}}, {"uniqueid": "w52290585:a85331231", "current_trial": 6, "dateTime": 1664555784679, "trialdata": {"rt": 1328, "stimulus": "<p id='stroop-text' class='stroop-blue'>STONE</p>", "response": "b", "stimulus-type": "unrelated", "word": "STONE", "color": "blue", "correct_response": "b", "trial_id": "stroop-trial-1-unrelated-5", "trial_type": "html-keyboard-response", "trial_index": 6, "time_elapsed": 231741, "internal_node_id": "0.0-4.0-2.0"}}, {"uniqueid": "w52290585:a85331231", "current_trial": 7, "dateTime": 1664555786763, "trialdata": {"rt": 1581, "stimulus": "<p id='stroop-text' class='stroop-green'>YELLOW</p>", "response": "g", "stimulus-type": "incongruent", "word": "yellow", "color": "green", "correct_response": "g", "trial_id": "stroop-trial-1-incongruent-21", "trial_type": "html-keyboard-response", "trial_index": 7, "time_elapsed": 233826, "internal_node_id": "0.0-4.0-3.0"}}, {"uniqueid": "w52290585:a85331231", "current_trial": 8, "dateTime": 1664555788702, "trialdata": {"rt": 1434, "stimulus": "<p id='stroop-text' class='stroop-yellow'>YELLOW</p>", "response": "y", "stimulus-type": "congruent", "word": "yellow", "color": "yellow", "correct_response": "y", "trial_id": "stroop-trial-1-congruent-15", "trial_type": "html-keyboard-response", "trial_index": 8, "time_elapsed": 235764, "internal_node_id": "0.0-4.0-4.0"}}, {"uniqueid": "w52290585:a85331231", "current_trial": 9, "dateTime": 1664555790577, "trialdata": {"rt": 1372, "stimulus": "<p id='stroop-text' class='stroop-red'>BLUE</p>", "response": "r", "stimulus-type": "incongruent", "word": "blue", "color": "red", "correct_response": "r", "trial_id": "stroop-trial-1-incongruent-28", "trial_type": "html-keyboard-response", "trial_index": 9, "time_elapsed": 237639, "internal_node_id": "0.0-4.0-5.0"}}, {"uniqueid": "w52290585:a85331231", "current_trial": 10, "dateTime": 1664555792263, "trialdata": {"rt": 1183, "stimulus": "<p id='stroop-text' class='stroop-red'>FORK</p>", "response": "r", "stimulus-type": "unrelated", "word": "FORK", "color": "red", "correct_response": "r", "trial_id": "stroop-trial-1-unrelated-27", "trial_type": "html-keyboard-response", "trial_index": 10, "time_elapsed": 239326, "internal_node_id": "0.0-4.0-6.0"}}, {"uniqueid": "w52290585:a85331231", "current_trial": 11, "dateTime": 1664555793581, "trialdata": {"rt": 815, "stimulus": "<p id='stroop-text' class='stroop-red'>WINDOW</p>", "response": "r", "stimulus-type": "unrelated", "word": "WINDOW", "color": "red", "correct_response": "r", "trial_id": "stroop-trial-1-unrelated-28", "trial_type": "html-keyboard-response", "trial_index": 11, "time_elapsed": 240644, "internal_node_id": "0.0-4.0-7.0"}}, {"uniqueid": "w52290585:a85331231", "current_trial": 12, "dateTime": 1664555795710, "trialdata": {"rt": 1624, "stimulus": "<p id='stroop-text' class='stroop-yellow'>YELLOW</p>", "response": "y", "stimulus-type": "congruent", "word": "yellow", "color": "yellow", "correct_response": "y", "trial_id": "stroop-trial-1-congruent-20", "trial_type": "html-keyboard-response", "trial_index": 12, "time_elapsed": 242772, "internal_node_id": "0.0-4.0-8.0"}}, {"uniqueid": "w52290585:a85331231", "current_trial": 13, "dateTime": 1664555797577, "trialdata": {"rt": 1364, "stimulus": "<p id='stroop-text' class='stroop-yellow'>YELLOW</p>", "response": "y", "stimulus-type": "congruent", "word": "yellow", "color": "yellow", "correct_response": "y", "trial_id": "stroop-trial-1-congruent-8", "trial_type": "html-keyboard-response", "trial_index": 13, "time_elapsed": 244639, "internal_node_id": "0.0-4.0-9.0"}}, {"uniqueid": "w52290585:a85331231", "current_trial": 14, "dateTime": 1664555799320, "trialdata": {"rt": 1241, "stimulus": "<p id='stroop-text' class='stroop-red'>YELLOW</p>", "response": "r", "stimulus-type": "incongruent", "word": "yellow", "color": "red", "correct_response": "r", "trial_id": "stroop-trial-1-incongruent-25", "trial_type": "html-keyboard-response", "trial_index": 14, "time_elapsed": 246383, "internal_node_id": "0.0-4.0-10.0"}}, {"uniqueid": "w52290585:a85331231", "current_trial": 15, "dateTime": 1664555800947, "trialdata": {"rt": 1123, "stimulus": "<p id='stroop-text' class='stroop-yellow'>RED</p>", "response": "y", "stimulus-type": "incongruent", "word": "red", "color": "yellow", "correct_response": "y", "trial_id": "stroop-trial-1-incongruent-6", "trial_type": "html-keyboard-response", "trial_index": 15, "time_elapsed": 248009, "internal_node_id": "0.0-4.0-11.0"}}, {"uniqueid": "w52290585:a85331231", "current_trial": 16, "dateTime": 1664555803220, "trialdata": {"rt": 1769, "stimulus": "<p id='stroop-text' class='stroop-green'>SHIP</p>", "response": "g", "stimulus-type": "unrelated", "word": "SHIP", "color": "green", "correct_response": "g", "trial_id": "stroop-trial-1-unrelated-3", "trial_type": "html-keyboard-response", "trial_index": 16, "time_elapsed": 250282, "internal_node_id": "0.0-4.0-12.0"}}, {"uniqueid": "w52290585:a85331231", "current_trial": 17, "dateTime": 1664555804883, "trialdata": {"rt": 1160, "stimulus": "<p id='stroop-text' class='stroop-green'>DOG</p>", "response": "g", "stimulus-type": "unrelated", "word": "DOG", "color": "green", "correct_response": "g", "trial_id": "stroop-trial-1-unrelated-24", "trial_type": "html-keyboard-response", "trial_index": 17, "time_elapsed": 251945, "internal_node_id": "0.0-4.0-13.0"}}, {"uniqueid": "w52290585:a85331231", "current_trial": 18, "dateTime": 1664555806414, "trialdata": {"rt": 1027, "stimulus": "<p id='stroop-text' class='stroop-red'>RED</p>", "response": "r", "stimulus-type": "congruent", "word": "red", "color": "red", "correct_response": "r", "trial_id": "stroop-trial-1-congruent-2", "trial_type": "html-keyboard-response", "trial_index": 18, "time_elapsed": 253476, "internal_node_id": "0.0-4.0-14.0"}}, {"uniqueid": "w52290585:a85331231", "current_trial": 19, "dateTime": 1664555808080, "trialdata": {"rt": 1160, "stimulus": "<p id='stroop-text' class='stroop-yellow'>GREEN</p>", "response": "y", "stimulus-type": "incongruent", "word": "green", "color": "yellow", "correct_response": "y", "trial_id": "stroop-trial-1-incongruent-17", "trial_type": "html-keyboard-response", "trial_index": 19, "time_elapsed": 255143, "internal_node_id": "0.0-4.0-15.0"}}, {"uniqueid": "w52290585:a85331231", "current_trial": 20, "dateTime": 1664555809925, "trialdata": {"rt": 1342, "stimulus": "<p id='stroop-text' class='stroop-blue'>GREEN</p>", "response": "b", "stimulus-type": "incongruent", "word": "green", "color": "blue", "correct_response": "b", "trial_id": "stroop-trial-1-incongruent-30", "trial_type": "html-keyboard-response", "trial_index": 20, "time_elapsed": 256988, "internal_node_id": "0.0-4.0-16.0"}}, {"uniqueid": "w52290585:a85331231", "current_trial": 21, "dateTime": 1664555812198, "trialdata": {"rt": 1769, "stimulus": "<p id='stroop-text' class='stroop-green'>GREEN</p>", "response": "g", "stimulus-type": "congruent", "word": "green", "color": "green", "correct_response": "g", "trial_id": "stroop-trial-1-congruent-11", "trial_type": "html-keyboard-response", "trial_index": 21, "time_elapsed": 259260, "internal_node_id": "0.0-4.0-17.0"}}, {"uniqueid": "w52290585:a85331231", "current_trial": 22, "dateTime": 1664555813775, "trialdata": {"rt": 1073, "stimulus": "<p id='stroop-text' class='stroop-yellow'>STONE</p>", "response": "y", "stimulus-type": "unrelated", "word": "STONE", "color": "yellow", "correct_response": "y", "trial_id": "stroop-trial-1-unrelated-10", "trial_type": "html-keyboard-response", "trial_index": 22, "time_elapsed": 260837, "internal_node_id": "0.0-4.0-18.0"}}, {"uniqueid": "w52290585:a85331231", "current_trial": 23, "dateTime": 1664555815704, "trialdata": {"rt": 1427, "stimulus": "<p id='stroop-text' class='stroop-yellow'>BLUE</p>", "response": "b", "stimulus-type": "incongruent", "word": "blue", "color": "yellow", "correct_response": "y", "trial_id": "stroop-trial-1-incongruent-7", "trial_type": "html-keyboard-response", "trial_index": 23, "time_elapsed": 262767, "internal_node_id": "0.0-4.0-19.0"}}, {"uniqueid": "w52290585:a85331231", "current_trial": 24, "dateTime": 1664555817445, "trialdata": {"rt": 1237, "stimulus": "<p id='stroop-text' class='stroop-yellow'>RED</p>", "response": "y", "stimulus-type": "incongruent", "word": "red", "color": "yellow", "correct_response": "y", "trial_id": "stroop-trial-1-incongruent-20", "trial_type": "html-keyboard-response", "trial_index": 24, "time_elapsed": 264507, "internal_node_id": "0.0-4.0-20.0"}}, {"uniqueid": "w52290585:a85331231", "current_trial": 25, "dateTime": 1664555819474, "trialdata": {"rt": 1527, "stimulus": "<p id='stroop-text' class='stroop-blue'>BOAT</p>", "response": "b", "stimulus-type": "unrelated", "word": "BOAT", "color": "blue", "correct_response": "b", "trial_id": "stroop-trial-1-unrelated-11", "trial_type": "html-keyboard-response", "trial_index": 25, "time_elapsed": 266537, "internal_node_id": "0.0-4.0-21.0"}}, {"uniqueid": "w52290585:a85331231", "current_trial": 26, "dateTime": 1664555822190, "trialdata": {"rt": 2214, "stimulus": "<p id='stroop-text' class='stroop-blue'>YELLOW</p>", "response": "b", "stimulus-type": "incongruent", "word": "yellow", "color": "blue", "correct_response": "b", "trial_id": "stroop-trial-1-incongruent-4", "trial_type": "html-keyboard-response", "trial_index": 26, "time_elapsed": 269253, "internal_node_id": "0.0-4.0-22.0"}}, {"uniqueid": "w52290585:a85331231", "current_trial": 27, "dateTime": 1664555823937, "trialdata": {"rt": 1243, "stimulus": "<p id='stroop-text' class='stroop-red'>FORK</p>", "response": "r", "stimulus-type": "unrelated", "word": "FORK", "color": "red", "correct_response": "r", "trial_id": "stroop-trial-1-unrelated-18", "trial_type": "html-keyboard-response", "trial_index": 27, "time_elapsed": 270999, "internal_node_id": "0.0-4.0-23.0"}}, {"uniqueid": "w52290585:a85331231", "current_trial": 28, "dateTime": 1664555826006, "trialdata": {"rt": 1566, "stimulus": "<p id='stroop-text' class='stroop-green'>GREEN</p>", "response": "g", "stimulus-type": "congruent", "word": "green", "color": "green", "correct_response": "g", "trial_id": "stroop-trial-1-congruent-14", "trial_type": "html-keyboard-response", "trial_index": 28, "time_elapsed": 273068, "internal_node_id": "0.0-4.0-24.0"}}, {"uniqueid": "w52290585:a85331231", "current_trial": 29, "dateTime": 1664555827692, "trialdata": {"rt": 1183, "stimulus": "<p id='stroop-text' class='stroop-yellow'>YELLOW</p>", "response": "y", "stimulus-type": "congruent", "word": "yellow", "color": "yellow", "correct_response": "y", "trial_id": "stroop-trial-1-congruent-4", "trial_type": "html-keyboard-response", "trial_index": 29, "time_elapsed": 274754, "internal_node_id": "0.0-4.0-25.0"}}, {"uniqueid": "w52290585:a85331231", "current_trial": 30, "dateTime": 1664555829607, "trialdata": {"rt": 1412, "stimulus": "<p id='stroop-text' class='stroop-red'>SHIP</p>", "response": "r", "stimulus-type": "unrelated", "word": "SHIP", "color": "red", "correct_response": "r", "trial_id": "stroop-trial-1-unrelated-15", "trial_type": "html-keyboard-response", "trial_index": 30, "time_elapsed": 276669, "internal_node_id": "0.0-4.0-26.0"}}, {"uniqueid": "w52290585:a85331231", "current_trial": 31, "dateTime": 1664555831193, "trialdata": {"rt": 1084, "stimulus": "<p id='stroop-text' class='stroop-yellow'>YELLOW</p>", "response": "y", "stimulus-type": "congruent", "word": "yellow", "color": "yellow", "correct_response": "y", "trial_id": "stroop-trial-1-congruent-26", "trial_type": "html-keyboard-response", "trial_index": 31, "time_elapsed": 278256, "internal_node_id": "0.0-4.0-27.0"}}, {"uniqueid": "w52290585:a85331231", "current_trial": 32, "dateTime": 1664555832631, "trialdata": {"rt": 936, "stimulus": "<p id='stroop-text' class='stroop-yellow'>YELLOW</p>", "response": "y", "stimulus-type": "congruent", "word": "yellow", "color": "yellow", "correct_response": "y", "trial_id": "stroop-trial-1-congruent-3", "trial_type": "html-keyboard-response", "trial_index": 32, "time_elapsed": 279694, "internal_node_id": "0.0-4.0-28.0"}}, {"uniqueid": "w52290585:a85331231", "current_trial": 33, "dateTime": 1664555834272, "trialdata": {"rt": 1137, "stimulus": "<p id='stroop-text' class='stroop-yellow'>GREEN</p>", "response": "y", "stimulus-type": "incongruent", "word": "green", "color": "yellow", "correct_response": "y", "trial_id": "stroop-trial-1-incongruent-2", "trial_type": "html-keyboard-response", "trial_index": 33, "time_elapsed": 281335, "internal_node_id": "0.0-4.0-29.0"}}, {"uniqueid": "w52290585:a85331231", "current_trial": 34, "dateTime": 1664555835899, "trialdata": {"rt": 1124, "stimulus": "<p id='stroop-text' class='stroop-red'>FORK</p>", "response": "r", "stimulus-type": "unrelated", "word": "FORK", "color": "red", "correct_response": "r", "trial_id": "stroop-trial-1-unrelated-7", "trial_type": "html-keyboard-response", "trial_index": 34, "time_elapsed": 282962, "internal_node_id": "0.0-4.0-30.0"}}, {"uniqueid": "w52290585:a85331231", "current_trial": 35, "dateTime": 1664555837556, "trialdata": {"rt": 1154, "stimulus": "<p id='stroop-text' class='stroop-red'>BRIDGE</p>", "response": "r", "stimulus-type": "unrelated", "word": "BRIDGE", "color": "red", "correct_response": "r", "trial_id": "stroop-trial-1-unrelated-8", "trial_type": "html-keyboard-response", "trial_index": 35, "time_elapsed": 284618, "internal_node_id": "0.0-4.0-31.0"}}, {"uniqueid": "w52290585:a85331231", "current_trial": 36, "dateTime": 1664555838724, "trialdata": {"rt": 666, "stimulus": "<p id='stroop-text' class='stroop-red'>MONKEY</p>", "response": "r", "stimulus-type": "unrelated", "word": "MONKEY", "color": "red", "correct_response": "r", "trial_id": "stroop-trial-1-unrelated-20", "trial_type": "html-keyboard-response", "trial_index": 36, "time_elapsed": 285787, "internal_node_id": "0.0-4.0-32.0"}}, {"uniqueid": "w52290585:a85331231", "current_trial": 37, "dateTime": 1664555840226, "trialdata": {"rt": 1000, "stimulus": "<p id='stroop-text' class='stroop-yellow'>GREEN</p>", "response": "y", "stimulus-type": "incongruent", "word": "green", "color": "yellow", "correct_response": "y", "trial_id": "stroop-trial-1-incongruent-10", "trial_type": "html-keyboard-response", "trial_index": 37, "time_elapsed": 287289, "internal_node_id": "0.0-4.0-33.0"}}, {"uniqueid": "w52290585:a85331231", "current_trial": 38, "dateTime": 1664555841668, "trialdata": {"rt": 939, "stimulus": "<p id='stroop-text' class='stroop-yellow'>CHAIR</p>", "response": "y", "stimulus-type": "unrelated", "word": "CHAIR", "color": "yellow", "correct_response": "y", "trial_id": "stroop-trial-1-unrelated-14", "trial_type": "html-keyboard-response", "trial_index": 38, "time_elapsed": 288731, "internal_node_id": "0.0-4.0-34.0"}}, {"uniqueid": "w52290585:a85331231", "current_trial": 39, "dateTime": 1664555843967, "trialdata": {"rt": 1795, "stimulus": "<p id='stroop-text' class='stroop-green'>RED</p>", "response": "g", "stimulus-type": "incongruent", "word": "red", "color": "green", "correct_response": "g", "trial_id": "stroop-trial-1-incongruent-9", "trial_type": "html-keyboard-response", "trial_index": 39, "time_elapsed": 291029, "internal_node_id": "0.0-4.0-35.0"}}, {"uniqueid": "w52290585:a85331231", "current_trial": 40, "dateTime": 1664555845364, "trialdata": {"rt": 895, "stimulus": "<p id='stroop-text' class='stroop-blue'>BLUE</p>", "response": "b", "stimulus-type": "congruent", "word": "blue", "color": "blue", "correct_response": "b", "trial_id": "stroop-trial-1-congruent-7", "trial_type": "html-keyboard-response", "trial_index": 40, "time_elapsed": 292426, "internal_node_id": "0.0-4.0-36.0"}}, {"uniqueid": "w52290585:a85331231", "current_trial": 41, "dateTime": 1664555847224, "trialdata": {"rt": 1357, "stimulus": "<p id='stroop-text' class='stroop-blue'>GREEN</p>", "response": "b", "stimulus-type": "incongruent", "word": "green", "color": "blue", "correct_response": "b", "trial_id": "stroop-trial-1-incongruent-29", "trial_type": "html-keyboard-response", "trial_index": 41, "time_elapsed": 294286, "internal_node_id": "0.0-4.0-37.0"}}, {"uniqueid": "w52290585:a85331231", "current_trial": 42, "dateTime": 1664555848845, "trialdata": {"rt": 1119, "stimulus": "<p id='stroop-text' class='stroop-red'>SHIP</p>", "response": "r", "stimulus-type": "unrelated", "word": "SHIP", "color": "red", "correct_response": "r", "trial_id": "stroop-trial-1-unrelated-13", "trial_type": "html-keyboard-response", "trial_index": 42, "time_elapsed": 295908, "internal_node_id": "0.0-4.0-38.0"}}, {"uniqueid": "w52290585:a85331231", "current_trial": 43, "dateTime": 1664555850344, "trialdata": {"rt": 994, "stimulus": "<p id='stroop-text' class='stroop-blue'>BOTTLE</p>", "response": "b", "stimulus-type": "unrelated", "word": "BOTTLE", "color": "blue", "correct_response": "b", "trial_id": "stroop-trial-1-unrelated-4", "trial_type": "html-keyboard-response", "trial_index": 43, "time_elapsed": 297405, "internal_node_id": "0.0-4.0-39.0"}}, {"uniqueid": "w52290585:a85331231", "current_trial": 44, "dateTime": 1664555852367, "trialdata": {"rt": 1520, "stimulus": "<p id='stroop-text' class='stroop-green'>GREEN</p>", "response": "g", "stimulus-type": "congruent", "word": "green", "color": "green", "correct_response": "g", "trial_id": "stroop-trial-1-congruent-30", "trial_type": "html-keyboard-response", "trial_index": 44, "time_elapsed": 299430, "internal_node_id": "0.0-4.0-40.0"}}, {"uniqueid": "w52290585:a85331231", "current_trial": 45, "dateTime": 1664555853889, "trialdata": {"rt": 1018, "stimulus": "<p id='stroop-text' class='stroop-red'>SHIP</p>", "response": "r", "stimulus-type": "unrelated", "word": "SHIP", "color": "red", "correct_response": "r", "trial_id": "stroop-trial-1-unrelated-25", "trial_type": "html-keyboard-response", "trial_index": 45, "time_elapsed": 300952, "internal_node_id": "0.0-4.0-41.0"}}, {"uniqueid": "w52290585:a85331231", "current_trial": 46, "dateTime": 1664555855391, "trialdata": {"rt": 999, "stimulus": "<p id='stroop-text' class='stroop-yellow'>BRAIN</p>", "response": "y", "stimulus-type": "unrelated", "word": "BRAIN", "color": "yellow", "correct_response": "y", "trial_id": "stroop-trial-1-unrelated-29", "trial_type": "html-keyboard-response", "trial_index": 46, "time_elapsed": 302454, "internal_node_id": "0.0-4.0-42.0"}}, {"uniqueid": "w52290585:a85331231", "current_trial": 47, "dateTime": 1664555857187, "trialdata": {"rt": 1293, "stimulus": "<p id='stroop-text' class='stroop-yellow'>GREEN</p>", "response": "y", "stimulus-type": "incongruent", "word": "green", "color": "yellow", "correct_response": "y", "trial_id": "stroop-trial-1-incongruent-22", "trial_type": "html-keyboard-response", "trial_index": 47, "time_elapsed": 304250, "internal_node_id": "0.0-4.0-43.0"}}, {"uniqueid": "w52290585:a85331231", "current_trial": 48, "dateTime": 1664555858525, "trialdata": {"rt": 835, "stimulus": "<p id='stroop-text' class='stroop-red'>YELLOW</p>", "response": "r", "stimulus-type": "incongruent", "word": "yellow", "color": "red", "correct_response": "r", "trial_id": "stroop-trial-1-incongruent-8", "trial_type": "html-keyboard-response", "trial_index": 48, "time_elapsed": 305587, "internal_node_id": "0.0-4.0-44.0"}}, {"uniqueid": "w52290585:a85331231", "current_trial": 49, "dateTime": 1664555860176, "trialdata": {"rt": 1148, "stimulus": "<p id='stroop-text' class='stroop-blue'>YELLOW</p>", "response": "b", "stimulus-type": "incongruent", "word": "yellow", "color": "blue", "correct_response": "b", "trial_id": "stroop-trial-1-incongruent-11", "trial_type": "html-keyboard-response", "trial_index": 49, "time_elapsed": 307238, "internal_node_id": "0.0-4.0-45.0"}}, {"uniqueid": "w52290585:a85331231", "current_trial": 50, "dateTime": 1664555861732, "trialdata": {"rt": 1054, "stimulus": "<p id='stroop-text' class='stroop-red'>RED</p>", "response": "r", "stimulus-type": "congruent", "word": "red", "color": "red", "correct_response": "r", "trial_id": "stroop-trial-1-congruent-1", "trial_type": "html-keyboard-response", "trial_index": 50, "time_elapsed": 308795, "internal_node_id": "0.0-4.0-46.0"}}, {"uniqueid": "w52290585:a85331231", "current_trial": 51, "dateTime": 1664555863060, "trialdata": {"rt": 825, "stimulus": "<p id='stroop-text' class='stroop-yellow'>YELLOW</p>", "response": "y", "stimulus-type": "congruent", "word": "yellow", "color": "yellow", "correct_response": "y", "trial_id": "stroop-trial-1-congruent-19", "trial_type": "html-keyboard-response", "trial_index": 51, "time_elapsed": 310123, "internal_node_id": "0.0-4.0-47.0"}}, {"uniqueid": "w52290585:a85331231", "current_trial": 52, "dateTime": 1664555865045, "trialdata": {"rt": 1481, "stimulus": "<p id='stroop-text' class='stroop-blue'>CHAIR</p>", "response": "b", "stimulus-type": "unrelated", "word": "CHAIR", "color": "blue", "correct_response": "b", "trial_id": "stroop-trial-1-unrelated-12", "trial_type": "html-keyboard-response", "trial_index": 52, "time_elapsed": 312108, "internal_node_id": "0.0-4.0-48.0"}}, {"uniqueid": "w52290585:a85331231", "current_trial": 53, "dateTime": 1664555866354, "trialdata": {"rt": 805, "stimulus": "<p id='stroop-text' class='stroop-red'>RED</p>", "response": "r", "stimulus-type": "congruent", "word": "red", "color": "red", "correct_response": "r", "trial_id": "stroop-trial-1-congruent-24", "trial_type": "html-keyboard-response", "trial_index": 53, "time_elapsed": 313416, "internal_node_id": "0.0-4.0-49.0"}}, {"uniqueid": "w52290585:a85331231", "current_trial": 54, "dateTime": 1664555867905, "trialdata": {"rt": 1048, "stimulus": "<p id='stroop-text' class='stroop-yellow'>YELLOW</p>", "response": "y", "stimulus-type": "congruent", "word": "yellow", "color": "yellow", "correct_response": "y", "trial_id": "stroop-trial-1-congruent-29", "trial_type": "html-keyboard-response", "trial_index": 54, "time_elapsed": 314968, "internal_node_id": "0.0-4.0-50.0"}}, {"uniqueid": "w52290585:a85331231", "current_trial": 55, "dateTime": 1664555869736, "trialdata": {"rt": 1328, "stimulus": "<p id='stroop-text' class='stroop-red'>YELLOW</p>", "response": "r", "stimulus-type": "incongruent", "word": "yellow", "color": "red", "correct_response": "r", "trial_id": "stroop-trial-1-incongruent-19", "trial_type": "html-keyboard-response", "trial_index": 55, "time_elapsed": 316799, "internal_node_id": "0.0-4.0-51.0"}}, {"uniqueid": "w52290585:a85331231", "current_trial": 56, "dateTime": 1664555871637, "trialdata": {"rt": 1396, "stimulus": "<p id='stroop-text' class='stroop-green'>WINDOW</p>", "response": "g", "stimulus-type": "unrelated", "word": "WINDOW", "color": "green", "correct_response": "g", "trial_id": "stroop-trial-1-unrelated-26", "trial_type": "html-keyboard-response", "trial_index": 56, "time_elapsed": 318699, "internal_node_id": "0.0-4.0-52.0"}}, {"uniqueid": "w52290585:a85331231", "current_trial": 57, "dateTime": 1664555873408, "trialdata": {"rt": 1268, "stimulus": "<p id='stroop-text' class='stroop-yellow'>YELLOW</p>", "response": "y", "stimulus-type": "congruent", "word": "yellow", "color": "yellow", "correct_response": "y", "trial_id": "stroop-trial-1-congruent-9", "trial_type": "html-keyboard-response", "trial_index": 57, "time_elapsed": 320470, "internal_node_id": "0.0-4.0-53.0"}}, {"uniqueid": "w52290585:a85331231", "current_trial": 58, "dateTime": 1664555874920, "trialdata": {"rt": 1009, "stimulus": "<p id='stroop-text' class='stroop-red'>RED</p>", "response": "r", "stimulus-type": "congruent", "word": "red", "color": "red", "correct_response": "r", "trial_id": "stroop-trial-1-congruent-13", "trial_type": "html-keyboard-response", "trial_index": 58, "time_elapsed": 321982, "internal_node_id": "0.0-4.0-54.0"}}, {"uniqueid": "w52290585:a85331231", "current_trial": 59, "dateTime": 1664555876621, "trialdata": {"rt": 1197, "stimulus": "<p id='stroop-text' class='stroop-green'>RED</p>", "response": "g", "stimulus-type": "incongruent", "word": "red", "color": "green", "correct_response": "g", "trial_id": "stroop-trial-1-incongruent-15", "trial_type": "html-keyboard-response", "trial_index": 59, "time_elapsed": 323684, "internal_node_id": "0.0-4.0-55.0"}}, {"uniqueid": "w52290585:a85331231", "current_trial": 60, "dateTime": 1664555878079, "trialdata": {"rt": 954, "stimulus": "<p id='stroop-text' class='stroop-red'>RED</p>", "response": "r", "stimulus-type": "congruent", "word": "red", "color": "red", "correct_response": "r", "trial_id": "stroop-trial-1-congruent-21", "trial_type": "html-keyboard-response", "trial_index": 60, "time_elapsed": 325141, "internal_node_id": "0.0-4.0-56.0"}}, {"uniqueid": "w52290585:a85331231", "current_trial": 61, "dateTime": 1664555879651, "trialdata": {"rt": 1069, "stimulus": "<p id='stroop-text' class='stroop-yellow'>BLUE</p>", "response": "b", "stimulus-type": "incongruent", "word": "blue", "color": "yellow", "correct_response": "y", "trial_id": "stroop-trial-1-incongruent-18", "trial_type": "html-keyboard-response", "trial_index": 61, "time_elapsed": 326713, "internal_node_id": "0.0-4.0-57.0"}}, {"uniqueid": "w52290585:a85331231", "current_trial": 62, "dateTime": 1664555882815, "trialdata": {"rt": 2660, "stimulus": "<p id='stroop-text' class='stroop-yellow'>RED</p>", "response": "y", "stimulus-type": "incongruent", "word": "red", "color": "yellow", "correct_response": "y", "trial_id": "stroop-trial-1-incongruent-26", "trial_type": "html-keyboard-response", "trial_index": 62, "time_elapsed": 329877, "internal_node_id": "0.0-4.0-58.0"}}, {"uniqueid": "w52290585:a85331231", "current_trial": 63, "dateTime": 1664555884292, "trialdata": {"rt": 974, "stimulus": "<p id='stroop-text' class='stroop-yellow'>YELLOW</p>", "response": "y", "stimulus-type": "congruent", "word": "yellow", "color": "yellow", "correct_response": "y", "trial_id": "stroop-trial-1-congruent-22", "trial_type": "html-keyboard-response", "trial_index": 63, "time_elapsed": 331355, "internal_node_id": "0.0-4.0-59.0"}}, {"uniqueid": "w52290585:a85331231", "current_trial": 64, "dateTime": 1664555886207, "trialdata": {"rt": 1412, "stimulus": "<p id='stroop-text' class='stroop-green'>YELLOW</p>", "response": "g", "stimulus-type": "incongruent", "word": "yellow", "color": "green", "correct_response": "g", "trial_id": "stroop-trial-1-incongruent-14", "trial_type": "html-keyboard-response", "trial_index": 64, "time_elapsed": 333270, "internal_node_id": "0.0-4.0-60.0"}}, {"uniqueid": "w52290585:a85331231", "current_trial": 65, "dateTime": 1664555888257, "trialdata": {"rt": 1547, "stimulus": "<p id='stroop-text' class='stroop-green'>BLUE</p>", "response": "g", "stimulus-type": "incongruent", "word": "blue", "color": "green", "correct_response": "g", "trial_id": "stroop-trial-1-incongruent-1", "trial_type": "html-keyboard-response", "trial_index": 65, "time_elapsed": 335320, "internal_node_id": "0.0-4.0-61.0"}}, {"uniqueid": "w52290585:a85331231", "current_trial": 66, "dateTime": 1664555889784, "trialdata": {"rt": 1025, "stimulus": "<p id='stroop-text' class='stroop-green'>GREEN</p>", "response": "g", "stimulus-type": "congruent", "word": "green", "color": "green", "correct_response": "g", "trial_id": "stroop-trial-1-congruent-6", "trial_type": "html-keyboard-response", "trial_index": 66, "time_elapsed": 336847, "internal_node_id": "0.0-4.0-62.0"}}, {"uniqueid": "w52290585:a85331231", "current_trial": 67, "dateTime": 1664555891685, "trialdata": {"rt": 1397, "stimulus": "<p id='stroop-text' class='stroop-blue'>BLUE</p>", "response": "b", "stimulus-type": "congruent", "word": "blue", "color": "blue", "correct_response": "b", "trial_id": "stroop-trial-1-congruent-5", "trial_type": "html-keyboard-response", "trial_index": 67, "time_elapsed": 338747, "internal_node_id": "0.0-4.0-63.0"}}, {"uniqueid": "w52290585:a85331231", "current_trial": 68, "dateTime": 1664555893098, "trialdata": {"rt": 910, "stimulus": "<p id='stroop-text' class='stroop-green'>GREEN</p>", "response": "g", "stimulus-type": "congruent", "word": "green", "color": "green", "correct_response": "g", "trial_id": "stroop-trial-1-congruent-28", "trial_type": "html-keyboard-response", "trial_index": 68, "time_elapsed": 340160, "internal_node_id": "0.0-4.0-64.0"}}, {"uniqueid": "w52290585:a85331231", "current_trial": 69, "dateTime": 1664555894595, "trialdata": {"rt": 993, "stimulus": "<p id='stroop-text' class='stroop-red'>GREEN</p>", "response": "r", "stimulus-type": "incongruent", "word": "green", "color": "red", "correct_response": "r", "trial_id": "stroop-trial-1-incongruent-27", "trial_type": "html-keyboard-response", "trial_index": 69, "time_elapsed": 341658, "internal_node_id": "0.0-4.0-65.0"}}, {"uniqueid": "w52290585:a85331231", "current_trial": 70, "dateTime": 1664555896247, "trialdata": {"rt": 1148, "stimulus": "<p id='stroop-text' class='stroop-red'>RED</p>", "response": "r", "stimulus-type": "congruent", "word": "red", "color": "red", "correct_response": "r", "trial_id": "stroop-trial-1-congruent-17", "trial_type": "html-keyboard-response", "trial_index": 70, "time_elapsed": 343309, "internal_node_id": "0.0-4.0-66.0"}}, {"uniqueid": "w52290585:a85331231", "current_trial": 71, "dateTime": 1664555897590, "trialdata": {"rt": 840, "stimulus": "<p id='stroop-text' class='stroop-red'>SHIP</p>", "response": "r", "stimulus-type": "unrelated", "word": "SHIP", "color": "red", "correct_response": "r", "trial_id": "stroop-trial-1-unrelated-2", "trial_type": "html-keyboard-response", "trial_index": 71, "time_elapsed": 344652, "internal_node_id": "0.0-4.0-67.0"}}, {"uniqueid": "w52290585:a85331231", "current_trial": 72, "dateTime": 1664555899446, "trialdata": {"rt": 1351, "stimulus": "<p id='stroop-text' class='stroop-blue'>MONKEY</p>", "response": "b", "stimulus-type": "unrelated", "word": "MONKEY", "color": "blue", "correct_response": "b", "trial_id": "stroop-trial-1-unrelated-23", "trial_type": "html-keyboard-response", "trial_index": 72, "time_elapsed": 346508, "internal_node_id": "0.0-4.0-68.0"}}, {"uniqueid": "w52290585:a85331231", "current_trial": 73, "dateTime": 1664555901117, "trialdata": {"rt": 1168, "stimulus": "<p id='stroop-text' class='stroop-blue'>RED</p>", "response": "b", "stimulus-type": "incongruent", "word": "red", "color": "blue", "correct_response": "b", "trial_id": "stroop-trial-1-incongruent-3", "trial_type": "html-keyboard-response", "trial_index": 73, "time_elapsed": 348179, "internal_node_id": "0.0-4.0-69.0"}}, {"uniqueid": "w52290585:a85331231", "current_trial": 74, "dateTime": 1664555902570, "trialdata": {"rt": 950, "stimulus": "<p id='stroop-text' class='stroop-red'>BOAT</p>", "response": "r", "stimulus-type": "unrelated", "word": "BOAT", "color": "red", "correct_response": "r", "trial_id": "stroop-trial-1-unrelated-30", "trial_type": "html-keyboard-response", "trial_index": 74, "time_elapsed": 349632, "internal_node_id": "0.0-4.0-70.0"}}, {"uniqueid": "w52290585:a85331231", "current_trial": 75, "dateTime": 1664555905311, "trialdata": {"rt": 2238, "stimulus": "<p id='stroop-text' class='stroop-blue'>RED</p>", "response": "b", "stimulus-type": "incongruent", "word": "red", "color": "blue", "correct_response": "b", "trial_id": "stroop-trial-1-incongruent-12", "trial_type": "html-keyboard-response", "trial_index": 75, "time_elapsed": 352374, "internal_node_id": "0.0-4.0-71.0"}}, {"uniqueid": "w52290585:a85331231", "current_trial": 76, "dateTime": 1664555906783, "trialdata": {"rt": 969, "stimulus": "<p id='stroop-text' class='stroop-blue'>BLUE</p>", "response": "b", "stimulus-type": "congruent", "word": "blue", "color": "blue", "correct_response": "b", "trial_id": "stroop-trial-1-congruent-18", "trial_type": "html-keyboard-response", "trial_index": 76, "time_elapsed": 353846, "internal_node_id": "0.0-4.0-72.0"}}, {"uniqueid": "w52290585:a85331231", "current_trial": 77, "dateTime": 1664555908684, "trialdata": {"rt": 1397, "stimulus": "<p id='stroop-text' class='stroop-red'>BOTTLE</p>", "response": "r", "stimulus-type": "unrelated", "word": "BOTTLE", "color": "red", "correct_response": "r", "trial_id": "stroop-trial-1-unrelated-17", "trial_type": "html-keyboard-response", "trial_index": 77, "time_elapsed": 355747, "internal_node_id": "0.0-4.0-73.0"}}, {"uniqueid": "w52290585:a85331231", "current_trial": 78, "dateTime": 1664555910405, "trialdata": {"rt": 1218, "stimulus": "<p id='stroop-text' class='stroop-blue'>CHAIR</p>", "response": "b", "stimulus-type": "unrelated", "word": "CHAIR", "color": "blue", "correct_response": "b", "trial_id": "stroop-trial-1-unrelated-6", "trial_type": "html-keyboard-response", "trial_index": 78, "time_elapsed": 357468, "internal_node_id": "0.0-4.0-74.0"}}, {"uniqueid": "w52290585:a85331231", "current_trial": 79, "dateTime": 1664555912221, "trialdata": {"rt": 1313, "stimulus": "<p id='stroop-text' class='stroop-green'>YELLOW</p>", "response": "g", "stimulus-type": "incongruent", "word": "yellow", "color": "green", "correct_response": "g", "trial_id": "stroop-trial-1-incongruent-13", "trial_type": "html-keyboard-response", "trial_index": 79, "time_elapsed": 359284, "internal_node_id": "0.0-4.0-75.0"}}, {"uniqueid": "w52290585:a85331231", "current_trial": 80, "dateTime": 1664555913525, "trialdata": {"rt": 800, "stimulus": "<p id='stroop-text' class='stroop-red'>RED</p>", "response": "r", "stimulus-type": "congruent", "word": "red", "color": "red", "correct_response": "r", "trial_id": "stroop-trial-1-congruent-10", "trial_type": "html-keyboard-response", "trial_index": 80, "time_elapsed": 360587, "internal_node_id": "0.0-4.0-76.0"}}, {"uniqueid": "w52290585:a85331231", "current_trial": 81, "dateTime": 1664555915405, "trialdata": {"rt": 1376, "stimulus": "<p id='stroop-text' class='stroop-green'>FORK</p>", "response": "g", "stimulus-type": "unrelated", "word": "FORK", "color": "green", "correct_response": "g", "trial_id": "stroop-trial-1-unrelated-1", "trial_type": "html-keyboard-response", "trial_index": 81, "time_elapsed": 362468, "internal_node_id": "0.0-4.0-77.0"}}, {"uniqueid": "w52290585:a85331231", "current_trial": 82, "dateTime": 1664555916947, "trialdata": {"rt": 1036, "stimulus": "<p id='stroop-text' class='stroop-blue'>BRIDGE</p>", "response": "b", "stimulus-type": "unrelated", "word": "BRIDGE", "color": "blue", "correct_response": "b", "trial_id": "stroop-trial-1-unrelated-9", "trial_type": "html-keyboard-response", "trial_index": 82, "time_elapsed": 364010, "internal_node_id": "0.0-4.0-78.0"}}, {"uniqueid": "w52290585:a85331231", "current_trial": 83, "dateTime": 1664555920157, "trialdata": {"rt": 2705, "stimulus": "<p id='stroop-text' class='stroop-green'>YELLOW</p>", "response": "g", "stimulus-type": "incongruent", "word": "yellow", "color": "green", "correct_response": "g", "trial_id": "stroop-trial-1-incongruent-16", "trial_type": "html-keyboard-response", "trial_index": 83, "time_elapsed": 367219, "internal_node_id": "0.0-4.0-79.0"}}, {"uniqueid": "w52290585:a85331231", "current_trial": 84, "dateTime": 1664555921823, "trialdata": {"rt": 1163, "stimulus": "<p id='stroop-text' class='stroop-green'>GREEN</p>", "response": "g", "stimulus-type": "congruent", "word": "green", "color": "green", "correct_response": "g", "trial_id": "stroop-trial-1-congruent-16", "trial_type": "html-keyboard-response", "trial_index": 84, "time_elapsed": 368886, "internal_node_id": "0.0-4.0-80.0"}}, {"uniqueid": "w52290585:a85331231", "current_trial": 85, "dateTime": 1664555923153, "trialdata": {"rt": 824, "stimulus": "<p id='stroop-text' class='stroop-red'>RED</p>", "response": "r", "stimulus-type": "congruent", "word": "red", "color": "red", "correct_response": "r", "trial_id": "stroop-trial-1-congruent-25", "trial_type": "html-keyboard-response", "trial_index": 85, "time_elapsed": 370216, "internal_node_id": "0.0-4.0-81.0"}}, {"uniqueid": "w52290585:a85331231", "current_trial": 86, "dateTime": 1664555924964, "trialdata": {"rt": 1308, "stimulus": "<p id='stroop-text' class='stroop-red'>CHAIR</p>", "response": "r", "stimulus-type": "unrelated", "word": "CHAIR", "color": "red", "correct_response": "r", "trial_id": "stroop-trial-1-unrelated-19", "trial_type": "html-keyboard-response", "trial_index": 86, "time_elapsed": 372027, "internal_node_id": "0.0-4.0-82.0"}}, {"uniqueid": "w52290585:a85331231", "current_trial": 87, "dateTime": 1664555926576, "trialdata": {"rt": 1109, "stimulus": "<p id='stroop-text' class='stroop-green'>BRIDGE</p>", "response": "g", "stimulus-type": "unrelated", "word": "BRIDGE", "color": "green", "correct_response": "g", "trial_id": "stroop-trial-1-unrelated-16", "trial_type": "html-keyboard-response", "trial_index": 87, "time_elapsed": 373639, "internal_node_id": "0.0-4.0-83.0"}}, {"uniqueid": "w52290585:a85331231", "current_trial": 88, "dateTime": 1664555928035, "trialdata": {"rt": 954, "stimulus": "<p id='stroop-text' class='stroop-blue'>STONE</p>", "response": "b", "stimulus-type": "unrelated", "word": "STONE", "color": "blue", "correct_response": "b", "trial_id": "stroop-trial-1-unrelated-22", "trial_type": "html-keyboard-response", "trial_index": 88, "time_elapsed": 375098, "internal_node_id": "0.0-4.0-84.0"}}, {"uniqueid": "w52290585:a85331231", "current_trial": 89, "dateTime": 1664555929811, "trialdata": {"rt": 1274, "stimulus": "<p id='stroop-text' class='stroop-green'>RED</p>", "response": "g", "stimulus-type": "incongruent", "word": "red", "color": "green", "correct_response": "g", "trial_id": "stroop-trial-1-incongruent-23", "trial_type": "html-keyboard-response", "trial_index": 89, "time_elapsed": 376874, "internal_node_id": "0.0-4.0-85.0"}}, {"uniqueid": "w52290585:a85331231", "current_trial": 90, "dateTime": 1664555931334, "trialdata": {"rt": 1018, "stimulus": "<p id='stroop-text' class='stroop-red'>RED</p>", "response": "r", "stimulus-type": "congruent", "word": "red", "color": "red", "correct_response": "r", "trial_id": "stroop-trial-1-congruent-12", "trial_type": "html-keyboard-response", "trial_index": 90, "time_elapsed": 378396, "internal_node_id": "0.0-4.0-86.0"}}, {"uniqueid": "w52290585:a85331231", "current_trial": 91, "dateTime": 1664555932618, "trialdata": {"rt": 771, "stimulus": "<p id='stroop-text' class='stroop-red'>RED</p>", "response": "r", "stimulus-type": "congruent", "word": "red", "color": "red", "correct_response": "r", "trial_id": "stroop-trial-1-congruent-23", "trial_type": "html-keyboard-response", "trial_index": 91, "time_elapsed": 379680, "internal_node_id": "0.0-4.0-87.0"}}, {"uniqueid": "w52290585:a85331231", "current_trial": 92, "dateTime": 1664555933887, "trialdata": {"rt": 764, "stimulus": "<p id='stroop-text' class='stroop-red'>BRAIN</p>", "response": "r", "stimulus-type": "unrelated", "word": "BRAIN", "color": "red", "correct_response": "r", "trial_id": "stroop-trial-1-unrelated-21", "trial_type": "html-keyboard-response", "trial_index": 92, "time_elapsed": 380949, "internal_node_id": "0.0-4.0-88.0"}}, {"uniqueid": "w52290585:a85331231", "current_trial": 93, "dateTime": 1664555935708, "trialdata": {"rt": 1319, "stimulus": "<p id='stroop-text' class='stroop-blue'>RED</p>", "response": "b", "stimulus-type": "incongruent", "word": "red", "color": "blue", "correct_response": "b", "trial_id": "stroop-trial-1-incongruent-24", "trial_type": "html-keyboard-response", "trial_index": 93, "time_elapsed": 382771, "internal_node_id": "0.0-4.0-89.0"}}, {"uniqueid": "w52290585:a85331231", "current_trial": 94, "dateTime": 1664555950741, "trialdata": {"rt": 14528, "stimulus": "  <h1> End of block! </h1>\n\n  You have reached the end of the block 1/5. If you need a short break, feel free to take one now before moving on.\n\n  <br><br>\n  In the next block, you will complete another 90 rounds of this game.\n\n  <br><br>\n  <div style='text-align: center;'>Press <code>space</code> to begin.</div>\n  <br><br>\n<div style='text-align: center;'>(If the experiment doesn't continue, try clicking on the text and then pressing <code>space</code>.)</div>", "response": " ", "trial_id": "stroop_1_ready_2", "trial_type": "html-keyboard-response", "trial_index": 94, "time_elapsed": 397804, "internal_node_id": "0.0-5.0"}}, {"uniqueid": "w52290585:a85331231", "current_trial": 95, "dateTime": 1664555953182, "trialdata": {"rt": 2437, "stimulus": "<p id='stroop-text' class='stroop-yellow'>YELLOW</p>", "response": "y", "stimulus-type": "congruent", "word": "yellow", "color": "yellow", "correct_response": "y", "trial_id": "stroop-trial-1-congruent-9", "trial_type": "html-keyboard-response", "trial_index": 95, "time_elapsed": 400245, "internal_node_id": "0.0-6.0-0.0"}}, {"uniqueid": "w52290585:a85331231", "current_trial": 96, "dateTime": 1664555955096, "trialdata": {"rt": 1411, "stimulus": "<p id='stroop-text' class='stroop-blue'>BRAIN</p>", "response": "b", "stimulus-type": "unrelated", "word": "BRAIN", "color": "blue", "correct_response": "b", "trial_id": "stroop-trial-1-unrelated-3", "trial_type": "html-keyboard-response", "trial_index": 96, "time_elapsed": 402159, "internal_node_id": "0.0-6.0-1.0"}}, {"uniqueid": "w52290585:a85331231", "current_trial": 97, "dateTime": 1664555956350, "trialdata": {"rt": 750, "stimulus": "<p id='stroop-text' class='stroop-yellow'>YELLOW</p>", "response": "y", "stimulus-type": "congruent", "word": "yellow", "color": "yellow", "correct_response": "y", "trial_id": "stroop-trial-1-congruent-24", "trial_type": "html-keyboard-response", "trial_index": 97, "time_elapsed": 403413, "internal_node_id": "0.0-6.0-2.0"}}, {"uniqueid": "w52290585:a85331231", "current_trial": 98, "dateTime": 1664555957883, "trialdata": {"rt": 1029, "stimulus": "<p id='stroop-text' class='stroop-red'>BRIDGE</p>", "response": "r", "stimulus-type": "unrelated", "word": "BRIDGE", "color": "red", "correct_response": "r", "trial_id": "stroop-trial-1-unrelated-5", "trial_type": "html-keyboard-response", "trial_index": 98, "time_elapsed": 404945, "internal_node_id": "0.0-6.0-3.0"}}, {"uniqueid": "w52290585:a85331231", "current_trial": 99, "dateTime": 1664555959768, "trialdata": {"rt": 1381, "stimulus": "<p id='stroop-text' class='stroop-blue'>STONE</p>", "response": "b", "stimulus-type": "unrelated", "word": "STONE", "color": "blue", "correct_response": "b", "trial_id": "stroop-trial-1-unrelated-14", "trial_type": "html-keyboard-response", "trial_index": 99, "time_elapsed": 406831, "internal_node_id": "0.0-6.0-4.0"}}, {"uniqueid": "w52290585:a85331231", "current_trial": 100, "dateTime": 1664555961217, "trialdata": {"rt": 944, "stimulus": "<p id='stroop-text' class='stroop-red'>BOTTLE</p>", "response": "r", "stimulus-type": "unrelated", "word": "BOTTLE", "color": "red", "correct_response": "r", "trial_id": "stroop-trial-1-unrelated-17", "trial_type": "html-keyboard-response", "trial_index": 100, "time_elapsed": 408279, "internal_node_id": "0.0-6.0-5.0"}}, {"uniqueid": "w52290585:a85331231", "current_trial": 101, "dateTime": 1664555962550, "trialdata": {"rt": 829, "stimulus": "<p id='stroop-text' class='stroop-red'>BLUE</p>", "response": "r", "stimulus-type": "incongruent", "word": "blue", "color": "red", "correct_response": "r", "trial_id": "stroop-trial-1-incongruent-8", "trial_type": "html-keyboard-response", "trial_index": 101, "time_elapsed": 409613, "internal_node_id": "0.0-6.0-6.0"}}, {"uniqueid": "w52290585:a85331231", "current_trial": 102, "dateTime": 1664555963744, "trialdata": {"rt": 691, "stimulus": "<p id='stroop-text' class='stroop-red'>STONE</p>", "response": "r", "stimulus-type": "unrelated", "word": "STONE", "color": "red", "correct_response": "r", "trial_id": "stroop-trial-1-unrelated-1", "trial_type": "html-keyboard-response", "trial_index": 102, "time_elapsed": 410807, "internal_node_id": "0.0-6.0-7.0"}}, {"uniqueid": "w52290585:a85331231", "current_trial": 103, "dateTime": 1664555965053, "trialdata": {"rt": 806, "stimulus": "<p id='stroop-text' class='stroop-red'>RED</p>", "response": "r", "stimulus-type": "congruent", "word": "red", "color": "red", "correct_response": "r", "trial_id": "stroop-trial-1-congruent-26", "trial_type": "html-keyboard-response", "trial_index": 103, "time_elapsed": 412116, "internal_node_id": "0.0-6.0-8.0"}}, {"uniqueid": "w52290585:a85331231", "current_trial": 104, "dateTime": 1664555966884, "trialdata": {"rt": 1328, "stimulus": "<p id='stroop-text' class='stroop-green'>GREEN</p>", "response": "g", "stimulus-type": "congruent", "word": "green", "color": "green", "correct_response": "g", "trial_id": "stroop-trial-1-congruent-7", "trial_type": "html-keyboard-response", "trial_index": 104, "time_elapsed": 413947, "internal_node_id": "0.0-6.0-9.0"}}, {"uniqueid": "w52290585:a85331231", "current_trial": 105, "dateTime": 1664555968557, "trialdata": {"rt": 1169, "stimulus": "<p id='stroop-text' class='stroop-blue'>GREEN</p>", "response": "b", "stimulus-type": "incongruent", "word": "green", "color": "blue", "correct_response": "b", "trial_id": "stroop-trial-1-incongruent-18", "trial_type": "html-keyboard-response", "trial_index": 105, "time_elapsed": 415619, "internal_node_id": "0.0-6.0-10.0"}}, {"uniqueid": "w52290585:a85331231", "current_trial": 106, "dateTime": 1664555970483, "trialdata": {"rt": 1422, "stimulus": "<p id='stroop-text' class='stroop-blue'>MONKEY</p>", "response": "b", "stimulus-type": "unrelated", "word": "MONKEY", "color": "blue", "correct_response": "b", "trial_id": "stroop-trial-1-unrelated-6", "trial_type": "html-keyboard-response", "trial_index": 106, "time_elapsed": 417545, "internal_node_id": "0.0-6.0-11.0"}}, {"uniqueid": "w52290585:a85331231", "current_trial": 107, "dateTime": 1664555971563, "trialdata": {"rt": 575, "stimulus": "<p id='stroop-text' class='stroop-blue'>RED</p>", "response": "b", "stimulus-type": "incongruent", "word": "red", "color": "blue", "correct_response": "b", "trial_id": "stroop-trial-1-incongruent-13", "trial_type": "html-keyboard-response", "trial_index": 107, "time_elapsed": 418626, "internal_node_id": "0.0-6.0-12.0"}}, {"uniqueid": "w52290585:a85331231", "current_trial": 108, "dateTime": 1664555972976, "trialdata": {"rt": 909, "stimulus": "<p id='stroop-text' class='stroop-red'>RED</p>", "response": "r", "stimulus-type": "congruent", "word": "red", "color": "red", "correct_response": "r", "trial_id": "stroop-trial-1-congruent-21", "trial_type": "html-keyboard-response", "trial_index": 108, "time_elapsed": 420039, "internal_node_id": "0.0-6.0-13.0"}}, {"uniqueid": "w52290585:a85331231", "current_trial": 109, "dateTime": 1664555975917, "trialdata": {"rt": 2438, "stimulus": "<p id='stroop-text' class='stroop-blue'>YELLOW</p>", "response": "b", "stimulus-type": "incongruent", "word": "yellow", "color": "blue", "correct_response": "b", "trial_id": "stroop-trial-1-incongruent-24", "trial_type": "html-keyboard-response", "trial_index": 109, "time_elapsed": 422980, "internal_node_id": "0.0-6.0-14.0"}}, {"uniqueid": "w52290585:a85331231", "current_trial": 110, "dateTime": 1664555977236, "trialdata": {"rt": 816, "stimulus": "<p id='stroop-text' class='stroop-red'>MONKEY</p>", "response": "r", "stimulus-type": "unrelated", "word": "MONKEY", "color": "red", "correct_response": "r", "trial_id": "stroop-trial-1-unrelated-8", "trial_type": "html-keyboard-response", "trial_index": 110, "time_elapsed": 424299, "internal_node_id": "0.0-6.0-15.0"}}, {"uniqueid": "w52290585:a85331231", "current_trial": 111, "dateTime": 1664555978988, "trialdata": {"rt": 1248, "stimulus": "<p id='stroop-text' class='stroop-red'>BLUE</p>", "response": "r", "stimulus-type": "incongruent", "word": "blue", "color": "red", "correct_response": "r", "trial_id": "stroop-trial-1-incongruent-7", "trial_type": "html-keyboard-response", "trial_index": 111, "time_elapsed": 426050, "internal_node_id": "0.0-6.0-16.0"}}, {"uniqueid": "w52290585:a85331231", "current_trial": 112, "dateTime": 1664555980501, "trialdata": {"rt": 1009, "stimulus": "<p id='stroop-text' class='stroop-yellow'>GREEN</p>", "response": "y", "stimulus-type": "incongruent", "word": "green", "color": "yellow", "correct_response": "y", "trial_id": "stroop-trial-1-incongruent-19", "trial_type": "html-keyboard-response", "trial_index": 112, "time_elapsed": 427563, "internal_node_id": "0.0-6.0-17.0"}}, {"uniqueid": "w52290585:a85331231", "current_trial": 113, "dateTime": 1664555982914, "trialdata": {"rt": 1911, "stimulus": "<p id='stroop-text' class='stroop-blue'>RED</p>", "response": "b", "stimulus-type": "incongruent", "word": "red", "color": "blue", "correct_response": "b", "trial_id": "stroop-trial-1-incongruent-25", "trial_type": "html-keyboard-response", "trial_index": 113, "time_elapsed": 429977, "internal_node_id": "0.0-6.0-18.0"}}, {"uniqueid": "w52290585:a85331231", "current_trial": 114, "dateTime": 1664555986054, "trialdata": {"rt": 2637, "stimulus": "<p id='stroop-text' class='stroop-yellow'>CHAIR</p>", "response": "y", "stimulus-type": "unrelated", "word": "CHAIR", "color": "yellow", "correct_response": "y", "trial_id": "stroop-trial-1-unrelated-27", "trial_type": "html-keyboard-response", "trial_index": 114, "time_elapsed": 433117, "internal_node_id": "0.0-6.0-19.0"}}, {"uniqueid": "w52290585:a85331231", "current_trial": 115, "dateTime": 1664555987144, "trialdata": {"rt": 585, "stimulus": "<p id='stroop-text' class='stroop-yellow'>YELLOW</p>", "response": "y", "stimulus-type": "congruent", "word": "yellow", "color": "yellow", "correct_response": "y", "trial_id": "stroop-trial-1-congruent-18", "trial_type": "html-keyboard-response", "trial_index": 115, "time_elapsed": 434207, "internal_node_id": "0.0-6.0-20.0"}}, {"uniqueid": "w52290585:a85331231", "current_trial": 116, "dateTime": 1664555988846, "trialdata": {"rt": 1199, "stimulus": "<p id='stroop-text' class='stroop-blue'>BLUE</p>", "response": "b", "stimulus-type": "congruent", "word": "blue", "color": "blue", "correct_response": "b", "trial_id": "stroop-trial-1-congruent-5", "trial_type": "html-keyboard-response", "trial_index": 116, "time_elapsed": 435909, "internal_node_id": "0.0-6.0-21.0"}}, {"uniqueid": "w52290585:a85331231", "current_trial": 117, "dateTime": 1664555990120, "trialdata": {"rt": 770, "stimulus": "<p id='stroop-text' class='stroop-blue'>BLUE</p>", "response": "b", "stimulus-type": "congruent", "word": "blue", "color": "blue", "correct_response": "b", "trial_id": "stroop-trial-1-congruent-14", "trial_type": "html-keyboard-response", "trial_index": 117, "time_elapsed": 437183, "internal_node_id": "0.0-6.0-22.0"}}, {"uniqueid": "w52290585:a85331231", "current_trial": 118, "dateTime": 1664555991827, "trialdata": {"rt": 1204, "stimulus": "<p id='stroop-text' class='stroop-green'>GREEN</p>", "response": "g", "stimulus-type": "congruent", "word": "green", "color": "green", "correct_response": "g", "trial_id": "stroop-trial-1-congruent-10", "trial_type": "html-keyboard-response", "trial_index": 118, "time_elapsed": 438890, "internal_node_id": "0.0-6.0-23.0"}}, {"uniqueid": "w52290585:a85331231", "current_trial": 119, "dateTime": 1664555993625, "trialdata": {"rt": 1293, "stimulus": "<p id='stroop-text' class='stroop-green'>GREEN</p>", "response": "g", "stimulus-type": "congruent", "word": "green", "color": "green", "correct_response": "g", "trial_id": "stroop-trial-1-congruent-15", "trial_type": "html-keyboard-response", "trial_index": 119, "time_elapsed": 440687, "internal_node_id": "0.0-6.0-24.0"}}, {"uniqueid": "w52290585:a85331231", "current_trial": 120, "dateTime": 1664555995197, "trialdata": {"rt": 1068, "stimulus": "<p id='stroop-text' class='stroop-red'>BLUE</p>", "response": "r", "stimulus-type": "incongruent", "word": "blue", "color": "red", "correct_response": "r", "trial_id": "stroop-trial-1-incongruent-4", "trial_type": "html-keyboard-response", "trial_index": 120, "time_elapsed": 442260, "internal_node_id": "0.0-6.0-25.0"}}, {"uniqueid": "w52290585:a85331231", "current_trial": 121, "dateTime": 1664555996282, "trialdata": {"rt": 582, "stimulus": "<p id='stroop-text' class='stroop-red'>RED</p>", "response": "r", "stimulus-type": "congruent", "word": "red", "color": "red", "correct_response": "r", "trial_id": "stroop-trial-1-congruent-2", "trial_type": "html-keyboard-response", "trial_index": 121, "time_elapsed": 443345, "internal_node_id": "0.0-6.0-26.0"}}, {"uniqueid": "w52290585:a85331231", "current_trial": 122, "dateTime": 1664555997905, "trialdata": {"rt": 1111, "stimulus": "<p id='stroop-text' class='stroop-yellow'>YELLOW</p>", "response": "y", "stimulus-type": "congruent", "word": "yellow", "color": "yellow", "correct_response": "y", "trial_id": "stroop-trial-1-congruent-17", "trial_type": "html-keyboard-response", "trial_index": 122, "time_elapsed": 444967, "internal_node_id": "0.0-6.0-27.0"}}, {"uniqueid": "w52290585:a85331231", "current_trial": 123, "dateTime": 1664556000368, "trialdata": {"rt": 1958, "stimulus": "<p id='stroop-text' class='stroop-blue'>GREEN</p>", "response": "b", "stimulus-type": "incongruent", "word": "green", "color": "blue", "correct_response": "b", "trial_id": "stroop-trial-1-incongruent-17", "trial_type": "html-keyboard-response", "trial_index": 123, "time_elapsed": 447430, "internal_node_id": "0.0-6.0-28.0"}}, {"uniqueid": "w52290585:a85331231", "current_trial": 124, "dateTime": 1664556001990, "trialdata": {"rt": 1119, "stimulus": "<p id='stroop-text' class='stroop-green'>CHAIR</p>", "response": "g", "stimulus-type": "unrelated", "word": "CHAIR", "color": "green", "correct_response": "g", "trial_id": "stroop-trial-1-unrelated-16", "trial_type": "html-keyboard-response", "trial_index": 124, "time_elapsed": 449053, "internal_node_id": "0.0-6.0-29.0"}}, {"uniqueid": "w52290585:a85331231", "current_trial": 125, "dateTime": 1664556003588, "trialdata": {"rt": 1093, "stimulus": "<p id='stroop-text' class='stroop-green'>BRIDGE</p>", "response": "g", "stimulus-type": "unrelated", "word": "BRIDGE", "color": "green", "correct_response": "g", "trial_id": "stroop-trial-1-unrelated-10", "trial_type": "html-keyboard-response", "trial_index": 125, "time_elapsed": 450651, "internal_node_id": "0.0-6.0-30.0"}}, {"uniqueid": "w52290585:a85331231", "current_trial": 126, "dateTime": 1664556005659, "trialdata": {"rt": 1567, "stimulus": "<p id='stroop-text' class='stroop-green'>RED</p>", "response": "g", "stimulus-type": "incongruent", "word": "red", "color": "green", "correct_response": "g", "trial_id": "stroop-trial-1-incongruent-27", "trial_type": "html-keyboard-response", "trial_index": 126, "time_elapsed": 452721, "internal_node_id": "0.0-6.0-31.0"}}, {"uniqueid": "w52290585:a85331231", "current_trial": 127, "dateTime": 1664556006963, "trialdata": {"rt": 799, "stimulus": "<p id='stroop-text' class='stroop-green'>GREEN</p>", "response": "g", "stimulus-type": "congruent", "word": "green", "color": "green", "correct_response": "g", "trial_id": "stroop-trial-1-congruent-23", "trial_type": "html-keyboard-response", "trial_index": 127, "time_elapsed": 454025, "internal_node_id": "0.0-6.0-32.0"}}, {"uniqueid": "w52290585:a85331231", "current_trial": 128, "dateTime": 1664556008486, "trialdata": {"rt": 1007, "stimulus": "<p id='stroop-text' class='stroop-blue'>BLUE</p>", "response": "b", "stimulus-type": "congruent", "word": "blue", "color": "blue", "correct_response": "b", "trial_id": "stroop-trial-1-congruent-13", "trial_type": "html-keyboard-response", "trial_index": 128, "time_elapsed": 455548, "internal_node_id": "0.0-6.0-33.0"}}, {"uniqueid": "w52290585:a85331231", "current_trial": 129, "dateTime": 1664556009934, "trialdata": {"rt": 945, "stimulus": "<p id='stroop-text' class='stroop-green'>GREEN</p>", "response": "g", "stimulus-type": "congruent", "word": "green", "color": "green", "correct_response": "g", "trial_id": "stroop-trial-1-congruent-12", "trial_type": "html-keyboard-response", "trial_index": 129, "time_elapsed": 456997, "internal_node_id": "0.0-6.0-34.0"}}, {"uniqueid": "w52290585:a85331231", "current_trial": 130, "dateTime": 1664556011493, "trialdata": {"rt": 1055, "stimulus": "<p id='stroop-text' class='stroop-blue'>BLUE</p>", "response": "b", "stimulus-type": "congruent", "word": "blue", "color": "blue", "correct_response": "b", "trial_id": "stroop-trial-1-congruent-25", "trial_type": "html-keyboard-response", "trial_index": 130, "time_elapsed": 458555, "internal_node_id": "0.0-6.0-35.0"}}, {"uniqueid": "w52290585:a85331231", "current_trial": 131, "dateTime": 1664556012752, "trialdata": {"rt": 756, "stimulus": "<p id='stroop-text' class='stroop-blue'>BLUE</p>", "response": "b", "stimulus-type": "congruent", "word": "blue", "color": "blue", "correct_response": "b", "trial_id": "stroop-trial-1-congruent-27", "trial_type": "html-keyboard-response", "trial_index": 131, "time_elapsed": 459815, "internal_node_id": "0.0-6.0-36.0"}}, {"uniqueid": "w52290585:a85331231", "current_trial": 132, "dateTime": 1664556014579, "trialdata": {"rt": 1323, "stimulus": "<p id='stroop-text' class='stroop-blue'>BLUE</p>", "response": "b", "stimulus-type": "congruent", "word": "blue", "color": "blue", "correct_response": "b", "trial_id": "stroop-trial-1-congruent-29", "trial_type": "html-keyboard-response", "trial_index": 132, "time_elapsed": 461642, "internal_node_id": "0.0-6.0-37.0"}}, {"uniqueid": "w52290585:a85331231", "current_trial": 133, "dateTime": 1664556018018, "trialdata": {"rt": 2935, "stimulus": "<p id='stroop-text' class='stroop-green'>SHIP</p>", "response": "g", "stimulus-type": "unrelated", "word": "SHIP", "color": "green", "correct_response": "g", "trial_id": "stroop-trial-1-unrelated-7", "trial_type": "html-keyboard-response", "trial_index": 133, "time_elapsed": 465081, "internal_node_id": "0.0-6.0-38.0"}}, {"uniqueid": "w52290585:a85331231", "current_trial": 134, "dateTime": 1664556019884, "trialdata": {"rt": 1361, "stimulus": "<p id='stroop-text' class='stroop-green'>BLUE</p>", "response": "g", "stimulus-type": "incongruent", "word": "blue", "color": "green", "correct_response": "g", "trial_id": "stroop-trial-1-incongruent-9", "trial_type": "html-keyboard-response", "trial_index": 134, "time_elapsed": 466947, "internal_node_id": "0.0-6.0-39.0"}}, {"uniqueid": "w52290585:a85331231", "current_trial": 135, "dateTime": 1664556021049, "trialdata": {"rt": 662, "stimulus": "<p id='stroop-text' class='stroop-green'>BLUE</p>", "response": "g", "stimulus-type": "incongruent", "word": "blue", "color": "green", "correct_response": "g", "trial_id": "stroop-trial-1-incongruent-29", "trial_type": "html-keyboard-response", "trial_index": 135, "time_elapsed": 468112, "internal_node_id": "0.0-6.0-40.0"}}, {"uniqueid": "w52290585:a85331231", "current_trial": 136, "dateTime": 1664556022423, "trialdata": {"rt": 871, "stimulus": "<p id='stroop-text' class='stroop-red'>GREEN</p>", "response": "r", "stimulus-type": "incongruent", "word": "green", "color": "red", "correct_response": "r", "trial_id": "stroop-trial-1-incongruent-12", "trial_type": "html-keyboard-response", "trial_index": 136, "time_elapsed": 469486, "internal_node_id": "0.0-6.0-41.0"}}, {"uniqueid": "w52290585:a85331231", "current_trial": 137, "dateTime": 1664556024742, "trialdata": {"rt": 1814, "stimulus": "<p id='stroop-text' class='stroop-yellow'>YELLOW</p>", "response": "y", "stimulus-type": "congruent", "word": "yellow", "color": "yellow", "correct_response": "y", "trial_id": "stroop-trial-1-congruent-6", "trial_type": "html-keyboard-response", "trial_index": 137, "time_elapsed": 471805, "internal_node_id": "0.0-6.0-42.0"}}, {"uniqueid": "w52290585:a85331231", "current_trial": 138, "dateTime": 1664556026146, "trialdata": {"rt": 900, "stimulus": "<p id='stroop-text' class='stroop-yellow'>GREEN</p>", "response": "y", "stimulus-type": "incongruent", "word": "green", "color": "yellow", "correct_response": "y", "trial_id": "stroop-trial-1-incongruent-1", "trial_type": "html-keyboard-response", "trial_index": 138, "time_elapsed": 473208, "internal_node_id": "0.0-6.0-43.0"}}, {"uniqueid": "w52290585:a85331231", "current_trial": 139, "dateTime": 1664556028197, "trialdata": {"rt": 1546, "stimulus": "<p id='stroop-text' class='stroop-green'>BLUE</p>", "response": "g", "stimulus-type": "incongruent", "word": "blue", "color": "green", "correct_response": "g", "trial_id": "stroop-trial-1-incongruent-6", "trial_type": "html-keyboard-response", "trial_index": 139, "time_elapsed": 475259, "internal_node_id": "0.0-6.0-44.0"}}, {"uniqueid": "w52290585:a85331231", "current_trial": 140, "dateTime": 1664556030033, "trialdata": {"rt": 1332, "stimulus": "<p id='stroop-text' class='stroop-red'>BRIDGE</p>", "response": "r", "stimulus-type": "unrelated", "word": "BRIDGE", "color": "red", "correct_response": "r", "trial_id": "stroop-trial-1-unrelated-20", "trial_type": "html-keyboard-response", "trial_index": 140, "time_elapsed": 477096, "internal_node_id": "0.0-6.0-45.0"}}, {"uniqueid": "w52290585:a85331231", "current_trial": 141, "dateTime": 1664556031377, "trialdata": {"rt": 837, "stimulus": "<p id='stroop-text' class='stroop-red'>RED</p>", "response": "r", "stimulus-type": "congruent", "word": "red", "color": "red", "correct_response": "r", "trial_id": "stroop-trial-1-congruent-30", "trial_type": "html-keyboard-response", "trial_index": 141, "time_elapsed": 478439, "internal_node_id": "0.0-6.0-46.0"}}, {"uniqueid": "w52290585:a85331231", "current_trial": 142, "dateTime": 1664556035643, "trialdata": {"rt": 3762, "stimulus": "<p id='stroop-text' class='stroop-red'>STONE</p>", "response": "r", "stimulus-type": "unrelated", "word": "STONE", "color": "red", "correct_response": "r", "trial_id": "stroop-trial-1-unrelated-24", "trial_type": "html-keyboard-response", "trial_index": 142, "time_elapsed": 482705, "internal_node_id": "0.0-6.0-47.0"}}, {"uniqueid": "w52290585:a85331231", "current_trial": 143, "dateTime": 1664556037146, "trialdata": {"rt": 999, "stimulus": "<p id='stroop-text' class='stroop-yellow'>YELLOW</p>", "response": "y", "stimulus-type": "congruent", "word": "yellow", "color": "yellow", "correct_response": "y", "trial_id": "stroop-trial-1-congruent-4", "trial_type": "html-keyboard-response", "trial_index": 143, "time_elapsed": 484209, "internal_node_id": "0.0-6.0-48.0"}}, {"uniqueid": "w52290585:a85331231", "current_trial": 144, "dateTime": 1664556038878, "trialdata": {"rt": 1229, "stimulus": "<p id='stroop-text' class='stroop-yellow'>BLUE</p>", "response": "y", "stimulus-type": "incongruent", "word": "blue", "color": "yellow", "correct_response": "y", "trial_id": "stroop-trial-1-incongruent-22", "trial_type": "html-keyboard-response", "trial_index": 144, "time_elapsed": 485941, "internal_node_id": "0.0-6.0-49.0"}}, {"uniqueid": "w52290585:a85331231", "current_trial": 145, "dateTime": 1664556040934, "trialdata": {"rt": 1552, "stimulus": "<p id='stroop-text' class='stroop-blue'>BLUE</p>", "response": "b", "stimulus-type": "congruent", "word": "blue", "color": "blue", "correct_response": "b", "trial_id": "stroop-trial-1-congruent-19", "trial_type": "html-keyboard-response", "trial_index": 145, "time_elapsed": 487997, "internal_node_id": "0.0-6.0-50.0"}}, {"uniqueid": "w52290585:a85331231", "current_trial": 146, "dateTime": 1664556043413, "trialdata": {"rt": 1974, "stimulus": "<p id='stroop-text' class='stroop-red'>YELLOW</p>", "response": "r", "stimulus-type": "incongruent", "word": "yellow", "color": "red", "correct_response": "r", "trial_id": "stroop-trial-1-incongruent-16", "trial_type": "html-keyboard-response", "trial_index": 146, "time_elapsed": 490476, "internal_node_id": "0.0-6.0-51.0"}}, {"uniqueid": "w52290585:a85331231", "current_trial": 147, "dateTime": 1664556044488, "trialdata": {"rt": 572, "stimulus": "<p id='stroop-text' class='stroop-red'>YELLOW</p>", "response": "r", "stimulus-type": "incongruent", "word": "yellow", "color": "red", "correct_response": "r", "trial_id": "stroop-trial-1-incongruent-23", "trial_type": "html-keyboard-response", "trial_index": 147, "time_elapsed": 491551, "internal_node_id": "0.0-6.0-52.0"}}, {"uniqueid": "w52290585:a85331231", "current_trial": 148, "dateTime": 1664556046111, "trialdata": {"rt": 1119, "stimulus": "<p id='stroop-text' class='stroop-yellow'>BRIDGE</p>", "response": "y", "stimulus-type": "unrelated", "word": "BRIDGE", "color": "yellow", "correct_response": "y", "trial_id": "stroop-trial-1-unrelated-23", "trial_type": "html-keyboard-response", "trial_index": 148, "time_elapsed": 493173, "internal_node_id": "0.0-6.0-53.0"}}, {"uniqueid": "w52290585:a85331231", "current_trial": 149, "dateTime": 1664556049929, "trialdata": {"rt": 3313, "stimulus": "<p id='stroop-text' class='stroop-green'>BLUE</p>", "response": "g", "stimulus-type": "incongruent", "word": "blue", "color": "green", "correct_response": "g", "trial_id": "stroop-trial-1-incongruent-30", "trial_type": "html-keyboard-response", "trial_index": 149, "time_elapsed": 496992, "internal_node_id": "0.0-6.0-54.0"}}, {"uniqueid": "w52290585:a85331231", "current_trial": 150, "dateTime": 1664556051606, "trialdata": {"rt": 1173, "stimulus": "<p id='stroop-text' class='stroop-blue'>BRIDGE</p>", "response": "b", "stimulus-type": "unrelated", "word": "BRIDGE", "color": "blue", "correct_response": "b", "trial_id": "stroop-trial-1-unrelated-18", "trial_type": "html-keyboard-response", "trial_index": 150, "time_elapsed": 498669, "internal_node_id": "0.0-6.0-55.0"}}, {"uniqueid": "w52290585:a85331231", "current_trial": 151, "dateTime": 1664556053259, "trialdata": {"rt": 1150, "stimulus": "<p id='stroop-text' class='stroop-red'>YELLOW</p>", "response": "r", "stimulus-type": "incongruent", "word": "yellow", "color": "red", "correct_response": "r", "trial_id": "stroop-trial-1-incongruent-3", "trial_type": "html-keyboard-response", "trial_index": 151, "time_elapsed": 500322, "internal_node_id": "0.0-6.0-56.0"}}, {"uniqueid": "w52290585:a85331231", "current_trial": 152, "dateTime": 1664556054892, "trialdata": {"rt": 1128, "stimulus": "<p id='stroop-text' class='stroop-blue'>RED</p>", "response": "b", "stimulus-type": "incongruent", "word": "red", "color": "blue", "correct_response": "b", "trial_id": "stroop-trial-1-incongruent-10", "trial_type": "html-keyboard-response", "trial_index": 152, "time_elapsed": 501955, "internal_node_id": "0.0-6.0-57.0"}}, {"uniqueid": "w52290585:a85331231", "current_trial": 153, "dateTime": 1664556058680, "trialdata": {"rt": 3285, "stimulus": "<p id='stroop-text' class='stroop-green'>BOAT</p>", "response": "b", "stimulus-type": "unrelated", "word": "BOAT", "color": "green", "correct_response": "g", "trial_id": "stroop-trial-1-unrelated-2", "trial_type": "html-keyboard-response", "trial_index": 153, "time_elapsed": 505743, "internal_node_id": "0.0-6.0-58.0"}}, {"uniqueid": "w52290585:a85331231", "current_trial": 154, "dateTime": 1664556060338, "trialdata": {"rt": 1154, "stimulus": "<p id='stroop-text' class='stroop-yellow'>FORK</p>", "response": "y", "stimulus-type": "unrelated", "word": "FORK", "color": "yellow", "correct_response": "y", "trial_id": "stroop-trial-1-unrelated-29", "trial_type": "html-keyboard-response", "trial_index": 154, "time_elapsed": 507401, "internal_node_id": "0.0-6.0-59.0"}}, {"uniqueid": "w52290585:a85331231", "current_trial": 155, "dateTime": 1664556061826, "trialdata": {"rt": 984, "stimulus": "<p id='stroop-text' class='stroop-red'>BLUE</p>", "response": "r", "stimulus-type": "incongruent", "word": "blue", "color": "red", "correct_response": "r", "trial_id": "stroop-trial-1-incongruent-21", "trial_type": "html-keyboard-response", "trial_index": 155, "time_elapsed": 508889, "internal_node_id": "0.0-6.0-60.0"}}, {"uniqueid": "w52290585:a85331231", "current_trial": 156, "dateTime": 1664556063245, "trialdata": {"rt": 915, "stimulus": "<p id='stroop-text' class='stroop-yellow'>YELLOW</p>", "response": "y", "stimulus-type": "congruent", "word": "yellow", "color": "yellow", "correct_response": "y", "trial_id": "stroop-trial-1-congruent-20", "trial_type": "html-keyboard-response", "trial_index": 156, "time_elapsed": 510308, "internal_node_id": "0.0-6.0-61.0"}}, {"uniqueid": "w52290585:a85331231", "current_trial": 157, "dateTime": 1664556065141, "trialdata": {"rt": 1392, "stimulus": "<p id='stroop-text' class='stroop-blue'>FORK</p>", "response": "b", "stimulus-type": "unrelated", "word": "FORK", "color": "blue", "correct_response": "b", "trial_id": "stroop-trial-1-unrelated-15", "trial_type": "html-keyboard-response", "trial_index": 157, "time_elapsed": 512204, "internal_node_id": "0.0-6.0-62.0"}}, {"uniqueid": "w52290585:a85331231", "current_trial": 158, "dateTime": 1664556066799, "trialdata": {"rt": 1152, "stimulus": "<p id='stroop-text' class='stroop-red'>RED</p>", "response": "r", "stimulus-type": "congruent", "word": "red", "color": "red", "correct_response": "r", "trial_id": "stroop-trial-1-congruent-28", "trial_type": "html-keyboard-response", "trial_index": 158, "time_elapsed": 513861, "internal_node_id": "0.0-6.0-63.0"}}, {"uniqueid": "w52290585:a85331231", "current_trial": 159, "dateTime": 1664556068078, "trialdata": {"rt": 776, "stimulus": "<p id='stroop-text' class='stroop-red'>RED</p>", "response": "r", "stimulus-type": "congruent", "word": "red", "color": "red", "correct_response": "r", "trial_id": "stroop-trial-1-congruent-22", "trial_type": "html-keyboard-response", "trial_index": 159, "time_elapsed": 515141, "internal_node_id": "0.0-6.0-64.0"}}, {"uniqueid": "w52290585:a85331231", "current_trial": 160, "dateTime": 1664556070180, "trialdata": {"rt": 1597, "stimulus": "<p id='stroop-text' class='stroop-red'>RED</p>", "response": "r", "stimulus-type": "congruent", "word": "red", "color": "red", "correct_response": "r", "trial_id": "stroop-trial-1-congruent-8", "trial_type": "html-keyboard-response", "trial_index": 160, "time_elapsed": 517242, "internal_node_id": "0.0-6.0-65.0"}}, {"uniqueid": "w52290585:a85331231", "current_trial": 161, "dateTime": 1664556072573, "trialdata": {"rt": 1889, "stimulus": "<p id='stroop-text' class='stroop-green'>FORK</p>", "response": "g", "stimulus-type": "unrelated", "word": "FORK", "color": "green", "correct_response": "g", "trial_id": "stroop-trial-1-unrelated-4", "trial_type": "html-keyboard-response", "trial_index": 161, "time_elapsed": 519636, "internal_node_id": "0.0-6.0-66.0"}}, {"uniqueid": "w52290585:a85331231", "current_trial": 162, "dateTime": 1664556073992, "trialdata": {"rt": 915, "stimulus": "<p id='stroop-text' class='stroop-red'>GREEN</p>", "response": "r", "stimulus-type": "incongruent", "word": "green", "color": "red", "correct_response": "r", "trial_id": "stroop-trial-1-incongruent-26", "trial_type": "html-keyboard-response", "trial_index": 162, "time_elapsed": 521054, "internal_node_id": "0.0-6.0-67.0"}}, {"uniqueid": "w52290585:a85331231", "current_trial": 163, "dateTime": 1664556076192, "trialdata": {"rt": 1696, "stimulus": "<p id='stroop-text' class='stroop-yellow'>GREEN</p>", "response": "y", "stimulus-type": "incongruent", "word": "green", "color": "yellow", "correct_response": "y", "trial_id": "stroop-trial-1-incongruent-15", "trial_type": "html-keyboard-response", "trial_index": 163, "time_elapsed": 523254, "internal_node_id": "0.0-6.0-68.0"}}, {"uniqueid": "w52290585:a85331231", "current_trial": 164, "dateTime": 1664556078073, "trialdata": {"rt": 1377, "stimulus": "<p id='stroop-text' class='stroop-yellow'>BRIDGE</p>", "response": "y", "stimulus-type": "unrelated", "word": "BRIDGE", "color": "yellow", "correct_response": "y", "trial_id": "stroop-trial-1-unrelated-22", "trial_type": "html-keyboard-response", "trial_index": 164, "time_elapsed": 525136, "internal_node_id": "0.0-6.0-69.0"}}, {"uniqueid": "w52290585:a85331231", "current_trial": 165, "dateTime": 1664556079343, "trialdata": {"rt": 766, "stimulus": "<p id='stroop-text' class='stroop-yellow'>BLUE</p>", "response": "y", "stimulus-type": "incongruent", "word": "blue", "color": "yellow", "correct_response": "y", "trial_id": "stroop-trial-1-incongruent-11", "trial_type": "html-keyboard-response", "trial_index": 165, "time_elapsed": 526405, "internal_node_id": "0.0-6.0-70.0"}}, {"uniqueid": "w52290585:a85331231", "current_trial": 166, "dateTime": 1664556081020, "trialdata": {"rt": 1174, "stimulus": "<p id='stroop-text' class='stroop-blue'>MONKEY</p>", "response": "b", "stimulus-type": "unrelated", "word": "MONKEY", "color": "blue", "correct_response": "b", "trial_id": "stroop-trial-1-unrelated-26", "trial_type": "html-keyboard-response", "trial_index": 166, "time_elapsed": 528083, "internal_node_id": "0.0-6.0-71.0"}}, {"uniqueid": "w52290585:a85331231", "current_trial": 167, "dateTime": 1664556082459, "trialdata": {"rt": 935, "stimulus": "<p id='stroop-text' class='stroop-red'>GREEN</p>", "response": "r", "stimulus-type": "incongruent", "word": "green", "color": "red", "correct_response": "r", "trial_id": "stroop-trial-1-incongruent-28", "trial_type": "html-keyboard-response", "trial_index": 167, "time_elapsed": 529522, "internal_node_id": "0.0-6.0-72.0"}}, {"uniqueid": "w52290585:a85331231", "current_trial": 168, "dateTime": 1664556083993, "trialdata": {"rt": 1029, "stimulus": "<p id='stroop-text' class='stroop-yellow'>YELLOW</p>", "response": "y", "stimulus-type": "congruent", "word": "yellow", "color": "yellow", "correct_response": "y", "trial_id": "stroop-trial-1-congruent-11", "trial_type": "html-keyboard-response", "trial_index": 168, "time_elapsed": 531055, "internal_node_id": "0.0-6.0-73.0"}}, {"uniqueid": "w52290585:a85331231", "current_trial": 169, "dateTime": 1664556085456, "trialdata": {"rt": 960, "stimulus": "<p id='stroop-text' class='stroop-red'>DOG</p>", "response": "r", "stimulus-type": "unrelated", "word": "DOG", "color": "red", "correct_response": "r", "trial_id": "stroop-trial-1-unrelated-19", "trial_type": "html-keyboard-response", "trial_index": 169, "time_elapsed": 532519, "internal_node_id": "0.0-6.0-74.0"}}, {"uniqueid": "w52290585:a85331231", "current_trial": 170, "dateTime": 1664556087139, "trialdata": {"rt": 1179, "stimulus": "<p id='stroop-text' class='stroop-green'>BOTTLE</p>", "response": "g", "stimulus-type": "unrelated", "word": "BOTTLE", "color": "green", "correct_response": "g", "trial_id": "stroop-trial-1-unrelated-25", "trial_type": "html-keyboard-response", "trial_index": 170, "time_elapsed": 534202, "internal_node_id": "0.0-6.0-75.0"}}, {"uniqueid": "w52290585:a85331231", "current_trial": 171, "dateTime": 1664556088937, "trialdata": {"rt": 1293, "stimulus": "<p id='stroop-text' class='stroop-yellow'>RED</p>", "response": "y", "stimulus-type": "incongruent", "word": "red", "color": "yellow", "correct_response": "y", "trial_id": "stroop-trial-1-incongruent-14", "trial_type": "html-keyboard-response", "trial_index": 171, "time_elapsed": 535999, "internal_node_id": "0.0-6.0-76.0"}}, {"uniqueid": "w52290585:a85331231", "current_trial": 172, "dateTime": 1664556091521, "trialdata": {"rt": 2079, "stimulus": "<p id='stroop-text' class='stroop-blue'>BOTTLE</p>", "response": "b", "stimulus-type": "unrelated", "word": "BOTTLE", "color": "blue", "correct_response": "b", "trial_id": "stroop-trial-1-unrelated-28", "trial_type": "html-keyboard-response", "trial_index": 172, "time_elapsed": 538583, "internal_node_id": "0.0-6.0-77.0"}}, {"uniqueid": "w52290585:a85331231", "current_trial": 173, "dateTime": 1664556093273, "trialdata": {"rt": 1249, "stimulus": "<p id='stroop-text' class='stroop-green'>WINDOW</p>", "response": "g", "stimulus-type": "unrelated", "word": "WINDOW", "color": "green", "correct_response": "g", "trial_id": "stroop-trial-1-unrelated-12", "trial_type": "html-keyboard-response", "trial_index": 173, "time_elapsed": 540336, "internal_node_id": "0.0-6.0-78.0"}}, {"uniqueid": "w52290585:a85331231", "current_trial": 174, "dateTime": 1664556095226, "trialdata": {"rt": 1447, "stimulus": "<p id='stroop-text' class='stroop-blue'>RED</p>", "response": "b", "stimulus-type": "incongruent", "word": "red", "color": "blue", "correct_response": "b", "trial_id": "stroop-trial-1-incongruent-20", "trial_type": "html-keyboard-response", "trial_index": 174, "time_elapsed": 542288, "internal_node_id": "0.0-6.0-79.0"}}, {"uniqueid": "w52290585:a85331231", "current_trial": 175, "dateTime": 1664556096645, "trialdata": {"rt": 915, "stimulus": "<p id='stroop-text' class='stroop-red'>MONKEY</p>", "response": "r", "stimulus-type": "unrelated", "word": "MONKEY", "color": "red", "correct_response": "r", "trial_id": "stroop-trial-1-unrelated-21", "trial_type": "html-keyboard-response", "trial_index": 175, "time_elapsed": 543707, "internal_node_id": "0.0-6.0-80.0"}}, {"uniqueid": "w52290585:a85331231", "current_trial": 176, "dateTime": 1664556098686, "trialdata": {"rt": 1538, "stimulus": "<p id='stroop-text' class='stroop-blue'>CHAIR</p>", "response": "b", "stimulus-type": "unrelated", "word": "CHAIR", "color": "blue", "correct_response": "b", "trial_id": "stroop-trial-1-unrelated-9", "trial_type": "html-keyboard-response", "trial_index": 176, "time_elapsed": 545749, "internal_node_id": "0.0-6.0-81.0"}}, {"uniqueid": "w52290585:a85331231", "current_trial": 177, "dateTime": 1664556100130, "trialdata": {"rt": 940, "stimulus": "<p id='stroop-text' class='stroop-red'>RED</p>", "response": "r", "stimulus-type": "congruent", "word": "red", "color": "red", "correct_response": "r", "trial_id": "stroop-trial-1-congruent-1", "trial_type": "html-keyboard-response", "trial_index": 177, "time_elapsed": 547193, "internal_node_id": "0.0-6.0-82.0"}}, {"uniqueid": "w52290585:a85331231", "current_trial": 178, "dateTime": 1664556103243, "trialdata": {"rt": 2608, "stimulus": "<p id='stroop-text' class='stroop-green'>YELLOW</p>", "response": "g", "stimulus-type": "incongruent", "word": "yellow", "color": "green", "correct_response": "g", "trial_id": "stroop-trial-1-incongruent-5", "trial_type": "html-keyboard-response", "trial_index": 178, "time_elapsed": 550306, "internal_node_id": "0.0-6.0-83.0"}}, {"uniqueid": "w52290585:a85331231", "current_trial": 179, "dateTime": 1664556105150, "trialdata": {"rt": 1403, "stimulus": "<p id='stroop-text' class='stroop-blue'>YELLOW</p>", "response": "b", "stimulus-type": "incongruent", "word": "yellow", "color": "blue", "correct_response": "b", "trial_id": "stroop-trial-1-incongruent-2", "trial_type": "html-keyboard-response", "trial_index": 179, "time_elapsed": 552213, "internal_node_id": "0.0-6.0-84.0"}}, {"uniqueid": "w52290585:a85331231", "current_trial": 180, "dateTime": 1664556107511, "trialdata": {"rt": 1857, "stimulus": "<p id='stroop-text' class='stroop-green'>BRAIN</p>", "response": "g", "stimulus-type": "unrelated", "word": "BRAIN", "color": "green", "correct_response": "g", "trial_id": "stroop-trial-1-unrelated-13", "trial_type": "html-keyboard-response", "trial_index": 180, "time_elapsed": 554574, "internal_node_id": "0.0-6.0-85.0"}}, {"uniqueid": "w52290585:a85331231", "current_trial": 181, "dateTime": 1664556108612, "trialdata": {"rt": 598, "stimulus": "<p id='stroop-text' class='stroop-green'>GREEN</p>", "response": "g", "stimulus-type": "congruent", "word": "green", "color": "green", "correct_response": "g", "trial_id": "stroop-trial-1-congruent-16", "trial_type": "html-keyboard-response", "trial_index": 181, "time_elapsed": 555674, "internal_node_id": "0.0-6.0-86.0"}}, {"uniqueid": "w52290585:a85331231", "current_trial": 182, "dateTime": 1664556109668, "trialdata": {"rt": 550, "stimulus": "<p id='stroop-text' class='stroop-green'>GREEN</p>", "response": "g", "stimulus-type": "congruent", "word": "green", "color": "green", "correct_response": "g", "trial_id": "stroop-trial-1-congruent-3", "trial_type": "html-keyboard-response", "trial_index": 182, "time_elapsed": 556730, "internal_node_id": "0.0-6.0-87.0"}}, {"uniqueid": "w52290585:a85331231", "current_trial": 183, "dateTime": 1664556111301, "trialdata": {"rt": 1130, "stimulus": "<p id='stroop-text' class='stroop-green'>BOTTLE</p>", "response": "g", "stimulus-type": "unrelated", "word": "BOTTLE", "color": "green", "correct_response": "g", "trial_id": "stroop-trial-1-unrelated-11", "trial_type": "html-keyboard-response", "trial_index": 183, "time_elapsed": 558364, "internal_node_id": "0.0-6.0-88.0"}}, {"uniqueid": "w52290585:a85331231", "current_trial": 184, "dateTime": 1664556112681, "trialdata": {"rt": 876, "stimulus": "<p id='stroop-text' class='stroop-red'>BRIDGE</p>", "response": "r", "stimulus-type": "unrelated", "word": "BRIDGE", "color": "red", "correct_response": "r", "trial_id": "stroop-trial-1-unrelated-30", "trial_type": "html-keyboard-response", "trial_index": 184, "time_elapsed": 559744, "internal_node_id": "0.0-6.0-89.0"}}, {"uniqueid": "w52290585:a85331231", "current_trial": 185, "dateTime": 1664556151805, "trialdata": {"rt": 38619, "stimulus": "  <h1> End of block! </h1>\n\n  You have reached the end of the block 2/5. If you need a short break, feel free to take one now before moving on.\n\n  <br><br>\n  In the next block, you will complete another 90 rounds of this game.\n\n  <br><br>\n  <div style='text-align: center;'>Press <code>space</code> to begin.</div>\n  <br><br>\n<div style='text-align: center;'>(If the experiment doesn't continue, try clicking on the text and then pressing <code>space</code>.)</div>", "response": " ", "trial_id": "stroop_1_ready_3", "trial_type": "html-keyboard-response", "trial_index": 185, "time_elapsed": 598868, "internal_node_id": "0.0-7.0"}}, {"uniqueid": "w52290585:a85331231", "current_trial": 186, "dateTime": 1664556153244, "trialdata": {"rt": 1433, "stimulus": "<p id='stroop-text' class='stroop-green'>YELLOW</p>", "response": "g", "stimulus-type": "incongruent", "word": "yellow", "color": "green", "correct_response": "g", "trial_id": "stroop-trial-1-incongruent-21", "trial_type": "html-keyboard-response", "trial_index": 186, "time_elapsed": 600307, "internal_node_id": "0.0-8.0-0.0"}}, {"uniqueid": "w52290585:a85331231", "current_trial": 187, "dateTime": 1664556154509, "trialdata": {"rt": 759, "stimulus": "<p id='stroop-text' class='stroop-green'>CHAIR</p>", "response": "g", "stimulus-type": "unrelated", "word": "CHAIR", "color": "green", "correct_response": "g", "trial_id": "stroop-trial-1-unrelated-26", "trial_type": "html-keyboard-response", "trial_index": 187, "time_elapsed": 601572, "internal_node_id": "0.0-8.0-1.0"}}, {"uniqueid": "w52290585:a85331231", "current_trial": 188, "dateTime": 1664556155814, "trialdata": {"rt": 801, "stimulus": "<p id='stroop-text' class='stroop-yellow'>YELLOW</p>", "response": "y", "stimulus-type": "congruent", "word": "yellow", "color": "yellow", "correct_response": "y", "trial_id": "stroop-trial-1-congruent-9", "trial_type": "html-keyboard-response", "trial_index": 188, "time_elapsed": 602877, "internal_node_id": "0.0-8.0-2.0"}}, {"uniqueid": "w52290585:a85331231", "current_trial": 189, "dateTime": 1664556157393, "trialdata": {"rt": 1075, "stimulus": "<p id='stroop-text' class='stroop-red'>RED</p>", "response": "r", "stimulus-type": "congruent", "word": "red", "color": "red", "correct_response": "r", "trial_id": "stroop-trial-1-congruent-3", "trial_type": "html-keyboard-response", "trial_index": 189, "time_elapsed": 604456, "internal_node_id": "0.0-8.0-3.0"}}, {"uniqueid": "w52290585:a85331231", "current_trial": 190, "dateTime": 1664556159335, "trialdata": {"rt": 1438, "stimulus": "<p id='stroop-text' class='stroop-red'>YELLOW</p>", "response": "r", "stimulus-type": "incongruent", "word": "yellow", "color": "red", "correct_response": "r", "trial_id": "stroop-trial-1-incongruent-14", "trial_type": "html-keyboard-response", "trial_index": 190, "time_elapsed": 606398, "internal_node_id": "0.0-8.0-4.0"}}, {"uniqueid": "w52290585:a85331231", "current_trial": 191, "dateTime": 1664556160904, "trialdata": {"rt": 1065, "stimulus": "<p id='stroop-text' class='stroop-blue'>BLUE</p>", "response": "b", "stimulus-type": "congruent", "word": "blue", "color": "blue", "correct_response": "b", "trial_id": "stroop-trial-1-congruent-14", "trial_type": "html-keyboard-response", "trial_index": 191, "time_elapsed": 607967, "internal_node_id": "0.0-8.0-5.0"}}, {"uniqueid": "w52290585:a85331231", "current_trial": 192, "dateTime": 1664556162334, "trialdata": {"rt": 925, "stimulus": "<p id='stroop-text' class='stroop-green'>BOAT</p>", "response": "g", "stimulus-type": "unrelated", "word": "BOAT", "color": "green", "correct_response": "g", "trial_id": "stroop-trial-1-unrelated-29", "trial_type": "html-keyboard-response", "trial_index": 192, "time_elapsed": 609397, "internal_node_id": "0.0-8.0-6.0"}}, {"uniqueid": "w52290585:a85331231", "current_trial": 193, "dateTime": 1664556164610, "trialdata": {"rt": 1773, "stimulus": "<p id='stroop-text' class='stroop-green'>GREEN</p>", "response": "g", "stimulus-type": "congruent", "word": "green", "color": "green", "correct_response": "g", "trial_id": "stroop-trial-1-congruent-22", "trial_type": "html-keyboard-response", "trial_index": 193, "time_elapsed": 611673, "internal_node_id": "0.0-8.0-7.0"}}, {"uniqueid": "w52290585:a85331231", "current_trial": 194, "dateTime": 1664556165901, "trialdata": {"rt": 785, "stimulus": "<p id='stroop-text' class='stroop-green'>RED</p>", "response": "g", "stimulus-type": "incongruent", "word": "red", "color": "green", "correct_response": "g", "trial_id": "stroop-trial-1-incongruent-22", "trial_type": "html-keyboard-response", "trial_index": 194, "time_elapsed": 612964, "internal_node_id": "0.0-8.0-8.0"}}, {"uniqueid": "w52290585:a85331231", "current_trial": 195, "dateTime": 1664556167311, "trialdata": {"rt": 906, "stimulus": "<p id='stroop-text' class='stroop-blue'>GREEN</p>", "response": "b", "stimulus-type": "incongruent", "word": "green", "color": "blue", "correct_response": "b", "trial_id": "stroop-trial-1-incongruent-26", "trial_type": "html-keyboard-response", "trial_index": 195, "time_elapsed": 614374, "internal_node_id": "0.0-8.0-9.0"}}, {"uniqueid": "w52290585:a85331231", "current_trial": 196, "dateTime": 1664556168407, "trialdata": {"rt": 592, "stimulus": "<p id='stroop-text' class='stroop-blue'>CHAIR</p>", "response": "b", "stimulus-type": "unrelated", "word": "CHAIR", "color": "blue", "correct_response": "b", "trial_id": "stroop-trial-1-unrelated-16", "trial_type": "html-keyboard-response", "trial_index": 196, "time_elapsed": 615470, "internal_node_id": "0.0-8.0-10.0"}}, {"uniqueid": "w52290585:a85331231", "current_trial": 197, "dateTime": 1664556169572, "trialdata": {"rt": 660, "stimulus": "<p id='stroop-text' class='stroop-green'>GREEN</p>", "response": "g", "stimulus-type": "congruent", "word": "green", "color": "green", "correct_response": "g", "trial_id": "stroop-trial-1-congruent-29", "trial_type": "html-keyboard-response", "trial_index": 197, "time_elapsed": 616635, "internal_node_id": "0.0-8.0-11.0"}}, {"uniqueid": "w52290585:a85331231", "current_trial": 198, "dateTime": 1664556170977, "trialdata": {"rt": 896, "stimulus": "<p id='stroop-text' class='stroop-red'>BLUE</p>", "response": "r", "stimulus-type": "incongruent", "word": "blue", "color": "red", "correct_response": "r", "trial_id": "stroop-trial-1-incongruent-25", "trial_type": "html-keyboard-response", "trial_index": 198, "time_elapsed": 618039, "internal_node_id": "0.0-8.0-12.0"}}, {"uniqueid": "w52290585:a85331231", "current_trial": 199, "dateTime": 1664556172541, "trialdata": {"rt": 1061, "stimulus": "<p id='stroop-text' class='stroop-yellow'>CHAIR</p>", "response": "y", "stimulus-type": "unrelated", "word": "CHAIR", "color": "yellow", "correct_response": "y", "trial_id": "stroop-trial-1-unrelated-2", "trial_type": "html-keyboard-response", "trial_index": 199, "time_elapsed": 619604, "internal_node_id": "0.0-8.0-13.0"}}, {"uniqueid": "w52290585:a85331231", "current_trial": 200, "dateTime": 1664556176511, "trialdata": {"rt": 3464, "stimulus": "<p id='stroop-text' class='stroop-green'>RED</p>", "response": "g", "stimulus-type": "incongruent", "word": "red", "color": "green", "correct_response": "g", "trial_id": "stroop-trial-1-incongruent-9", "trial_type": "html-keyboard-response", "trial_index": 200, "time_elapsed": 623573, "internal_node_id": "0.0-8.0-14.0"}}, {"uniqueid": "w52290585:a85331231", "current_trial": 201, "dateTime": 1664556178179, "trialdata": {"rt": 1164, "stimulus": "<p id='stroop-text' class='stroop-blue'>BLUE</p>", "response": "b", "stimulus-type": "congruent", "word": "blue", "color": "blue", "correct_response": "b", "trial_id": "stroop-trial-1-congruent-19", "trial_type": "html-keyboard-response", "trial_index": 201, "time_elapsed": 625242, "internal_node_id": "0.0-8.0-15.0"}}, {"uniqueid": "w52290585:a85331231", "current_trial": 202, "dateTime": 1664556179654, "trialdata": {"rt": 970, "stimulus": "<p id='stroop-text' class='stroop-yellow'>YELLOW</p>", "response": "y", "stimulus-type": "congruent", "word": "yellow", "color": "yellow", "correct_response": "y", "trial_id": "stroop-trial-1-congruent-26", "trial_type": "html-keyboard-response", "trial_index": 202, "time_elapsed": 626717, "internal_node_id": "0.0-8.0-16.0"}}, {"uniqueid": "w52290585:a85331231", "current_trial": 203, "dateTime": 1664556181144, "trialdata": {"rt": 986, "stimulus": "<p id='stroop-text' class='stroop-green'>BLUE</p>", "response": "g", "stimulus-type": "incongruent", "word": "blue", "color": "green", "correct_response": "g", "trial_id": "stroop-trial-1-incongruent-17", "trial_type": "html-keyboard-response", "trial_index": 203, "time_elapsed": 628206, "internal_node_id": "0.0-8.0-17.0"}}, {"uniqueid": "w52290585:a85331231", "current_trial": 204, "dateTime": 1664556182439, "trialdata": {"rt": 792, "stimulus": "<p id='stroop-text' class='stroop-green'>FORK</p>", "response": "g", "stimulus-type": "unrelated", "word": "FORK", "color": "green", "correct_response": "g", "trial_id": "stroop-trial-1-unrelated-21", "trial_type": "html-keyboard-response", "trial_index": 204, "time_elapsed": 629502, "internal_node_id": "0.0-8.0-18.0"}}, {"uniqueid": "w52290585:a85331231", "current_trial": 205, "dateTime": 1664556183904, "trialdata": {"rt": 959, "stimulus": "<p id='stroop-text' class='stroop-blue'>BLUE</p>", "response": "b", "stimulus-type": "congruent", "word": "blue", "color": "blue", "correct_response": "b", "trial_id": "stroop-trial-1-congruent-10", "trial_type": "html-keyboard-response", "trial_index": 205, "time_elapsed": 630967, "internal_node_id": "0.0-8.0-19.0"}}, {"uniqueid": "w52290585:a85331231", "current_trial": 206, "dateTime": 1664556185976, "trialdata": {"rt": 1569, "stimulus": "<p id='stroop-text' class='stroop-green'>YELLOW</p>", "response": "g", "stimulus-type": "incongruent", "word": "yellow", "color": "green", "correct_response": "g", "trial_id": "stroop-trial-1-incongruent-30", "trial_type": "html-keyboard-response", "trial_index": 206, "time_elapsed": 633039, "internal_node_id": "0.0-8.0-20.0"}}, {"uniqueid": "w52290585:a85331231", "current_trial": 207, "dateTime": 1664556187475, "trialdata": {"rt": 994, "stimulus": "<p id='stroop-text' class='stroop-blue'>YELLOW</p>", "response": "b", "stimulus-type": "incongruent", "word": "yellow", "color": "blue", "correct_response": "b", "trial_id": "stroop-trial-1-incongruent-7", "trial_type": "html-keyboard-response", "trial_index": 207, "time_elapsed": 634538, "internal_node_id": "0.0-8.0-21.0"}}, {"uniqueid": "w52290585:a85331231", "current_trial": 208, "dateTime": 1664556189099, "trialdata": {"rt": 1119, "stimulus": "<p id='stroop-text' class='stroop-blue'>YELLOW</p>", "response": "b", "stimulus-type": "incongruent", "word": "yellow", "color": "blue", "correct_response": "b", "trial_id": "stroop-trial-1-incongruent-2", "trial_type": "html-keyboard-response", "trial_index": 208, "time_elapsed": 636162, "internal_node_id": "0.0-8.0-22.0"}}, {"uniqueid": "w52290585:a85331231", "current_trial": 209, "dateTime": 1664556190369, "trialdata": {"rt": 765, "stimulus": "<p id='stroop-text' class='stroop-green'>BRIDGE</p>", "response": "g", "stimulus-type": "unrelated", "word": "BRIDGE", "color": "green", "correct_response": "g", "trial_id": "stroop-trial-1-unrelated-20", "trial_type": "html-keyboard-response", "trial_index": 209, "time_elapsed": 637432, "internal_node_id": "0.0-8.0-23.0"}}, {"uniqueid": "w52290585:a85331231", "current_trial": 210, "dateTime": 1664556192153, "trialdata": {"rt": 1280, "stimulus": "<p id='stroop-text' class='stroop-yellow'>CHAIR</p>", "response": "y", "stimulus-type": "unrelated", "word": "CHAIR", "color": "yellow", "correct_response": "y", "trial_id": "stroop-trial-1-unrelated-17", "trial_type": "html-keyboard-response", "trial_index": 210, "time_elapsed": 639215, "internal_node_id": "0.0-8.0-24.0"}}, {"uniqueid": "w52290585:a85331231", "current_trial": 211, "dateTime": 1664556193687, "trialdata": {"rt": 1030, "stimulus": "<p id='stroop-text' class='stroop-green'>STONE</p>", "response": "g", "stimulus-type": "unrelated", "word": "STONE", "color": "green", "correct_response": "g", "trial_id": "stroop-trial-1-unrelated-23", "trial_type": "html-keyboard-response", "trial_index": 211, "time_elapsed": 640750, "internal_node_id": "0.0-8.0-25.0"}}, {"uniqueid": "w52290585:a85331231", "current_trial": 212, "dateTime": 1664556195595, "trialdata": {"rt": 1403, "stimulus": "<p id='stroop-text' class='stroop-red'>GREEN</p>", "response": "r", "stimulus-type": "incongruent", "word": "green", "color": "red", "correct_response": "r", "trial_id": "stroop-trial-1-incongruent-19", "trial_type": "html-keyboard-response", "trial_index": 212, "time_elapsed": 642658, "internal_node_id": "0.0-8.0-26.0"}}, {"uniqueid": "w52290585:a85331231", "current_trial": 213, "dateTime": 1664556198475, "trialdata": {"rt": 2376, "stimulus": "<p id='stroop-text' class='stroop-green'>MONKEY</p>", "response": "g", "stimulus-type": "unrelated", "word": "MONKEY", "color": "green", "correct_response": "g", "trial_id": "stroop-trial-1-unrelated-24", "trial_type": "html-keyboard-response", "trial_index": 213, "time_elapsed": 645537, "internal_node_id": "0.0-8.0-27.0"}}, {"uniqueid": "w52290585:a85331231", "current_trial": 214, "dateTime": 1664556199815, "trialdata": {"rt": 835, "stimulus": "<p id='stroop-text' class='stroop-blue'>BLUE</p>", "response": "b", "stimulus-type": "congruent", "word": "blue", "color": "blue", "correct_response": "b", "trial_id": "stroop-trial-1-congruent-16", "trial_type": "html-keyboard-response", "trial_index": 214, "time_elapsed": 646878, "internal_node_id": "0.0-8.0-28.0"}}, {"uniqueid": "w52290585:a85331231", "current_trial": 215, "dateTime": 1664556201304, "trialdata": {"rt": 985, "stimulus": "<p id='stroop-text' class='stroop-red'>CHAIR</p>", "response": "r", "stimulus-type": "unrelated", "word": "CHAIR", "color": "red", "correct_response": "r", "trial_id": "stroop-trial-1-unrelated-15", "trial_type": "html-keyboard-response", "trial_index": 215, "time_elapsed": 648367, "internal_node_id": "0.0-8.0-29.0"}}, {"uniqueid": "w52290585:a85331231", "current_trial": 216, "dateTime": 1664556202779, "trialdata": {"rt": 970, "stimulus": "<p id='stroop-text' class='stroop-green'>GREEN</p>", "response": "g", "stimulus-type": "congruent", "word": "green", "color": "green", "correct_response": "g", "trial_id": "stroop-trial-1-congruent-30", "trial_type": "html-keyboard-response", "trial_index": 216, "time_elapsed": 649842, "internal_node_id": "0.0-8.0-30.0"}}, {"uniqueid": "w52290585:a85331231", "current_trial": 217, "dateTime": 1664556204837, "trialdata": {"rt": 1552, "stimulus": "<p id='stroop-text' class='stroop-blue'>BRAIN</p>", "response": "b", "stimulus-type": "unrelated", "word": "BRAIN", "color": "blue", "correct_response": "b", "trial_id": "stroop-trial-1-unrelated-7", "trial_type": "html-keyboard-response", "trial_index": 217, "time_elapsed": 651899, "internal_node_id": "0.0-8.0-31.0"}}, {"uniqueid": "w52290585:a85331231", "current_trial": 218, "dateTime": 1664556206829, "trialdata": {"rt": 1489, "stimulus": "<p id='stroop-text' class='stroop-red'>RED</p>", "response": "r", "stimulus-type": "congruent", "word": "red", "color": "red", "correct_response": "r", "trial_id": "stroop-trial-1-congruent-23", "trial_type": "html-keyboard-response", "trial_index": 218, "time_elapsed": 653892, "internal_node_id": "0.0-8.0-32.0"}}, {"uniqueid": "w52290585:a85331231", "current_trial": 219, "dateTime": 1664556207925, "trialdata": {"rt": 590, "stimulus": "<p id='stroop-text' class='stroop-red'>GREEN</p>", "response": "r", "stimulus-type": "incongruent", "word": "green", "color": "red", "correct_response": "r", "trial_id": "stroop-trial-1-incongruent-27", "trial_type": "html-keyboard-response", "trial_index": 219, "time_elapsed": 654988, "internal_node_id": "0.0-8.0-33.0"}}, {"uniqueid": "w52290585:a85331231", "current_trial": 220, "dateTime": 1664556209096, "trialdata": {"rt": 667, "stimulus": "<p id='stroop-text' class='stroop-red'>FORK</p>", "response": "r", "stimulus-type": "unrelated", "word": "FORK", "color": "red", "correct_response": "r", "trial_id": "stroop-trial-1-unrelated-9", "trial_type": "html-keyboard-response", "trial_index": 220, "time_elapsed": 656159, "internal_node_id": "0.0-8.0-34.0"}}, {"uniqueid": "w52290585:a85331231", "current_trial": 221, "dateTime": 1664556210182, "trialdata": {"rt": 581, "stimulus": "<p id='stroop-text' class='stroop-red'>STONE</p>", "response": "r", "stimulus-type": "unrelated", "word": "STONE", "color": "red", "correct_response": "r", "trial_id": "stroop-trial-1-unrelated-22", "trial_type": "html-keyboard-response", "trial_index": 221, "time_elapsed": 657245, "internal_node_id": "0.0-8.0-35.0"}}, {"uniqueid": "w52290585:a85331231", "current_trial": 222, "dateTime": 1664556211662, "trialdata": {"rt": 974, "stimulus": "<p id='stroop-text' class='stroop-yellow'>RED</p>", "response": "y", "stimulus-type": "incongruent", "word": "red", "color": "yellow", "correct_re