{"condition": 1, "counterbalance": 0, "assignmentId": "a95288785", "workerId": "w67030491", "hitId": "h50766940", "currenttrial": 137, "bonus": 0, "data": [{"uniqueid": "w67030491:a95288785", "current_trial": 0, "dateTime": 1664555200863, "trialdata": {"success": true, "trial_type": "fullscreen", "trial_index": 0, "time_elapsed": 33666, "internal_node_id": "0.0-0.0"}}, {"uniqueid": "w67030491:a95288785", "current_trial": 1, "dateTime": 1664555241208, "trialdata": {"view_history": [{"page_index": 0, "viewing_time": 40340}], "rt": 40341, "trial_id": "exp_instructions_no_distractor", "trial_type": "instructions", "trial_index": 1, "time_elapsed": 74012, "internal_node_id": "0.0-1.0"}}, {"uniqueid": "w67030491:a95288785", "current_trial": 2, "dateTime": 1664555248792, "trialdata": {"success": true, "trial_type": "fullscreen", "trial_index": 2, "time_elapsed": 81596, "internal_node_id": "0.0-2.0-0.0"}}, {"uniqueid": "w67030491:a95288785", "current_trial": 3, "dateTime": 1664555401890, "trialdata": {"view_history": [{"page_index": 0, "viewing_time": 62968}, {"page_index": 1, "viewing_time": 39051}, {"page_index": 2, "viewing_time": 10685}, {"page_index": 3, "viewing_time": 13458}, {"page_index": 4, "viewing_time": 26933}], "rt": 153096, "trial_id": "mouselab_instructions_1", "trial_type": "instructions", "trial_index": 3, "time_elapsed": 234694, "internal_node_id": "0.0-2.0-1.0"}}, {"uniqueid": "w67030491:a95288785", "current_trial": 4, "dateTime": 1664555447118, "trialdata": {"revealed_states": [], "num_clicks_accrued": [0, 0, 0, 0, 0, 0, 0, 0, 0, 0, 0, 0, 0], "stateRewards": ["", 10, -10, -10, 10, 10, 10, 10, -10, -10, 10, 10, 10], "withholdReward": false, "trial_id": "practice_1", "block": "test", "trialIndex": 0, "score": 11.25, "costs": -0.75, "simulationMode": [null, null, null], "rewards": [-10, 10, 10], "path": ["0", "0", "9", "10", "11"], "rt": [23754, 670, 6445], "actions": ["left", "left", "up"], "actionTimes": [25446, 26630, 33588], "queries": {"click": {"state": {"target": ["10", "2", "6"], "time": [7588, 19431, 22944]}, "edge": {"target": [], "time": []}}, "mouseover": {"state": {"target": ["9", "11", "10", "9", "1", "2", "6"], "time": [5415, 5731, 6747, 11662, 18829, 19047, 22527]}, "edge": {"target": [], "time": []}}, "mouseout": {"state": {"target": ["9", "11", "10", "9", "1", "2", "6"], "time": [5498, 6514, 8982, 11946, 18861, 21061, 23513]}, "edge": {"target": [], "time": []}}}, "displayed_time": "34.09", "trialTime": 44363, "trial_type": "mouselab-mdp", "trial_index": 4, "time_elapsed": 279921, "internal_node_id": "0.0-2.0-2.0-0.0"}}, {"uniqueid": "w67030491:a95288785", "current_trial": 5, "dateTime": 1664555480029, "trialdata": {"revealed_states": [], "num_clicks_accrued": [0, 0, 0, 0, 0, 0, 0, 0, 0, 0, 0, 0, 0], "stateRewards": ["", -10, 10, -10, 10, 10, -10, -10, 10, 10, -10, 10, -10], "withholdReward": false, "trial_id": "practice_2", "block": "test", "trialIndex": 1, "score": 11.75, "costs": -0.25, "simulationMode": [null, null, null], "rewards": [-10, 10, 10], "path": ["0", "0", "1", "2", "4"], "rt": [25311, 147, 230], "actions": ["up", "up", "left"], "actionTimes": [28424, 29085, 29819], "queries": {"click": {"state": {"target": ["2"], "time": [25671]}, "edge": {"target": [], "time": []}}, "mouseover": {"state": {"target": ["1", "2", "5", "6", "2"], "time": [23938, 24054, 24439, 24589, 25271]}, "edge": {"target": [], "time": []}}, "mouseout": {"state": {"target": ["6", "0", "1", "2", "5", "6", "2"], "time": [2376, 2675, 23971, 24355, 24505, 24989, 26754]}, "edge": {"target": [], "time": []}}}, "displayed_time": "30.34", "trialTime": 32862, "trial_type": "mouselab-mdp", "trial_index": 5, "time_elapsed": 312833, "internal_node_id": "0.0-2.0-2.0-1.0"}}, {"uniqueid": "w67030491:a95288785", "current_trial": 6, "dateTime": 1664555591724, "trialdata": {"view_history": [{"page_index": 0, "viewing_time": 51693}, {"page_index": 1, "viewing_time": 5869}, {"page_index": 0, "viewing_time": 4307}, {"page_index": 1, "viewing_time": 2925}, {"page_index": 0, "viewing_time": 6025}, {"page_index": 1, "viewing_time": 28601}, {"page_index": 2, "viewing_time": 12270}], "rt": 111690, "trial_id": "mouselab_instructions_2_scarce", "trial_type": "instructions", "trial_index": 6, "time_elapsed": 424528, "internal_node_id": "0.0-2.0-3.0"}}, {"uniqueid": "w67030491:a95288785", "current_trial": 7, "dateTime": 1664555632301, "trialdata": {"rt": 40570, "response": {"Q0": "$-48 to $48", "Q1": "The cost is always $0.25.", "Q2": "The better I perform the higher my bonus will be.", "Q3": "No, the amount of cash at each node of the web may be different each time.", "Q4": "The values of the nodes walked through from start to finish.", "Q5": "No, the spider might forget to count the money on some rounds."}, "question_order": [0, 1, 2, 3, 4, 5], "correct": {"Q0": "$-48 to $48", "Q1": "The cost is always $0.25.", "Q2": "The better I perform the higher my bonus will be.", "Q3": "No, the amount of cash at each node of the web may be different each time.", "Q4": "The values of the nodes walked through from start to finish.", "Q5": "No, the spider might forget to count the money on some rounds."}, "trial_id": "mouselab_quiz_scarce", "trial_type": "survey-multi-choice", "trial_index": 7, "time_elapsed": 465104, "internal_node_id": "0.0-2.0-4.0"}}, {"uniqueid": "w67030491:a95288785", "current_trial": 8, "dateTime": 1664555649301, "trialdata": {"rt": 16991, "stimulus": "\n<h1> Get ready to start the game! </h1>\n\nThank you for reading the instructions. Get ready start with the first of 4 block(s) of this game.\n<br><br>\nIn this first block, you will complete 30 rounds of this game before moving on.\n<br><br>\nRemember, the more money the spider gets, the bigger your bonus will be!\n<br><br>\n<div style='text-align: center;'>Press <code>space</code> to begin.</div>\n\n<br><br>\n(If, at any point, the <code>space</code> key does not take you to the next page, click once on the text and try again.)", "response": " ", "trial_id": "mdp_ready_1", "trial_type": "html-keyboard-response", "trial_index": 8, "time_elapsed": 482104, "internal_node_id": "0.0-4.0-0.0"}}, {"uniqueid": "w67030491:a95288785", "current_trial": 9, "dateTime": 1664555670689, "trialdata": {"revealed_states": [], "num_clicks_accrued": [0, 0, 0, 0, 0, 0, 0, 0, 0, 0, 0, 0, 0], "stateRewards": ["", -2, 4, 24, 48, 2, 4, -48, -48, 2, 8, 48, -48], "withholdReward": false, "trial_id": "mdp_409609775558", "block": "test1", "trialIndex": 2, "score": 62.25, "costs": -0.75, "simulationMode": [null, null, null], "rewards": [2, 8, 48], "path": ["0", "0", "9", "10", "11"], "rt": [13412, 330, 664], "actions": ["left", "left", "up"], "actionTimes": [16745, 17582, 18767], "queries": {"click": {"state": {"target": ["9", "10", "11"], "time": [11806, 13136, 14199]}, "edge": {"target": [], "time": []}}, "mouseover": {"state": {"target": ["9", "10", "11"], "time": [10335, 12667, 13834]}, "edge": {"target": [], "time": []}}, "mouseout": {"state": {"target": ["1", "0", "9", "10", "11", "10"], "time": [2386, 7152, 12518, 13784, 20782, 20816]}, "edge": {"target": [], "time": []}}}, "displayed_time": "19.27", "trialTime": 21341, "trial_type": "mouselab-mdp", "trial_index": 9, "time_elapsed": 503492, "internal_node_id": "0.0-4.0-1.0-0.0"}}, {"uniqueid": "w67030491:a95288785", "current_trial": 10, "dateTime": 1664555698683, "trialdata": {"revealed_states": [], "num_clicks_accrued": [0, 0, 0, 0, 0, 0, 0, 0, 0, 0, 0, 0, 0], "stateRewards": ["", -2, 8, -48, 48, -4, 8, -24, 24, 4, -4, 24, -48], "withholdReward": true, "trial_id": "mdp_904238083902", "block": "test1", "trialIndex": 3, "score": 56.5, "costs": -2.5, "simulationMode": [null, null, null], "rewards": [-2, 8, 48], "path": ["0", "0", "1", "2", "4"], "rt": [20045, 227, 338], "actions": ["up", "up", "left"], "actionTimes": [24060, 24803, 25648], "queries": {"click": {"state": {"target": ["1", "5", "9", "10", "12", "3", "7", "8", "4", "2"], "time": [6330, 10480, 11678, 12931, 14058, 15526, 16864, 17966, 19307, 22558]}, "edge": {"target": [], "time": []}}, "mouseover": {"state": {"target": ["1", "5", "5", "9", "10", "12", "3", "7", "7", "6", "8", "2", "4", "2"], "time": [5945, 7579, 8561, 11294, 12561, 13576, 15011, 16209, 16327, 17477, 17526, 18592, 18959, 21492]}, "edge": {"target": [], "time": []}}, "mouseout": {"state": {"target": ["0", "1", "5", "1", "5", "9", "10", "12", "9", "1", "3", "7", "7", "6", "8", "5", "1", "2", "4", "2"], "time": [5829, 7312, 8196, 8447, 11095, 12461, 13527, 14709, 14759, 14928, 16176, 16226, 17460, 17492, 18475, 18509, 18559, 18659, 19942, 23158]}, "edge": {"target": [], "time": []}}}, "displayed_time": "26.14", "trialTime": 27950, "trial_type": "mouselab-mdp", "trial_index": 10, "time_elapsed": 531487, "internal_node_id": "0.0-4.0-1.0-1.0"}}, {"uniqueid": "w67030491:a95288785", "current_trial": 11, "dateTime": 1664555729688, "trialdata": {"revealed_states": [], "num_clicks_accrued": [0, 0, 0, 0, 0, 0, 0, 0, 0, 0, 0, 0, 0], "stateRewards": ["", 2, -4, 24, 24, 4, -4, -24, 24, -4, -4, 48, 48], "withholdReward": true, "trial_id": "mdp_566306223773", "block": "test1", "trialIndex": 4, "score": 42.25, "costs": -2.75, "simulationMode": [null, null, null], "rewards": [-4, -4, 48], "path": ["0", "0", "9", "10", "11"], "rt": [24227, 158, 677], "actions": ["left", "left", "up"], "actionTimes": [26562, 27234, 28419], "queries": {"click": {"state": {"target": ["9", "1", "5", "7", "8", "6", "3", "4", "2", "11", "10"], "time": [7848, 9008, 9936, 11927, 13209, 14973, 17056, 18161, 19166, 21604, 22596]}, "edge": {"target": [], "time": []}}, "mouseover": {"state": {"target": ["9", "1", "5", "7", "6", "8", "6", "3", "2", "4", "2", "11", "10"], "time": [7477, 8645, 9511, 11327, 12644, 12877, 14627, 16676, 17710, 17826, 18825, 21242, 22274]}, "edge": {"target": [], "time": []}}, "mouseout": {"state": {"target": ["0", "9", "1", "5", "7", "6", "8", "6", "3", "2", "4", "2", "11", "10"], "time": [7377, 8460, 9394, 10960, 12611, 12777, 14543, 16409, 17692, 17760, 18742, 20976, 22258, 23758]}, "edge": {"target": [], "time": []}}}, "displayed_time": "28.92", "trialTime": 30960, "trial_type": "mouselab-mdp", "trial_index": 11, "time_elapsed": 562492, "internal_node_id": "0.0-4.0-1.0-2.0"}}, {"uniqueid": "w67030491:a95288785", "current_trial": 12, "dateTime": 1664555760806, "trialdata": {"revealed_states": [], "num_clicks_accrued": [0, 0, 0, 0, 0, 0, 0, 0, 0, 0, 0, 0, 0], "stateRewards": ["", -4, 4, -24, 24, -2, -4, 48, 24, 2, 8, -48, 24], "withholdReward": true, "trial_id": "mdp_150340189492", "block": "test1", "trialIndex": 5, "score": 44, "costs": -3, "simulationMode": [null, null, null], "rewards": [-2, -4, 48], "path": ["0", "0", "5", "6", "7"], "rt": [23867, 53, 317], "actions": ["right", "right", "up"], "actionTimes": [27708, 28278, 29107], "queries": {"click": {"state": {"target": ["9", "10", "12", "11", "5", "6", "8", "7", "3", "4", "2", "1"], "time": [5526, 7560, 8682, 10399, 14602, 15656, 16435, 17448, 22173, 23214, 25297, 26140]}, "edge": {"target": [], "time": []}}, "mouseover": {"state": {"target": ["9", "10", "12", "11", "5", "6", "8", "7", "3", "2", "4", "2", "1"], "time": [4844, 6927, 8310, 9910, 13692, 15276, 16111, 17059, 20408, 22658, 22857, 24940, 25806]}, "edge": {"target": [], "time": []}}, "mouseout": {"state": {"target": ["10", "0", "0", "9", "10", "12", "11", "5", "6", "8", "6", "7", "3", "2", "4", "2", "1"], "time": [2944, 3244, 4728, 6793, 8127, 9127, 11077, 15209, 16059, 16959, 17026, 18258, 22625, 22741, 23923, 25774, 26540]}, "edge": {"target": [], "time": []}}}, "displayed_time": "29.61", "trialTime": 31066, "trial_type": "mouselab-mdp", "trial_index": 12, "time_elapsed": 593610, "internal_node_id": "0.0-4.0-1.0-3.0"}}, {"uniqueid": "w67030491:a95288785", "current_trial": 13, "dateTime": 1664555791372, "trialdata": {"revealed_states": [], "num_clicks_accrued": [0, 0, 0, 0, 0, 0, 0, 0, 0, 0, 0, 0, 0], "stateRewards": ["", 4, -8, -24, 48, -4, 8, -24, -48, -4, -4, 24, 48], "withholdReward": false, "trial_id": "mdp_282352776624", "block": "test1", "trialIndex": 6, "score": 46.25, "costs": -2.75, "simulationMode": [null, null, null], "rewards": [4, -8, 48], "path": ["0", "0", "1", "2", "4"], "rt": [25414, 220, 103], "actions": ["up", "up", "left"], "actionTimes": [26989, 27723, 28339], "queries": {"click": {"state": {"target": ["9", "1", "5", "3", "7", "8", "4", "11", "12", "10", "2"], "time": [6225, 7097, 8534, 9617, 10652, 11601, 12599, 13640, 14475, 15914, 18274]}, "edge": {"target": [], "time": []}}, "mouseover": {"state": {"target": ["9", "1", "5", "3", "7", "6", "8", "4", "11", "10", "12", "10", "2"], "time": [5740, 6690, 7757, 9223, 10289, 11122, 11190, 12338, 13272, 14038, 14139, 15505, 17888]}, "edge": {"target": [], "time": []}}, "mouseout": {"state": {"target": ["0", "9", "1", "5", "3", "7", "6", "8", "1", "4", "11", "10", "12", "10", "9", "1", "2", "1"], "time": [5657, 6640, 7523, 9022, 10173, 11106, 11138, 11989, 12138, 13172, 14022, 14071, 14988, 16255, 16304, 17854, 18705, 18738]}, "edge": {"target": [], "time": []}}}, "displayed_time": "28.85", "trialTime": 30518, "trial_type": "mouselab-mdp", "trial_index": 13, "time_elapsed": 624176, "internal_node_id": "0.0-4.0-1.0-4.0"}}, {"uniqueid": "w67030491:a95288785", "current_trial": 14, "dateTime": 1664555816173, "trialdata": {"revealed_states": [], "num_clicks_accrued": [0, 0, 0, 0, 0, 0, 0, 0, 0, 0, 0, 0, 0], "stateRewards": ["", 4, 4, 48, -24, -4, -8, 24, -24, 2, -8, -24, 24], "withholdReward": true, "trial_id": "mdp_933201675789", "block": "test1", "trialIndex": 7, "score": 58.75, "costs": -2.25, "simulationMode": [null, null, null], "rewards": [4, 4, 48], "path": ["0", "0", "1", "2", "3"], "rt": [19376, 67, 161], "actions": ["up", "up", "right"], "actionTimes": [21661, 22221, 22895], "queries": {"click": {"state": {"target": ["9", "12", "11", "4", "3", "7", "8", "2", "1"], "time": [8099, 9293, 10539, 11505, 12361, 13418, 14308, 19494, 20485]}, "edge": {"target": [], "time": []}}, "mouseover": {"state": {"target": ["9", "12", "10", "11", "4", "2", "3", "7", "6", "8", "6", "1", "2", "1"], "time": [5954, 8920, 9786, 9885, 11087, 11903, 12019, 13069, 13818, 14018, 14951, 19002, 19151, 20185]}, "edge": {"target": [], "time": []}}, "mouseout": {"state": {"target": ["0", "9", "12", "10", "11", "4", "2", "3", "7", "6", "8", "6", "1", "2", "1"], "time": [5838, 8852, 9752, 9835, 11036, 11886, 11936, 12802, 13802, 13885, 14902, 14969, 19101, 19918, 20834]}, "edge": {"target": [], "time": []}}}, "displayed_time": "23.40", "trialTime": 24756, "trial_type": "mouselab-mdp", "trial_index": 14, "time_elapsed": 648976, "internal_node_id": "0.0-4.0-1.0-5.0"}}, {"uniqueid": "w67030491:a95288785", "current_trial": 15, "dateTime": 1664555849175, "trialdata": {"revealed_states": [], "num_clicks_accrued": [0, 0, 0, 0, 0, 0, 0, 0, 0, 0, 0, 0, 0], "stateRewards": ["", -4, 4, 24, 24, -2, 8, 24, -48, 4, -8, -24, -48], "withholdReward": true, "trial_id": "mdp_651542905861", "block": "test1", "trialIndex": 8, "score": 32, "costs": -3, "simulationMode": [null, null, null], "rewards": [-2, 8, 24], "path": ["0", "0", "5", "6", "7"], "rt": [28642, 145, 553], "actions": ["right", "right", "up"], "actionTimes": [29820, 30481, 31537], "queries": {"click": {"state": {"target": ["4", "11", "12", "3", "7", "8", "10", "6", "2", "9", "5", "1"], "time": [3269, 4190, 5229, 6300, 7206, 8156, 15026, 16040, 17881, 21649, 23002, 24072]}, "edge": {"target": [], "time": []}}, "mouseover": {"state": {"target": ["1", "4", "11", "10", "12", "9", "1", "3", "7", "6", "8", "0", "9", "10", "9", "0", "5", "6", "1", "2", "1", "0", "9", "5", "1", "0"], "time": [2674, 2908, 3839, 4707, 4956, 5623, 5672, 5922, 6839, 7640, 7839, 14020, 14254, 14688, 15405, 15438, 15488, 15655, 16936, 17188, 18453, 21187, 21303, 22619, 23653, 24504]}, "edge": {"target": [], "time": []}}, "mouseout": {"state": {"target": ["1", "4", "11", "10", "12", "9", "1", "3", "7", "6", "8", "0", "9", "10", "9", "0", "5", "6", "1", "2", "1", "0", "9", "5", "1", "0"], "time": [2690, 3739, 4690, 4740, 5608, 5639, 5756, 6722, 7606, 7740, 8673, 14188, 14654, 15388, 15421, 15471, 15571, 16488, 17055, 18438, 18471, 21219, 22538, 23570, 24470, 24537]}, "edge": {"target": [], "time": []}}}, "displayed_time": "32.04", "trialTime": 32949, "trial_type": "mouselab-mdp", "trial_index": 15, "time_elapsed": 681979, "internal_node_id": "0.0-4.0-1.0-6.0"}}, {"uniqueid": "w67030491:a95288785", "current_trial": 16, "dateTime": 1664555859968, "trialdata": {"revealed_states": [], "num_clicks_accrued": [0, 0, 0, 0, 0, 0, 0, 0, 0, 0, 0, 0, 0], "stateRewards": ["", -2, 4, -24, 48, 4, -8, 48, -48, 2, -8, 48, 24], "withholdReward": true, "trial_id": "mdp_501111216502", "block": "test1", "trialIndex": 9, "score": 54.25, "costs": -0.75, "simulationMode": [null, null, null], "rewards": [-2, 4, 48], "path": ["0", "0", "1", "2", "4"], "rt": [6749, 100, 218], "actions": ["up", "up", "left"], "actionTimes": [8008, 8618, 9351], "queries": {"click": {"state": {"target": ["4", "2", "1"], "time": [2830, 5605, 6464]}, "edge": {"target": [], "time": []}}, "mouseover": {"state": {"target": ["1", "4", "2", "3", "1", "2", "1", "0"], "time": [2101, 2417, 3567, 3767, 5117, 5250, 6100, 6801]}, "edge": {"target": [], "time": []}}, "mouseout": {"state": {"target": ["0", "1", "4", "2", "3", "1", "2", "1", "0"], "time": [2034, 2185, 3535, 3635, 4834, 5193, 5968, 6768, 6817]}, "edge": {"target": [], "time": []}}}, "displayed_time": "9.85", "trialTime": 10743, "trial_type": "mouselab-mdp", "trial_index": 16, "time_elapsed": 692772, "internal_node_id": "0.0-4.0-1.0-7.0"}}, {"uniqueid": "w67030491:a95288785", "current_trial": 17, "dateTime": 1664555880132, "trialdata": {"revealed_states": [], "num_clicks_accrued": [0, 0, 0, 0, 0, 0, 0, 0, 0, 0, 0, 0, 0], "stateRewards": ["", 2, 8, 48, -24, -4, 4, 48, 24, -2, 8, 24, 24], "withholdReward": false, "trial_id": "mdp_123436106791", "block": "test1", "trialIndex": 10, "score": 51, "costs": -2, "simulationMode": [null, null, null], "rewards": [-4, 4, 48], "path": ["0", "0", "5", "6", "7"], "rt": [15464, 138, 919], "actions": ["right", "right", "up"], "actionTimes": [16545, 17202, 18615], "queries": {"click": {"state": {"target": ["12", "9", "10", "11", "8", "7", "6", "5"], "time": [2824, 4879, 5883, 8037, 12110, 13114, 14915, 15652]}, "edge": {"target": [], "time": []}}, "mouseover": {"state": {"target": ["9", "10", "12", "9", "10", "11", "8", "6", "7", "6", "5", "6", "5"], "time": [1832, 2052, 2433, 4500, 5532, 7466, 11781, 12564, 12631, 14080, 14264, 14581, 15381]}, "edge": {"target": [], "time": []}}, "mouseout": {"state": {"target": ["0", "9", "10", "12", "9", "10", "11", "9", "8", "6", "7", "6", "5", "6"], "time": [1669, 1882, 2383, 4183, 5467, 7399, 9532, 9599, 12531, 12598, 13964, 14214, 14547, 15331]}, "edge": {"target": [], "time": []}}}, "displayed_time": "19.11", "trialTime": 20109, "trial_type": "mouselab-mdp", "trial_index": 17, "time_elapsed": 712936, "internal_node_id": "0.0-4.0-1.0-8.0"}}, {"uniqueid": "w67030491:a95288785", "current_trial": 18, "dateTime": 1664555892949, "trialdata": {"revealed_states": [], "num_clicks_accrued": [0, 0, 0, 0, 0, 0, 0, 0, 0, 0, 0, 0, 0], "stateRewards": ["", 2, 4, -48, 24, -4, 4, -24, 48, -2, -8, -48, 48], "withholdReward": false, "trial_id": "mdp_424193661731", "block": "test1", "trialIndex": 11, "score": 51.25, "costs": -1.75, "simulationMode": [null, null, null], "rewards": [-4, 4, 48], "path": ["0", "0", "5", "6", "8"], "rt": [8350, 83, 234], "actions": ["right", "right", "down"], "actionTimes": [9522, 10110, 10858], "queries": {"click": {"state": {"target": ["11", "12", "10", "9", "8", "6", "5"], "time": [2199, 3247, 4450, 5203, 6647, 7575, 8276]}, "edge": {"target": [], "time": []}}, "mouseover": {"state": {"target": ["11", "10", "12", "10", "9", "0", "8", "6", "5"], "time": [1893, 2810, 2894, 4092, 4892, 6026, 6208, 7176, 7975]}, "edge": {"target": [], "time": []}}, "mouseout": {"state": {"target": ["5", "11", "10", "12", "10", "9", "0", "8", "6", "5"], "time": [759, 2776, 2860, 3810, 4826, 6010, 6059, 7143, 7943, 12291]}, "edge": {"target": [], "time": []}}}, "displayed_time": "11.38", "trialTime": 12773, "trial_type": "mouselab-mdp", "trial_index": 18, "time_elapsed": 725752, "internal_node_id": "0.0-4.0-1.0-9.0"}}, {"uniqueid": "w67030491:a95288785", "current_trial": 19, "dateTime": 1664555922437, "trialdata": {"revealed_states": [], "num_clicks_accrued": [0, 0, 0, 0, 0, 0, 0, 0, 0, 0, 0, 0, 0], "stateRewards": ["", 2, 8, -48, -24, 2, -4, -48, 24, 2, -4, -24, -24], "withholdReward": true, "trial_id": "mdp_954659099093", "block": "test1", "trialIndex": 12, "score": 24, "costs": -3, "simulationMode": [null, null, null], "rewards": [2, -4, 24], "path": ["0", "0", "5", "6", "8"], "rt": [25266, 116, 304], "actions": ["right", "right", "down"], "actionTimes": [26516, 27142, 27964], "queries": {"click": {"state": {"target": ["12", "11", "4", "3", "7", "8", "6", "5", "10", "9", "2", "1"], "time": [2460, 3402, 4314, 5130, 6013, 6944, 8253, 9174, 19358, 20195, 22509, 25300]}, "edge": {"target": [], "time": []}}, "mouseover": {"state": {"target": ["0", "12", "10", "11", "4", "2", "3", "7", "6", "8", "6", "5", "0", "9", "1", "2", "9", "10", "9", "2", "1", "0", "0", "0", "1", "0"], "time": [1797, 2080, 2879, 2912, 3863, 4696, 4796, 5561, 6478, 6597, 7862, 8861, 9628, 9678, 10278, 10310, 12686, 14810, 19826, 22192, 22909, 22942, 24009, 24892, 24942, 25675]}, "edge": {"target": [], "time": []}}, "mouseout": {"state": {"target": ["0", "0", "12", "10", "11", "4", "2", "3", "7", "6", "8", "6", "5", "0", "9", "1", "2", "9", "10", "9", "2", "1", "0", "0", "0", "1"], "time": [930, 1813, 2864, 2895, 3762, 4680, 4746, 5495, 6445, 6528, 7729, 8796, 9611, 9645, 10028, 10294, 10811, 14761, 19776, 20793, 22893, 22926, 22975, 24024, 24908, 25592]}, "edge": {"target": [], "time": []}}}, "displayed_time": "28.48", "trialTime": 29435, "trial_type": "mouselab-mdp", "trial_index": 19, "time_elapsed": 755241, "internal_node_id": "0.0-4.0-1.0-10.0"}}, {"uniqueid": "w67030491:a95288785", "current_trial": 20, "dateTime": 1664555934272, "trialdata": {"revealed_states": [], "num_clicks_accrued": [0, 0, 0, 0, 0, 0, 0, 0, 0, 0, 0, 0, 0], "stateRewards": ["", -2, 4, 24, 48, 2, 4, -48, -48, -2, 8, 48, -24], "withholdReward": true, "trial_id": "mdp_305701202606", "block": "test1", "trialIndex": 13, "score": 53.5, "costs": -1.5, "simulationMode": [null, null, null], "rewards": [-2, 4, 48], "path": ["0", "0", "1", "2", "4"], "rt": [8237, 82, 259], "actions": ["up", "up", "left"], "actionTimes": [9240, 9823, 10600], "queries": {"click": {"state": {"target": ["7", "8", "3", "4", "2", "1"], "time": [3410, 4344, 5464, 6333, 7544, 8245]}, "edge": {"target": [], "time": []}}, "mouseover": {"state": {"target": ["5", "6", "7", "6", "8", "6", "3", "2", "4", "11", "2", "1"], "time": [2691, 2959, 3040, 3807, 4073, 4756, 5090, 5922, 6022, 6906, 7157, 7939]}, "edge": {"target": [], "time": []}}, "mouseout": {"state": {"target": ["0", "5", "6", "7", "6", "8", "6", "7", "3", "2", "4", "11", "4", "2", "1"], "time": [2657, 2707, 3007, 3790, 3840, 4741, 4790, 4823, 5906, 5973, 6788, 7056, 7139, 7906, 8606]}, "edge": {"target": [], "time": []}}}, "displayed_time": "11.11", "trialTime": 11787, "trial_type": "mouselab-mdp", "trial_index": 20, "time_elapsed": 767076, "internal_node_id": "0.0-4.0-1.0-11.0"}}, {"uniqueid": "w67030491:a95288785", "current_trial": 21, "dateTime": 1664555954580, "trialdata": {"revealed_states": [], "num_clicks_accrued": [0, 0, 0, 0, 0, 0, 0, 0, 0, 0, 0, 0, 0], "stateRewards": ["", 2, 8, -48, 24, -4, 8, 48, -24, 2, 8, 24, 24], "withholdReward": true, "trial_id": "mdp_175372499314", "block": "test1", "trialIndex": 14, "score": 54.75, "costs": -2.25, "simulationMode": [null, null, null], "rewards": [-4, 8, 48], "path": ["0", "0", "5", "6", "7"], "rt": [15495, 217, 206], "actions": ["right", "right", "up"], "actionTimes": [16630, 17344, 18067], "queries": {"click": {"state": {"target": ["12", "11", "10", "9", "3", "4", "7", "6", "5"], "time": [2593, 5119, 6023, 6893, 11050, 11885, 12736, 14129, 14840]}, "edge": {"target": [], "time": []}}, "mouseover": {"state": {"target": ["12", "10", "11", "4", "4", "11", "10", "9", "5", "3", "2", "4", "2", "7", "6", "8", "6", "5"], "time": [2212, 3078, 3162, 3545, 3778, 4830, 5695, 6479, 10327, 10743, 11460, 11561, 12177, 12295, 13161, 13261, 13803, 14510]}, "edge": {"target": [], "time": []}}, "mouseout": {"state": {"target": ["0", "12", "10", "11", "4", "4", "11", "10", "9", "5", "3", "2", "4", "2", "7", "6", "8", "6", "5"], "time": [2081, 3045, 3145, 3211, 3579, 4128, 5661, 6412, 7461, 10360, 11427, 11494, 12161, 12210, 13110, 13193, 13577, 14476, 15176]}, "edge": {"target": [], "time": []}}}, "displayed_time": "18.58", "trialTime": 20253, "trial_type": "mouselab-mdp", "trial_index": 21, "time_elapsed": 787384, "internal_node_id": "0.0-4.0-1.0-12.0"}}, {"uniqueid": "w67030491:a95288785", "current_trial": 22, "dateTime": 1664555966475, "trialdata": {"revealed_states": [], "num_clicks_accrued": [0, 0, 0, 0, 0, 0, 0, 0, 0, 0, 0, 0, 0], "stateRewards": ["", -2, 8, 48, 24, 2, -8, -24, -48, -4, 8, -48, 24], "withholdReward": false, "trial_id": "mdp_224053025943", "block": "test1", "trialIndex": 15, "score": 57.5, "costs": -1.5, "simulationMode": [null, null, null], "rewards": [-2, 8, 48], "path": ["0", "0", "1", "2", "3"], "rt": [6711, 461, 104], "actions": ["up", "up", "right"], "actionTimes": [7850, 9001, 9596], "queries": {"click": {"state": {"target": ["7", "4", "11", "3", "2", "1"], "time": [2131, 3242, 4119, 5133, 6236, 6917]}, "edge": {"target": [], "time": []}}, "mouseover": {"state": {"target": ["7", "2", "4", "11", "2", "3", "1", "2", "1"], "time": [1773, 2691, 2907, 3807, 4691, 4824, 5556, 5839, 6605]}, "edge": {"target": [], "time": []}}, "mouseout": {"state": {"target": ["0", "7", "2", "4", "11", "2", "3", "1", "2", "1", "9"], "time": [757, 2591, 2758, 3657, 4573, 4706, 5540, 5573, 6574, 7256, 10923]}, "edge": {"target": [], "time": []}}}, "displayed_time": "10.14", "trialTime": 11845, "trial_type": "mouselab-mdp", "trial_index": 22, "time_elapsed": 799279, "internal_node_id": "0.0-4.0-1.0-13.0"}}, {"uniqueid": "w67030491:a95288785", "current_trial": 23, "dateTime": 1664555977719, "trialdata": {"revealed_states": [], "num_clicks_accrued": [0, 0, 0, 0, 0, 0, 0, 0, 0, 0, 0, 0, 0], "stateRewards": ["", -2, 8, 48, 48, 4, -8, -48, 48, 2, -4, -48, 48], "withholdReward": true, "trial_id": "mdp_132958048709", "block": "test1", "trialIndex": 16, "score": 50.25, "costs": -0.75, "simulationMode": [null, null, null], "rewards": [2, -4, 48], "path": ["0", "0", "9", "10", "12"], "rt": [7360, 129, 170], "actions": ["left", "left", "down"], "actionTimes": [8431, 9048, 9721], "queries": {"click": {"state": {"target": ["12", "10", "9"], "time": [4107, 5092, 5780]}, "edge": {"target": [], "time": []}}, "mouseover": {"state": {"target": ["12", "10", "9"], "time": [3418, 4701, 5468]}, "edge": {"target": [], "time": []}}, "mouseout": {"state": {"target": ["0", "12", "10", "9"], "time": [2584, 4667, 5418, 6234]}, "edge": {"target": [], "time": []}}}, "displayed_time": "10.23", "trialTime": 11187, "trial_type": "mouselab-mdp", "trial_index": 23, "time_elapsed": 810523, "internal_node_id": "0.0-4.0-1.0-14.0"}}, {"uniqueid": "w67030491:a95288785", "current_trial": 24, "dateTime": 1664556004872, "trialdata": {"revealed_states": [], "num_clicks_accrued": [0, 0, 0, 0, 0, 0, 0, 0, 0, 0, 0, 0, 0], "stateRewards": ["", -2, -8, 48, 24, 2, 8, -48, 24, -4, 8, 48, 48], "withholdReward": true, "trial_id": "mdp_875436109858", "block": "test1", "trialIndex": 17, "score": 54.5, "costs": -2.5, "simulationMode": [null, null, null], "rewards": [-4, 8, 48], "path": ["0", "0", "9", "10", "11"], "rt": [21083, 168, 685], "actions": ["left", "left", "up"], "actionTimes": [22455, 23131, 24466], "queries": {"click": {"state": {"target": ["4", "3", "2", "1", "7", "8", "12", "11", "10", "9"], "time": [2759, 3842, 4805, 5486, 10727, 11611, 12780, 13672, 14350, 15129]}, "edge": {"target": [], "time": []}}, "mouseover": {"state": {"target": ["4", "2", "3", "2", "1", "7", "6", "8", "10", "12", "10", "11", "10", "9"], "time": [2266, 3400, 3550, 4467, 5168, 7483, 11114, 11250, 12148, 12381, 13215, 13316, 14015, 14781]}, "edge": {"target": [], "time": []}}, "mouseout": {"state": {"target": ["0", "4", "2", "3", "3", "2", "1", "1", "7", "6", "8", "10", "12", "10", "11", "10", "9"], "time": [734, 3366, 3467, 4333, 4416, 5117, 5784, 7348, 11098, 11181, 12048, 12181, 13198, 13265, 13981, 14699, 15532]}, "edge": {"target": [], "time": []}}}, "displayed_time": "24.96", "trialTime": 27091, "trial_type": "mouselab-mdp", "trial_index": 24, "time_elapsed": 837676, "internal_node_id": "0.0-4.0-1.0-15.0"}}, {"uniqueid": "w67030491:a95288785", "current_trial": 25, "dateTime": 1664556023327, "trialdata": {"revealed_states": [], "num_clicks_accrued": [0, 0, 0, 0, 0, 0, 0, 0, 0, 0, 0, 0, 0], "stateRewards": ["", -4, 8, -48, -48, -2, -8, -24, -48, 2, -4, -48, 24], "withholdReward": true, "trial_id": "mdp_743906784415", "block": "test1", "trialIndex": 18, "score": 25.25, "costs": -1.75, "simulationMode": [null, null, null], "rewards": [2, -4, 24], "path": ["0", "0", "9", "10", "12"], "rt": [12984, 199, 32], "actions": ["left", "left", "down"], "actionTimes": [14658, 15367, 15917], "queries": {"click": {"state": {"target": ["11", "12", "4", "3", "7", "8", "9"], "time": [2980, 3911, 4816, 5709, 6678, 7472, 13299]}, "edge": {"target": [], "time": []}}, "mouseover": {"state": {"target": ["11", "10", "12", "9", "4", "2", "3", "7", "6", "8", "9", "10"], "time": [2703, 3486, 3570, 4269, 4452, 5219, 5304, 6370, 7052, 7119, 8952, 13801]}, "edge": {"target": [], "time": []}}, "mouseout": {"state": {"target": ["0", "0", "11", "10", "12", "9", "4", "2", "3", "7", "6", "8", "9", "10"], "time": [1287, 2166, 3470, 3537, 4237, 4286, 5187, 5236, 6086, 7020, 7085, 8769, 13769, 14052]}, "edge": {"target": [], "time": []}}}, "displayed_time": "16.45", "trialTime": 18404, "trial_type": "mouselab-mdp", "trial_index": 25, "time_elapsed": 856131, "internal_node_id": "0.0-4.0-1.0-16.0"}}, {"uniqueid": "w67030491:a95288785", "current_trial": 26, "dateTime": 1664556038473, "trialdata": {"revealed_states": [], "num_clicks_accrued": [0, 0, 0, 0, 0, 0, 0, 0, 0, 0, 0, 0, 0], "stateRewards": ["", 2, -4, -24, -48, -2, 8, -24, 48, -2, 8, 24, -48], "withholdReward": true, "trial_id": "mdp_566582551557", "block": "test1", "trialIndex": 19, "score": 57, "costs": -2, "simulationMode": [null, null, null], "rewards": [-2, 8, 48], "path": ["0", "0", "5", "6", "8"], "rt": [10057, 40, 273], "actions": ["right", "right", "down"], "actionTimes": [11957, 12501, 13285], "queries": {"click": {"state": {"target": ["4", "3", "7", "11", "12", "8", "6", "5"], "time": [4299, 5312, 6063, 7027, 7960, 8917, 10515, 11208]}, "edge": {"target": [], "time": []}}, "mouseover": {"state": {"target": ["1", "2", "4", "2", "3", "7", "1", "11", "10", "12", "8", "6", "5"], "time": [3695, 3762, 3912, 4812, 4945, 5745, 6494, 6727, 7478, 7595, 8462, 9960, 10927]}, "edge": {"target": [], "time": []}}, "mouseout": {"state": {"target": ["0", "1", "2", "4", "2", "3", "7", "1", "11", "10", "12", "8", "6", "5"], "time": [1145, 3744, 3779, 4795, 4878, 5678, 6428, 6527, 7444, 7545, 8344, 9910, 10877, 11478]}, "edge": {"target": [], "time": []}}}, "displayed_time": "13.79", "trialTime": 15096, "trial_type": "mouselab-mdp", "trial_index": 26, "time_elapsed": 871276, "internal_node_id": "0.0-4.0-1.0-17.0"}}, {"uniqueid": "w67030491:a95288785", "current_trial": 27, "dateTime": 1664556053078, "trialdata": {"revealed_states": [], "num_clicks_accrued": [0, 0, 0, 0, 0, 0, 0, 0, 0, 0, 0, 0, 0], "stateRewards": ["", -4, -4, 24, 48, 4, -4, -24, 24, -4, -4, 24, 24], "withholdReward": true, "trial_id": "mdp_357725458160", "block": "test1", "trialIndex": 20, "score": 43, "costs": -2, "simulationMode": [null, null, null], "rewards": [-4, -4, 48], "path": ["0", "0", "1", "2", "4"], "rt": [10124, 67, 82], "actions": ["up", "up", "left"], "actionTimes": [11942, 12515, 13128], "queries": {"click": {"state": {"target": ["11", "12", "4", "2", "1", "3", "7", "8"], "time": [3517, 4466, 5501, 6647, 7461, 8630, 9423, 10223]}, "edge": {"target": [], "time": []}}, "mouseover": {"state": {"target": ["11", "10", "12", "4", "4", "2", "2", "1", "3", "7", "6", "8"], "time": [3147, 3997, 4149, 4915, 5197, 5948, 6331, 7080, 8131, 9098, 9749, 9864]}, "edge": {"target": [], "time": []}}, "mouseout": {"state": {"target": ["0", "11", "10", "12", "4", "4", "2", "2", "1", "3", "7", "6"], "time": [2943, 3981, 4049, 4748, 5066, 5914, 6082, 7014, 7814, 9014, 9748, 9797]}, "edge": {"target": [], "time": []}}}, "displayed_time": "13.65", "trialTime": 14558, "trial_type": "mouselab-mdp", "trial_index": 27, "time_elapsed": 885882, "internal_node_id": "0.0-4.0-1.0-18.0"}}, {"uniqueid": "w67030491:a95288785", "current_trial": 28, "dateTime": 1664556067502, "trialdata": {"revealed_states": [], "num_clicks_accrued": [0, 0, 0, 0, 0, 0, 0, 0, 0, 0, 0, 0, 0], "stateRewards": ["", 2, 8, -48, 48, -4, -8, 24, 24, -2, -8, 24, -24], "withholdReward": true, "trial_id": "mdp_910248289075", "block": "test1", "trialIndex": 21, "score": 61.5, "costs": -1.5, "simulationMode": [null, null, null], "rewards": [2, 8, 48], "path": ["0", "0", "1", "2", "4"], "rt": [7416, 92, 199], "actions": ["up", "up", "left"], "actionTimes": [9927, 10522, 11229], "queries": {"click": {"state": {"target": ["12", "11", "4", "3", "2", "1"], "time": [3457, 4445, 6056, 6968, 8343, 9034]}, "edge": {"target": [], "time": []}}, "mouseover": {"state": {"target": ["12", "10", "11", "4", "2", "3", "2", "1"], "time": [3147, 3881, 4131, 5750, 6480, 6681, 8047, 8697]}, "edge": {"target": [], "time": []}}, "mouseout": {"state": {"target": ["8", "0", "12", "10", "11", "4", "2", "3", "2", "1"], "time": [1164, 2947, 3864, 3948, 4780, 6447, 6513, 7514, 8664, 9347]}, "edge": {"target": [], "time": []}}}, "displayed_time": "11.73", "trialTime": 14368, "trial_type": "mouselab-mdp", "trial_index": 28, "time_elapsed": 900306, "internal_node_id": "0.0-4.0-1.0-19.0"}}, {"uniqueid": "w67030491:a95288785", "current_trial": 29, "dateTime": 1664556083064, "trialdata": {"revealed_states": [], "num_clicks_accrued": [0, 0, 0, 0, 0, 0, 0, 0, 0, 0, 0, 0, 0], "stateRewards": ["", 4, 4, 48, -48, -2, 4, 48, -48, -4, 4, -24, -24], "withholdReward": true, "trial_id": "mdp_753324812898", "block": "test1", "trialIndex": 22, "score": 59.5, "costs": -1.5, "simulationMode": [null, null, null], "rewards": [4, 4, 48], "path": ["0", "0", "1", "2", "3"], "rt": [8109, 971, 60], "actions": ["up", "up", "right"], "actionTimes": [11586, 13065, 13636], "queries": {"click": {"state": {"target": ["12", "11", "4", "3", "2", "1"], "time": [4865, 5901, 6940, 7811, 9006, 10693]}, "edge": {"target": [], "time": []}}, "mouseover": {"state": {"target": ["12", "12", "10", "11", "4", "2", "3", "7", "2", "1"], "time": [4277, 4478, 5426, 5526, 6643, 7326, 7509, 8375, 8692, 9341]}, "edge": {"target": [], "time": []}}, "mouseout": {"state": {"target": ["0", "12", "12", "10", "11", "4", "2", "3", "7", "2", "1"], "time": [4227, 4311, 5409, 5476, 6327, 7293, 7376, 8158, 8459, 9308, 11108]}, "edge": {"target": [], "time": []}}}, "displayed_time": "14.16", "trialTime": 15512, "trial_type": "mouselab-mdp", "trial_index": 29, "time_elapsed": 915868, "internal_node_id": "0.0-4.0-1.0-20.0"}}, {"uniqueid": "w67030491:a95288785", "current_trial": 30, "dateTime": 1664556095263, "trialdata": {"revealed_states": [], "num_clicks_accrued": [0, 0, 0, 0, 0, 0, 0, 0, 0, 0, 0, 0, 0], "stateRewards": ["", 2, 8, 48, -48, -2, -4, -24, 24, 4, -4, 48, -48], "withholdReward": true, "trial_id": "mdp_105734044587", "block": "test1", "trialIndex": 23, "score": 61.75, "costs": -1.25, "simulationMode": [null, null, null], "rewards": [2, 8, 48], "path": ["0", "0", "1", "2", "3"], "rt": [6208, 255, 90], "actions": ["up", "up", "right"], "actionTimes": [8436, 9207, 9806], "queries": {"click": {"state": {"target": ["8", "7", "3", "2", "1"], "time": [3267, 4175, 4987, 6580, 7252]}, "edge": {"target": [], "time": []}}, "mouseover": {"state": {"target": ["8", "6", "7", "3", "2", "4", "2", "1"], "time": [2953, 3634, 3784, 4650, 5317, 5417, 5950, 6918]}, "edge": {"target": [], "time": []}}, "mouseout": {"state": {"target": ["0", "8", "6", "7", "3", "2", "4", "2", "1"], "time": [2684, 3601, 3717, 4600, 5300, 5350, 5901, 6885, 7501]}, "edge": {"target": [], "time": []}}}, "displayed_time": "11.23", "trialTime": 12139, "trial_type": "mouselab-mdp", "trial_index": 30, "time_elapsed": 928067, "internal_node_id": "0.0-4.0-1.0-21.0"}}, {"uniqueid": "w67030491:a95288785", "current_trial": 31, "dateTime": 1664556107657, "trialdata": {"revealed_states": [], "num_clicks_accrued": [0, 0, 0, 0, 0, 0, 0, 0, 0, 0, 0, 0, 0], "stateRewards": ["", -2, 4, 48, -24, 2, 8, 24, 48, 2, 4, -24, -48], "withholdReward": false, "trial_id": "mdp_892412058587", "block": "test1", "trialIndex": 24, "score": 54, "costs": -1, "simulationMode": [null, null, null], "rewards": [-2, 4, 48], "path": ["0", "0", "1", "2", "3"], "rt": [4523, 74, 36], "actions": ["up", "up", "right"], "actionTimes": [5860, 6429, 6973], "queries": {"click": {"state": {"target": ["4", "3", "2", "1"], "time": [2608, 3528, 4357, 5078]}, "edge": {"target": [], "time": []}}, "mouseover": {"state": {"target": ["4", "2", "3", "2", "1"], "time": [2256, 3038, 3238, 4037, 4673]}, "edge": {"target": [], "time": []}}, "mouseout": {"state": {"target": ["0", "4", "2", "3", "2", "1"], "time": [2096, 3023, 3088, 3921, 4640, 5306]}, "edge": {"target": [], "time": []}}}, "displayed_time": "10.34", "trialTime": 12340, "trial_type": "mouselab-mdp", "trial_index": 31, "time_elapsed": 940461, "internal_node_id": "0.0-4.0-1.0-22.0"}}, {"uniqueid": "w67030491:a95288785", "current_trial": 32, "dateTime": 1664556134881, "trialdata": {"revealed_states": [], "num_clicks_accrued": [0, 0, 0, 0, 0, 0, 0, 0, 0, 0, 0, 0, 0], "stateRewards": ["", -2, -8, -24, 48, -2, -8, -48, -48, 2, -8, -48, 24], "withholdReward": false, "trial_id": "mdp_288324580942", "block": "test1", "trialIndex": 25, "score": 40.5, "costs": -2.5, "simulationMode": [null, null, null], "rewards": [-2, -8, 48], "path": ["0", "0", "1", "2", "4"], "rt": [18308, 1030, 659], "actions": ["up", "up", "left"], "actionTimes": [20131, 21667, 22845], "queries": {"click": {"state": {"target": ["12", "11", "4", "2", "1", "3", "7", "8", "10", "9"], "time": [2817, 3766, 4595, 5545, 6181, 6889, 7647, 8390, 13168, 13834]}, "edge": {"target": [], "time": []}}, "mouseover": {"state": {"target": ["0", "12", "10", "11", "4", "2", "3", "2", "1", "3", "7", "8", "9", "10", "9"], "time": [2256, 2507, 3306, 3390, 4207, 4957, 5055, 5239, 5890, 6555, 7290, 8005, 11872, 12288, 13538]}, "edge": {"target": [], "time": []}}, "mouseout": {"state": {"target": ["0", "0", "0", "12", "10", "11", "4", "2", "3", "2", "1", "3", "7", "8", "9", "10", "9"], "time": [724, 957, 2291, 3292, 3375, 4125, 4924, 5007, 5206, 5861, 6523, 7223, 7940, 9256, 12204, 13487, 14288]}, "edge": {"target": [], "time": []}}}, "displayed_time": "23.35", "trialTime": 27167, "trial_type": "mouselab-mdp", "trial_index": 32, "time_elapsed": 967684, "internal_node_id": "0.0-4.0-1.0-23.0"}}, {"uniqueid": "w67030491:a95288785", "current_trial": 33, "dateTime": 1664556145098, "trialdata": {"revealed_states": [], "num_clicks_accrued": [0, 0, 0, 0, 0, 0, 0, 0, 0, 0, 0, 0, 0], "stateRewards": ["", -4, -8, 24, 48, 2, -4, -24, 24, -4, 8, 48, 48], "withholdReward": true, "trial_id": "mdp_496672670022", "block": "test1", "trialIndex": 26, "score": 56.25, "costs": -0.75, "simulationMode": [null, null, null], "rewards": [-4, 8, 48], "path": ["0", "0", "9", "10", "11"], "rt": [5466, 105, 181], "actions": ["left", "left", "up"], "actionTimes": [7574, 8192, 8885], "queries": {"click": {"state": {"target": ["11", "10", "9"], "time": [4592, 5957, 6695]}, "edge": {"target": [], "time": []}}, "mouseover": {"state": {"target": ["10", "11", "11", "10", "10", "9"], "time": [3153, 3370, 4208, 5086, 5387, 6305]}, "edge": {"target": [], "time": []}}, "mouseout": {"state": {"target": ["0", "10", "11", "11", "10", "10", "9"], "time": [2870, 3337, 3437, 5036, 5237, 6271, 6970]}, "edge": {"target": [], "time": []}}}, "displayed_time": "10.11", "trialTime": 10153, "trial_type": "mouselab-mdp", "trial_index": 33, "time_elapsed": 977902, "internal_node_id": "0.0-4.0-1.0-24.0"}}, {"uniqueid": "w67030491:a95288785", "current_trial": 34, "dateTime": 1664556163023, "trialdata": {"revealed_states": [], "num_clicks_accrued": [0, 0, 0, 0, 0, 0, 0, 0, 0, 0, 0, 0, 0], "stateRewards": ["", -2, 8, -24, 48, -4, 4, -48, 24, 4, -8, 48, -24], "withholdReward": false, "trial_id": "mdp_425320427962", "block": "test1", "trialIndex": 27, "score": 57.25, "costs": -1.75, "simulationMode": [null, null, null], "rewards": [-2, 8, 48], "path": ["0", "0", "1", "2", "4"], "rt": [7404, 95, 349], "actions": ["up", "up", "left"], "actionTimes": [8912, 9526, 10380], "queries": {"click": {"state": {"target": ["12", "11", "10", "9", "4", "2", "1"], "time": [3088, 3981, 4880, 5667, 6510, 7360, 7989]}, "edge": {"target": [], "time": []}}, "mouseover": {"state": {"target": ["9", "11", "10", "12", "10", "11", "10", "9", "4", "2", "1"], "time": [1996, 2080, 2629, 2764, 3497, 3630, 4513, 5232, 6063, 6946, 7698]}, "edge": {"target": [], "time": []}}, "mouseout": {"state": {"target": ["0", "9", "11", "10", "12", "10", "11", "10", "9", "4", "2", "1"], "time": [1980, 2030, 2580, 2680, 3464, 3581, 4363, 5163, 5963, 6913, 7664, 8248]}, "edge": {"target": [], "time": []}}}, "displayed_time": "10.88", "trialTime": 17874, "trial_type": "mouselab-mdp", "trial_index": 34, "time_elapsed": 995827, "internal_node_id": "0.0-4.0-1.0-25.0"}}, {"uniqueid": "w67030491:a95288785", "current_trial": 35, "dateTime": 1664556180333, "trialdata": {"revealed_states": [], "num_clicks_accrued": [0, 0, 0, 0, 0, 0, 0, 0, 0, 0, 0, 0, 0], "stateRewards": ["", -4, -8, -48, -48, 4, -8, 48, 48, 2, 8, 48, 24], "withholdReward": true, "trial_id": "mdp_880437222492", "block": "test1", "trialIndex": 28, "score": 60.75, "costs": -2.25, "simulationMode": [null, null, null], "rewards": [2, 8, 48], "path": ["0", "0", "9", "10", "11"], "rt": [12592, 85, 304], "actions": ["left", "left", "up"], "actionTimes": [14380, 14975, 15794], "queries": {"click": {"state": {"target": ["4", "3", "7", "5", "6", "8", "11", "10", "9"], "time": [2880, 3805, 4558, 6251, 6930, 7978, 9854, 10987, 12863]}, "edge": {"target": [], "time": []}}, "mouseover": {"state": {"target": ["1", "4", "2", "3", "7", "6", "8", "6", "6", "5", "6", "8", "10", "11", "10", "10", "12", "9"], "time": [2393, 2543, 3292, 3478, 4225, 4941, 5159, 5342, 5676, 5893, 6658, 7626, 9274, 9525, 10325, 10608, 11808, 12373]}, "edge": {"target": [], "time": []}}, "mouseout": {"state": {"target": ["9", "0", "1", "4", "2", "3", "7", "6", "8", "6", "6", "5", "6", "8", "10", "11", "10", "10", "12", "9"], "time": [1277, 2319, 2443, 3260, 3325, 4175, 4924, 5009, 5326, 5543, 5826, 6574, 7242, 8377, 9443, 10291, 10374, 11674, 12241, 13590]}, "edge": {"target": [], "time": []}}}, "displayed_time": "16.29", "trialTime": 17249, "trial_type": "mouselab-mdp", "trial_index": 35, "time_elapsed": 1013136, "internal_node_id": "0.0-4.0-1.0-26.0"}}, {"uniqueid": "w67030491:a95288785", "current_trial": 36, "dateTime": 1664556202976, "trialdata": {"revealed_states": [], "num_clicks_accrued": [0, 0, 0, 0, 0, 0, 0, 0, 0, 0, 0, 0, 0], "stateRewards": ["", -4, -8, 48, -48, 2, -4, 48, -24, 2, -8, -48, -48], "withholdReward": true, "trial_id": "mdp_624553692913", "block": "test1", "trialIndex": 29, "score": 48.5, "costs": -2.5, "simulationMode": [null, null, null], "rewards": [2, -4, 48], "path": ["0", "0", "5", "6", "7"], "rt": [18238, 116, 451], "actions": ["right", "right", "up"], "actionTimes": [19528, 20152, 21119], "queries": {"click": {"state": {"target": ["4", "3", "2", "1", "7", "8", "6", "5", "11", "12"], "time": [2495, 3989, 5164, 9316, 10224, 11168, 12188, 12867, 14113, 15163]}, "edge": {"target": [], "time": []}}, "mouseover": {"state": {"target": ["1", "4", "2", "3", "2", "7", "1", "7", "6", "8", "6", "5", "0", "9", "11", "10", "12"], "time": [1904, 2022, 3589, 3639, 4804, 7236, 8936, 9969, 10670, 10820, 11836, 12586, 13335, 13436, 13736, 14534, 14618]}, "edge": {"target": [], "time": []}}, "mouseout": {"state": {"target": ["0", "1", "4", "2", "3", "2", "7", "1", "7", "6", "8", "6", "5", "0", "9", "11", "10", "12"], "time": [1838, 1938, 3238, 3604, 4438, 6837, 8770, 9686, 10636, 10720, 11670, 12538, 13303, 13403, 13486, 14519, 14568, 15785]}, "edge": {"target": [], "time": []}}}, "displayed_time": "21.64", "trialTime": 22591, "trial_type": "mouselab-mdp", "trial_index": 36, "time_elapsed": 1035779, "internal_node_id": "0.0-4.0-1.0-27.0"}}, {"uniqueid": "w67030491:a95288785", "current_trial": 37, "dateTime": 1664556220734, "trialdata": {"revealed_states": [], "num_clicks_accrued": [0, 0, 0, 0, 0, 0, 0, 0, 0, 0, 0, 0, 0], "stateRewards": ["", -2, 8, 48, -24, 2, 4, -48, -24, -4, 8, -48, -48], "withholdReward": true, "trial_id": "mdp_539167561933", "block": "test1", "trialIndex": 30, "score": 57, "costs": -2, "simulationMode": [null, null, null], "rewards": [-2, 8, 48], "path": ["0", "0", "1", "2", "3"], "rt": [9406, 28, 419], "actions": ["up", "up", "right"], "actionTimes": [11644, 13809, 14740], "queries": {"click": {"state": {"target": ["11", "12", "4", "3", "7", "8", "2", "1"], "time": [4293, 5261, 6238, 7075, 8004, 8773, 10482, 11076]}, "edge": {"target": [], "time": []}}, "mouseover": {"state": {"target": ["9", "11", "10", "12", "4", "4", "2", "3", "7", "6", "8", "2", "1"], "time": [3789, 3989, 4855, 4872, 5672, 5899, 6571, 6621, 7588, 8354, 8554, 9454, 10805]}, "edge": {"target": [], "time": []}}, "mouseout": {"state": {"target": ["0", "9", "11", "10", "12", "4", "4", "2", "3", "7", "6", "8", "2", "1"], "time": [3723, 3873, 4838, 4872, 5589, 5772, 6542, 6588, 7405, 8321, 8405, 9154, 10772, 13778]}, "edge": {"target": [], "time": []}}}, "displayed_time": "15.25", "trialTime": 17707, "trial_type": "mouselab-mdp", "trial_index": 37, "time_elapsed": 1053538, "internal_node_id": "0.0-4.0-1.0-28.0"}}, {"uniqueid": "w67030491:a95288785", "current_trial": 38, "dateTime": 1664556232528, "trialdata": {"revealed_states": [], "num_clicks_accrued": [0, 0, 0, 0, 0, 0, 0, 0, 0, 0, 0, 0, 0], "stateRewards": ["", -2, 8, -48, 48, -4, -8, 24, 24, -2, -4, 48, -48], "withholdReward": true, "trial_id": "mdp_867247318592", "block": "test1", "trialIndex": 31, "score": 57.5, "costs": -1.5, "simulationMode": [null, null, null], "rewards": [-2, 8, 48], "path": ["0", "0", "1", "2", "4"], "rt": [6742, 104, 236], "actions": ["up", "up", "left"], "actionTimes": [8955, 9552, 10300], "queries": {"click": {"state": {"target": ["11", "10", "9", "4", "2", "1"], "time": [3724, 4736, 5438, 6363, 7292, 7971]}, "edge": {"target": [], "time": []}}, "mouseover": {"state": {"target": ["9", "11", "10", "9", "4", "2", "1", "0"], "time": [3199, 3382, 4331, 5097, 6015, 6830, 7664, 8330]}, "edge": {"target": [], "time": []}}, "mouseout": {"state": {"target": ["0", "9", "11", "10", "9", "4", "2", "1", "0"], "time": [3166, 3265, 4131, 5047, 5898, 6780, 7632, 8296, 8346]}, "edge": {"target": [], "time": []}}}, "displayed_time": "10.81", "trialTime": 11746, "trial_type": "mouselab-mdp", "trial_index": 38, "time_elapsed": 1065331, "internal_node_id": "0.0-4.0-1.0-29.0"}}, {"uniqueid": "w67030491:a95288785", "current_trial": 39, "dateTime": 1664556239840, "trialdata": {"rt": 7306, "stimulus": "<h1> End of block! </h1>\n\nYou have reached the end of the block 1/4. If you need a short break, feel free to take one now before moving on.\n\n<br><br>\nIn the next block, you will complete another 30 rounds of this game.\n\n<br><br>\n<div style='text-align: center;'>Press <code>space</code> to begin.</div>\n<br><br>\n<div style='text-align: center;'>(If the experiment doesn't continue, try clicking on the text and then pressing <code>space</code>.)</div>", "response": " ", "trial_id": "mdp_ready_2", "trial_type": "html-keyboard-response", "trial_index": 39, "time_elapsed": 1072644, "internal_node_id": "0.0-4.0-2.0"}}, {"uniqueid": "w67030491:a95288785", "current_trial": 40, "dateTime": 1664556267645, "trialdata": {"revealed_states": [], "num_clicks_accrued": [0, 0, 0, 0, 0, 0, 0, 0, 0, 0, 0, 0, 0], "stateRewards": ["", -2, -8, 24, -48, 4, 4, -24, -48, -2, -8, -48, 24], "withholdReward": true, "trial_id": "mdp_556006673466", "block": "test2", "trialIndex": 32, "score": 16, "costs": -3, "simulationMode": [null, null, null], "rewards": [-2, -8, 24], "path": ["0", "0", "1", "2", "3"], "rt": [22287, 242, 52], "actions": ["up", "up", "right"], "actionTimes": [24569, 25318, 25878], "queries": {"click": {"state": {"target": ["4", "3", "11", "12", "7", "8", "2", "10", "9", "1", "6", "5"], "time": [4534, 5477, 6437, 7154, 8096, 9090, 14922, 15849, 16599, 17507, 21405, 22582]}, "edge": {"target": [], "time": []}}, "mouseover": {"state": {"target": ["1", "4", "2", "3", "11", "10", "12", "5", "6", "7", "6", "8", "8", "0", "1", "2", "10", "9", "1", "0", "5", "6", "5"], "time": [3413, 3745, 4996, 5129, 6161, 6778, 6811, 7529, 7562, 7794, 8399, 8429, 8717, 13443, 13510, 14562, 15561, 16261, 17027, 18060, 20959, 21076, 21978]}, "edge": {"target": [], "time": []}}, "mouseout": {"state": {"target": ["0", "1", "4", "2", "3", "11", "10", "12", "5", "6", "7", "6", "8", "8", "0", "1", "2", "10", "9", "1", "0", "5", "6", "5"], "time": [3329, 3463, 4979, 5029, 5878, 6762, 6794, 7462, 7545, 7711, 8398, 8429, 8513, 11394, 13460, 14476, 15278, 16210, 16961, 17993, 18126, 20992, 21792, 22942]}, "edge": {"target": [], "time": []}}}, "displayed_time": "26.41", "trialTime": 27749, "trial_type": "mouselab-mdp", "trial_index": 40, "time_elapsed": 1100449, "internal_node_id": "0.0-4.0-3.0-0.0"}}, {"uniqueid": "w67030491:a95288785", "current_trial": 41, "dateTime": 1664556280267, "trialdata": {"revealed_states": [], "num_clicks_accrued": [0, 0, 0, 0, 0, 0, 0, 0, 0, 0, 0, 0, 0], "stateRewards": ["", 2, -4, 24, -24, 2, -8, 48, 48, 4, -4, 24, 48], "withholdReward": true, "trial_id": "mdp_947836623875", "block": "test2", "trialIndex": 33, "score": 51.75, "costs": -1.25, "simulationMode": [null, null, null], "rewards": [4, -4, 48], "path": ["0", "0", "9", "10", "12"], "rt": [8007, 614, 162], "actions": ["left", "left", "down"], "actionTimes": [9443, 10570, 11251], "queries": {"click": {"state": {"target": ["11", "4", "12", "10", "9"], "time": [2346, 3305, 4134, 5705, 6313]}, "edge": {"target": [], "time": []}}, "mouseover": {"state": {"target": ["11", "4", "10", "12", "9", "1", "9", "10", "9", "1", "3", "0", "0", "3", "0"], "time": [2021, 2871, 3688, 3805, 4472, 4838, 5139, 5455, 6023, 6672, 6943, 7172, 7955, 8371, 8771]}, "edge": {"target": [], "time": []}}, "mouseout": {"state": {"target": ["0", "11", "4", "10", "12", "9", "1", "9", "10", "9", "1", "3", "0", "0", "3", "0"], "time": [1922, 2771, 3621, 3738, 4439, 4489, 5122, 5239, 5973, 6655, 6755, 7105, 7188, 7971, 8705, 8788]}, "edge": {"target": [], "time": []}}}, "displayed_time": "11.76", "trialTime": 12569, "trial_type": "mouselab-mdp", "trial_index": 41, "time_elapsed": 1113071, "internal_node_id": "0.0-4.0-3.0-1.0"}}, {"uniqueid": "w67030491:a95288785", "current_trial": 42, "dateTime": 1664556291318, "trialdata": {"revealed_states": [], "num_clicks_accrued": [0, 0, 0, 0, 0, 0, 0, 0, 0, 0, 0, 0, 0], "stateRewards": ["", -2, 4, 24, 48, 2, 4, -48, -48, -2, 8, 48, -24], "withholdReward": true, "trial_id": "mdp_305701202606", "block": "test2", "trialIndex": 34, "score": 54.25, "costs": -0.75, "simulationMode": [null, null, null], "rewards": [-2, 4, 48], "path": ["0", "0", "1", "2", "4"], "rt": [4311, 48, 158], "actions": ["up", "up", "left"], "actionTimes": [5573, 6139, 6798], "queries": {"click": {"state": {"target": ["4", "2", "1"], "time": [2394, 3914, 4588]}, "edge": {"target": [], "time": []}}, "mouseover": {"state": {"target": ["4", "2", "2", "1"], "time": [2140, 3073, 3640, 4273]}, "edge": {"target": [], "time": []}}, "mouseout": {"state": {"target": ["0", "4", "2", "2", "1"], "time": [1761, 3056, 3173, 4239, 4956]}, "edge": {"target": [], "time": []}}}, "displayed_time": "10.26", "trialTime": 10989, "trial_type": "mouselab-mdp", "trial_index": 42, "time_elapsed": 1124122, "internal_node_id": "0.0-4.0-3.0-2.0"}}, {"uniqueid": "w67030491:a95288785", "current_trial": 43, "dateTime": 1664556305813, "trialdata": {"revealed_states": [], "num_clicks_accrued": [0, 0, 0, 0, 0, 0, 0, 0, 0, 0, 0, 0, 0], "stateRewards": ["", -2, -8, 48, 24, 2, 8, -48, 24, -4, 8, 48, 48], "withholdReward": true, "trial_id": "mdp_875436109858", "block": "test2", "trialIndex": 35, "score": 54.5, "costs": -2.5, "simulationMode": [null, null, null], "rewards": [-4, 8, 48], "path": ["0", "0", "9", "10", "12"], "rt": [10616, 169, 93], "actions": ["left", "left", "down"], "actionTimes": [11827, 12513, 13120], "queries": {"click": {"state": {"target": ["4", "3", "2", "1", "7", "8", "12", "11", "10", "9"], "time": [2063, 2891, 3796, 4420, 5228, 5992, 8321, 9079, 9790, 11181]}, "edge": {"target": [], "time": []}}, "mouseover": {"state": {"target": ["4", "2", "3", "2", "1", "7", "6", "8", "9", "0", "5", "6", "12", "10", "11", "10", "9"], "time": [1678, 2411, 2528, 3478, 4144, 4845, 5562, 5610, 6727, 6760, 6810, 7127, 8011, 8626, 8727, 9493, 10144]}, "edge": {"target": [], "time": []}}, "mouseout": {"state": {"target": ["4", "2", "3", "2", "1", "7", "6", "8", "9", "0", "5", "6", "12", "10", "11", "10"], "time": [2396, 2462, 3295, 4111, 4728, 5561, 5594, 6344, 6744, 6776, 7028, 7694, 8612, 8677, 9427, 10078]}, "edge": {"target": [], "time": []}}}, "displayed_time": "13.63", "trialTime": 14442, "trial_type": "mouselab-mdp", "trial_index": 43, "time_elapsed": 1138617, "internal_node_id": "0.0-4.0-3.0-3.0"}}, {"uniqueid": "w67030491:a95288785", "current_trial": 44, "dateTime": 1664556315777, "trialdata": {"revealed_states": [], "num_clicks_accrued": [0, 0, 0, 0, 0, 0, 0, 0, 0, 0, 0, 0, 0], "stateRewards": ["", -4, -4, -48, 48, -4, -8, -24, -48, -2, 8, 48, 24], "withholdReward": true, "trial_id": "mdp_365393526663", "block": "test2", "trialIndex": 36, "score": 58.25, "costs": -0.75, "simulationMode": [null, null, null], "rewards": [-2, 8, 48], "path": ["0", "0", "9", "10", "11"], "rt": [3915, 87, 220], "actions": ["left", "left", "up"], "actionTimes": [5018, 5598, 6312], "queries": {"click": {"state": {"target": ["11", "10", "9"], "time": [1928, 3572, 4449]}, "edge": {"target": [], "time": []}}, "mouseover": {"state": {"target": ["11", "10", "12", "10", "10", "9"], "time": [1610, 2393, 2510, 2776, 3308, 3909]}, "edge": {"target": [], "time": []}}, "mouseout": {"state": {"target": ["9", "0", "11", "10", "12", "10", "10"], "time": [676, 759, 2359, 2443, 2720, 3109, 3876]}, "edge": {"target": [], "time": []}}}, "displayed_time": "9.11", "trialTime": 9907, "trial_type": "mouselab-mdp", "trial_index": 44, "time_elapsed": 1148581, "internal_node_id": "0.0-4.0-3.0-4.0"}}, {"uniqueid": "w67030491:a95288785", "current_trial": 45, "dateTime": 1664556326676, "trialdata": {"revealed_states": [], "num_clicks_accrued": [0, 0, 0, 0, 0, 0, 0, 0, 0, 0, 0, 0, 0], "stateRewards": ["", 2, 4, 48, 24, -4, 8, 48, 48, 2, -4, -48, -24], "withholdReward": true, "trial_id": "mdp_822099887466", "block": "test2", "trialIndex": 37, "score": 58.25, "costs": -0.75, "simulationMode": [null, null, null], "rewards": [2, 4, 48], "path": ["0", "0", "1", "2", "3"], "rt": [3835, 105, 29], "actions": ["up", "up", "right"], "actionTimes": [5245, 5847, 6371], "queries": {"click": {"state": {"target": ["3", "2", "1"], "time": [2371, 3320, 4375]}, "edge": {"target": [], "time": []}}, "mouseover": {"state": {"target": ["1", "2", "3", "2", "1"], "time": [1825, 1992, 2092, 2875, 3890]}, "edge": {"target": [], "time": []}}, "mouseout": {"state": {"target": ["9", "0", "1", "2", "3", "2", "1", "0"], "time": [691, 1775, 1859, 2007, 2775, 3692, 8907, 8990]}, "edge": {"target": [], "time": []}}}, "displayed_time": "10.41", "trialTime": 10841, "trial_type": "mouselab-mdp", "trial_index": 45, "time_elapsed": 1159480, "internal_node_id": "0.0-4.0-3.0-5.0"}}, {"uniqueid": "w67030491:a95288785", "current_trial": 46, "dateTime": 1664556343622, "trialdata": {"revealed_states": [], "num_clicks_accrued": [0, 0, 0, 0, 0, 0, 0, 0, 0, 0, 0, 0, 0], "stateRewards": ["", -2, -4, 48, 48, 2, 4, -48, 24, 4, -8, 24, -24], "withholdReward": true, "trial_id": "mdp_628613319495", "block": "test2", "trialIndex": 38, "score": 45, "costs": -2, "simulationMode": [null, null, null], "rewards": [-2, -4, 48], "path": ["0", "0", "1", "2", "4"], "rt": [12025, 50, 517], "actions": ["up", "up", "left"], "actionTimes": [13342, 13886, 14920], "queries": {"click": {"state": {"target": ["7", "8", "12", "11", "4", "3", "2", "1"], "time": [3145, 5035, 6047, 6763, 7627, 8922, 9602, 10316]}, "edge": {"target": [], "time": []}}, "mouseover": {"state": {"target": ["7", "6", "8", "6", "7", "6", "8", "8", "12", "10", "11", "4", "2", "3", "2", "1"], "time": [2088, 2387, 2471, 2586, 2837, 3654, 3921, 4765, 5770, 6353, 6419, 7221, 7953, 8420, 9254, 10019]}, "edge": {"target": [], "time": []}}, "mouseout": {"state": {"target": ["0", "7", "6", "8", "6", "7", "6", "8", "8", "12", "10", "11", "4", "2", "3", "2", "1", "9"], "time": [1853, 2188, 2437, 2571, 2654, 3605, 3887, 4020, 5488, 6336, 6386, 7020, 7920, 8003, 9204, 9985, 10570, 16351]}, "edge": {"target": [], "time": []}}}, "displayed_time": "15.44", "trialTime": 16884, "trial_type": "mouselab-mdp", "trial_index": 46, "time_elapsed": 1176426, "internal_node_id": "0.0-4.0-3.0-6.0"}}, {"uniqueid": "w67030491:a95288785", "current_trial": 47, "dateTime": 1664556359220, "trialdata": {"revealed_states": [], "num_clicks_accrued": [0, 0, 0, 0, 0, 0, 0, 0, 0, 0, 0, 0, 0], "stateRewards": ["", -2, 4, -24, -48, -4, 8, -24, 48, 4, 4, -48, 24], "withholdReward": true, "trial_id": "mdp_341117665701", "block": "test2", "trialIndex": 39, "score": 55.25, "costs": -1.75, "simulationMode": [null, null, null], "rewards": [-4, 8, 48], "path": ["0", "0", "5", "6", "8"], "rt": [10168, 727, 118], "actions": ["right", "right", "down"], "actionTimes": [12222, 13462, 14085], "queries": {"click": {"state": {"target": ["11", "7", "3", "12", "4", "8", "6"], "time": [3806, 5151, 6128, 6985, 7958, 9049, 10192]}, "edge": {"target": [], "time": []}}, "mouseover": {"state": {"target": ["9", "11", "1", "7", "3", "1", "9", "12", "9", "4", "1", "5", "8", "6", "5"], "time": [2736, 2937, 4353, 4903, 5785, 6437, 6468, 6686, 7335, 7519, 8369, 8419, 8702, 9818, 10552]}, "edge": {"target": [], "time": []}}, "mouseout": {"state": {"target": ["0", "0", "9", "11", "1", "7", "3", "1", "9", "12", "9", "4", "1", "5", "8", "6"], "time": [1036, 2720, 2753, 4287, 4369, 5703, 6436, 6452, 6485, 7285, 7352, 8353, 8385, 8486, 9784, 10503]}, "edge": {"target": [], "time": []}}}, "displayed_time": "14.59", "trialTime": 15536, "trial_type": "mouselab-mdp", "trial_index": 47, "time_elapsed": 1192024, "internal_node_id": "0.0-4.0-3.0-7.0"}}, {"uniqueid": "w67030491:a95288785", "current_trial": 48, "dateTime": 1664556387413, "trialdata": {"revealed_states": [], "num_clicks_accrued": [0, 0, 0, 0, 0, 0, 0, 0, 0, 0, 0, 0, 0], "stateRewards": ["", 2, -8, 24, -24, -2, 8, -48, -48, 2, -8, -24, -48], "withholdReward": true, "trial_id": "mdp_744278669205", "block": "test2", "trialIndex": 40, "score": 20.5, "costs": -2.5, "simulationMode": [null, null, null], "rewards": [2, -8, 24], "path": ["0", "0", "1", "2", "3"], "rt": [22000, 41, 533], "actions": ["up", "up", "right"], "actionTimes": [24152, 24696, 25738], "queries": {"click": {"state": {"target": ["3", "4", "11", "12", "7", "8", "2", "1", "10", "9"], "time": [4379, 5620, 6355, 7081, 7949, 8824, 17447, 18085, 19125, 21256]}, "edge": {"target": [], "time": []}}, "mouseover": {"state": {"target": ["11", "4", "2", "3", "3", "4", "11", "10", "12", "7", "6", "8", "5", "2", "1", "1", "2", "1", "10", "9"], "time": [2975, 3194, 3277, 3676, 4093, 5059, 6059, 6675, 6791, 7608, 8259, 8291, 9859, 10125, 12542, 16907, 17091, 17840, 18807, 19705]}, "edge": {"target": [], "time": []}}, "mouseout": {"state": {"target": ["5", "0", "11", "4", "2", "3", "3", "4", "11", "10", "12", "7", "6", "8", "5", "2", "1", "1", "2", "1", "10", "9"], "time": [842, 1809, 3144, 3226, 3492, 3727, 4793, 5992, 6659, 6708, 7348, 8227, 8291, 9809, 9909, 12463, 12642, 16957, 17774, 18524, 19623, 21723]}, "edge": {"target": [], "time": []}}}, "displayed_time": "26.24", "trialTime": 28139, "trial_type": "mouselab-mdp", "trial_index": 48, "time_elapsed": 1220217, "internal_node_id": "0.0-4.0-3.0-8.0"}}, {"uniqueid": "w67030491:a95288785", "current_trial": 49, "dateTime": 1664556407565, "trialdata": {"revealed_states": [], "num_clicks_accrued": [0, 0, 0, 0, 0, 0, 0, 0, 0, 0, 0, 0, 0], "stateRewards": ["", -4, -4, 24, -48, 2, 4, -24, -48, -2, -8, -24, 24], "withholdReward": true, "trial_id": "mdp_565569130486", "block": "test2", "trialIndex": 41, "score": 19.5, "costs": -1.5, "simulationMode": [null, null, null], "rewards": [-4, -4, 24], "path": ["0", "0", "1", "2", "3"], "rt": [14792, 512, 65], "actions": ["up", "up", "right"], "actionTimes": [16788, 17816, 18388], "queries": {"click": {"state": {"target": ["11", "3", "7", "4", "12", "8"], "time": [3170, 4075, 4889, 5747, 6670, 7679]}, "edge": {"target": [], "time": []}}, "mouseover": {"state": {"target": ["11", "2", "3", "7", "4", "10", "12", "8"], "time": [2824, 3658, 3724, 4557, 5375, 6140, 6374, 7340]}, "edge": {"target": [], "time": []}}, "mouseout": {"state": {"target": ["0", "0", "11", "2", "3", "7", "4", "10", "12", "8"], "time": [1390, 2790, 3565, 3673, 4440, 5175, 6055, 6307, 6988, 15505]}, "edge": {"target": [], "time": []}}}, "displayed_time": "18.90", "trialTime": 20093, "trial_type": "mouselab-mdp", "trial_index": 49, "time_elapsed": 1240368, "internal_node_id": "0.0-4.0-3.0-9.0"}}, {"uniqueid": "w67030491:a95288785", "current_trial": 50, "dateTime": 1664556427090, "trialdata": {"revealed_states": [], "num_clicks_accrued": [0, 0, 0, 0, 0, 0, 0, 0, 0, 0, 0, 0, 0], "stateRewards": ["", -4, 4, 24, 24, -2, 8, 24, -48, 4, -8, -24, -48], "withholdReward": false, "trial_id": "mdp_651542905861", "block": "test2", "trialIndex": 42, "score": 32.5, "costs": -2.5, "simulationMode": [null, null, null], "rewards": [-2, 8, 24], "path": ["0", "0", "5", "6", "7"], "rt": [15131, 143, 353], "actions": ["right", "right", "up"], "actionTimes": [16509, 17167, 18028], "queries": {"click": {"state": {"target": ["11", "3", "7", "4", "12", "8", "2", "1", "6", "5"], "time": [2521, 3610, 4352, 5255, 6021, 6959, 10360, 13474, 14340, 15085]}, "edge": {"target": [], "time": []}}, "mouseover": {"state": {"target": ["10", "11", "4", "2", "3", "7", "2", "4", "10", "12", "8", "5", "2", "6", "5", "1", "6", "5", "1", "6", "5"], "time": [2162, 2212, 3028, 3162, 3245, 4044, 4727, 4877, 5626, 5660, 6660, 9726, 10060, 11176, 11225, 11410, 11976, 12876, 13193, 13976, 14728]}, "edge": {"target": [], "time": []}}, "mouseout": {"state": {"target": ["0", "10", "11", "4", "2", "3", "7", "2", "4", "10", "12", "8", "5", "2", "6", "5", "1", "6", "5", "1", "6", "5"], "time": [1978, 2178, 2962, 3128, 3212, 3962, 4644, 4810, 5576, 5643, 6360, 9709, 9776, 10760, 11193, 11244, 11860, 12810, 12909, 13858, 14676, 15393]}, "edge": {"target": [], "time": []}}}, "displayed_time": "18.54", "trialTime": 19477, "trial_type": "mouselab-mdp", "trial_index": 50, "time_elapsed": 1259893, "internal_node_id": "0.0-4.0-3.0-10.0"}}, {"uniqueid": "w67030491:a95288785", "current_trial": 51, "dateTime": 1664556443098, "trialdata": {"revealed_states": [], "num_clicks_accrued": [0, 0, 0, 0, 0, 0, 0, 0, 0, 0, 0, 0, 0], "stateRewards": ["", 2, -8, 48, -24, 2, 8, 24, -24, 4, -4, -48, -48], "withholdReward": true, "trial_id": "mdp_130946197263", "block": "test2", "trialIndex": 43, "score": 45.25, "costs": -1.75, "simulationMode": [null, null, null], "rewards": [2, -8, 48], "path": ["0", "0", "1", "2", "3"], "rt": [11377, 58, 29], "actions": ["up", "up", "right"], "actionTimes": [12946, 13508, 14063], "queries": {"click": {"state": {"target": ["4", "3", "2", "11", "12", "7", "8"], "time": [2985, 3907, 5055, 6228, 7005, 7984, 8735]}, "edge": {"target": [], "time": []}}, "mouseover": {"state": {"target": ["1", "2", "4", "2", "3", "2", "1", "11", "10", "12", "5", "7", "7", "6", "8", "1"], "time": [2401, 2468, 2667, 3467, 3568, 4701, 5417, 5917, 6566, 6701, 7366, 7416, 7666, 8268, 8369, 10332]}, "edge": {"target": [], "time": []}}, "mouseout": {"state": {"target": ["0", "1", "2", "4", "2", "3", "2", "1", "11", "10", "12", "5", "7", "7", "6", "8", "1", "1", "0"], "time": [2368, 2435, 2568, 3434, 3517, 4266, 5384, 5801, 6549, 6616, 7316, 7382, 7482, 8249, 8316, 9150, 11578, 15349, 15433]}, "edge": {"target": [], "time": []}}}, "displayed_time": "14.57", "trialTime": 15946, "trial_type": "mouselab-mdp", "trial_index": 51, "time_elapsed": 1275902, "internal_node_id": "0.0-4.0-3.0-11.0"}}, {"uniqueid": "w67030491:a95288785", "current_trial": 52, "dateTime": 1664556455920, "trialdata": {"revealed_states": [], "num_clicks_accrued": [0, 0, 0, 0, 0, 0, 0, 0, 0, 0, 0, 0, 0], "stateRewards": ["", -2, 4, -24, -24, -2, 4, 48, 24, -4, -8, 24, -48], "withholdReward": true, "trial_id": "mdp_191839460481", "block": "test2", "trialIndex": 44, "score": 53, "costs": -2, "simulationMode": [null, null, null], "rewards": [-2, 4, 48], "path": ["0", "0", "5", "6", "7"], "rt": [8090, 73, 255], "actions": ["right", "right", "up"], "actionTimes": [9732, 10319, 11085], "queries": {"click": {"state": {"target": ["11", "12", "4", "3", "7", "8", "6", "5"], "time": [2863, 3686, 4507, 5299, 6049, 7035, 8103, 8980]}, "edge": {"target": [], "time": []}}, "mouseover": {"state": {"target": ["9", "11", "10", "12", "4", "2", "3", "7", "6", "8", "6", "5"], "time": [2345, 2429, 3279, 3363, 4096, 4845, 4978, 5679, 6379, 6429, 7461, 8428]}, "edge": {"target": [], "time": []}}, "mouseout": {"state": {"target": ["0", "0", "9", "11", "10", "12", "4", "2", "3", "7", "6", "8", "6", "5"], "time": [863, 2312, 2379, 3263, 3329, 3945, 4829, 4895, 5629, 6363, 6412, 7445, 8396, 9265]}, "edge": {"target": [], "time": []}}}, "displayed_time": "11.58", "trialTime": 12765, "trial_type": "mouselab-mdp", "trial_index": 52, "time_elapsed": 1288723, "internal_node_id": "0.0-4.0-3.0-12.0"}}, {"uniqueid": "w67030491:a95288785", "current_trial": 53, "dateTime": 1664556467398, "trialdata": {"revealed_states": [], "num_clicks_accrued": [0, 0, 0, 0, 0, 0, 0, 0, 0, 0, 0, 0, 0], "stateRewards": ["", 2, -4, 48, -48, 2, 4, -24, 24, -4, -8, 24, -48], "withholdReward": false, "trial_id": "mdp_238810765895", "block": "test2", "trialIndex": 45, "score": 49.5, "costs": -1.5, "simulationMode": [null, null, null], "rewards": [2, -4, 48], "path": ["0", "0", "1", "2", "3"], "rt": [7703, 66, 56], "actions": ["up", "up", "right"], "actionTimes": [8885, 9459, 10033], "queries": {"click": {"state": {"target": ["11", "12", "4", "3", "2", "1"], "time": [2303, 3188, 4116, 5079, 6329, 7683]}, "edge": {"target": [], "time": []}}, "mouseover": {"state": {"target": ["9", "11", "10", "12", "4", "4", "2", "3", "7", "2", "1", "1"], "time": [1861, 1944, 2677, 2778, 3611, 3813, 4493, 4526, 5645, 5993, 6710, 7343]}, "edge": {"target": [], "time": []}}, "mouseout": {"state": {"target": ["0", "9", "11", "10", "12", "4", "4", "2", "3", "7", "2", "1", "1"], "time": [1845, 1877, 2661, 2728, 3512, 3694, 4477, 4509, 5560, 5844, 6662, 7077, 8127]}, "edge": {"target": [], "time": []}}}, "displayed_time": "10.53", "trialTime": 11427, "trial_type": "mouselab-mdp", "trial_index": 53, "time_elapsed": 1300202, "internal_node_id": "0.0-4.0-3.0-13.0"}}, {"uniqueid": "w67030491:a95288785", "current_trial": 54, "dateTime": 1664556484908, "trialdata": {"revealed_states": [], "num_clicks_accrued": [0, 0, 0, 0, 0, 0, 0, 0, 0, 0, 0, 0, 0], "stateRewards": ["", -2, -4, -48, 48, -4, 4, -48, 24, -4, -8, 24, 48], "withholdReward": true, "trial_id": "mdp_264482284450", "block": "test2", "trialIndex": 46, "score": 44.5, "costs": -2.5, "simulationMode": [null, null, null], "rewards": [-2, -4, 48], "path": ["0", "0", "1", "2", "4"], "rt": [12852, 81, 488], "actions": ["up", "up", "left"], "actionTimes": [14121, 14714, 15706], "queries": {"click": {"state": {"target": ["11", "3", "7", "4", "2", "1", "12", "10", "9", "8"], "time": [2240, 3153, 3883, 4661, 5965, 6701, 7550, 8625, 9334, 10353]}, "edge": {"target": [], "time": []}}, "mouseover": {"state": {"target": ["9", "11", "2", "3", "7", "4", "2", "1", "12", "10", "9", "0", "8"], "time": [1736, 1953, 2720, 2752, 3569, 4304, 5685, 6320, 7270, 8252, 9036, 9834, 9951]}, "edge": {"target": [], "time": []}}, "mouseout": {"state": {"target": ["0", "0", "9", "11", "2", "3", "7", "4", "2", "1", "12", "10", "9", "0", "8"], "time": [736, 1720, 1786, 2653, 2735, 3470, 4155, 5003, 6287, 6919, 7853, 8952, 9818, 9851, 11037]}, "edge": {"target": [], "time": []}}}, "displayed_time": "16.20", "trialTime": 17449, "trial_type": "mouselab-mdp", "trial_index": 54, "time_elapsed": 1317712, "internal_node_id": "0.0-4.0-3.0-14.0"}}, {"uniqueid": "w67030491:a95288785", "current_trial": 55, "dateTime": 1664556501634, "trialdata": {"revealed_states": [], "num_clicks_accrued": [0, 0, 0, 0, 0, 0, 0, 0, 0, 0, 0, 0, 0], "stateRewards": ["", -2, -8, 48, -24, 2, -4, -48, -24, -2, -4, -48, 48], "withholdReward": true, "trial_id": "mdp_143798438087", "block": "test2", "trialIndex": 47, "score": 45.5, "costs": -1.5, "simulationMode": [null, null, null], "rewards": [-2, -4, 48], "path": ["0", "0", "9", "10", "12"], "rt": [12335, 45, 270], "actions": ["left", "left", "down"], "actionTimes": [13811, 14365, 15141], "queries": {"click": {"state": {"target": ["3", "2", "7", "8", "12", "10"], "time": [2464, 4255, 7299, 8229, 9029, 10477]}, "edge": {"target": [], "time": []}}, "mouseover": {"state": {"target": ["3", "2", "1", "7", "7", "6", "8", "12", "10", "11", "10", "10", "9"], "time": [2139, 3950, 4656, 6803, 6987, 7736, 7919, 8687, 9303, 9504, 9654, 10119, 11087]}, "edge": {"target": [], "time": []}}, "mouseout": {"state": {"target": ["0", "3", "2", "1", "7", "7", "6", "8", "12", "10", "11", "10", "10", "9"], "time": [1988, 2822, 4605, 6738, 6819, 7698, 7769, 8537, 9270, 9335, 9586, 9686, 10970, 16203]}, "edge": {"target": [], "time": []}}}, "displayed_time": "15.64", "trialTime": 16663, "trial_type": "mouselab-mdp", "trial_index": 55, "time_elapsed": 1334438, "internal_node_id": "0.0-4.0-3.0-15.0"}}, {"uniqueid": "w67030491:a95288785", "current_trial": 56, "dateTime": 1664556520453, "trialdata": {"revealed_states": [], "num_clicks_accrued": [0, 0, 0, 0, 0, 0, 0, 0, 0, 0, 0, 0, 0], "stateRewards": ["", -4, -8, -24, -48, -2, -8, 24, -48, -4, -8, 24, -48], "withholdReward": true, "trial_id": "mdp_621812384092", "block": "test2", "trialIndex": 48, "score": 16.5, "costs": -2.5, "simulationMode": [null, null, null], "rewards": [-2, -8, 24], "path": ["0", "0", "5", "6", "7"], "rt": [13456, 30, 222], "actions": ["right", "right", "up"], "actionTimes": [14803, 15340, 16064], "queries": {"click": {"state": {"target": ["4", "11", "3", "7", "8", "12", "10", "6", "5", "9"], "time": [2429, 3192, 4217, 5875, 6915, 7843, 11326, 12211, 13032, 13718]}, "edge": {"target": [], "time": []}}, "mouseover": {"state": {"target": ["1", "4", "11", "3", "7", "6", "8", "12", "10", "6", "5", "0", "9"], "time": [1979, 2112, 2911, 3862, 5548, 6360, 6444, 7310, 10842, 11843, 12692, 13342, 13391]}, "edge": {"target": [], "time": []}}, "mouseout": {"state": {"target": ["0", "1", "4", "11", "3", "7", "6", "8", "12", "10", "6", "5", "0", "9"], "time": [1028, 2011, 2795, 3538, 4510, 6344, 6394, 7177, 10826, 11643, 12626, 13325, 13358, 14026]}, "edge": {"target": [], "time": []}}}, "displayed_time": "16.57", "trialTime": 18760, "trial_type": "mouselab-mdp", "trial_index": 56, "time_elapsed": 1353257, "internal_node_id": "0.0-4.0-3.0-16.0"}}, {"uniqueid": "w67030491:a95288785", "current_trial": 57, "dateTime": 1664556531107, "trialdata": {"revealed_states": [], "num_clicks_accrued": [0, 0, 0, 0, 0, 0, 0, 0, 0, 0, 0, 0, 0], "stateRewards": ["", -2, -4, -24, -24, 4, 8, 24, 24, -2, 8, 48, 48], "withholdReward": false, "trial_id": "mdp_620787912291", "block": "test2", "trialIndex": 49, "score": 57.5, "costs": -1.5, "simulationMode": [null, null, null], "rewards": [-2, 8, 48], "path": ["0", "0", "9", "10", "12"], "rt": [6250, 56, 87], "actions": ["left", "left", "down"], "actionTimes": [7447, 7998, 8594], "queries": {"click": {"state": {"target": ["2", "3", "7", "12", "10", "9"], "time": [2208, 3157, 3822, 4778, 5939, 6838]}, "edge": {"target": [], "time": []}}, "mouseover": {"state": {"target": ["1", "2", "3", "7", "0", "12", "10", "11", "10", "9"], "time": [1741, 1824, 2824, 3574, 4240, 4522, 5107, 5223, 5556, 6291]}, "edge": {"target": [], "time": []}}, "mouseout": {"state": {"target": ["0", "1", "2", "3", "7", "0", "12", "10", "11", "10"], "time": [1670, 1790, 2623, 3495, 4173, 4256, 5090, 5173, 5524, 6257]}, "edge": {"target": [], "time": []}}}, "displayed_time": "9.20", "trialTime": 10597, "trial_type": "mouselab-mdp", "trial_index": 57, "time_elapsed": 1363911, "internal_node_id": "0.0-4.0-3.0-17.0"}}, {"uniqueid": "w67030491:a95288785", "current_trial": 58, "dateTime": 1664556547405, "trialdata": {"revealed_states": [], "num_clicks_accrued": [0, 0, 0, 0, 0, 0, 0, 0, 0, 0, 0, 0, 0], "stateRewards": ["", 4, 4, -48, -48, 4, 4, -24, -24, -4, 8, -48, 24], "withholdReward": false, "trial_id": "mdp_669785455541", "block": "test2", "trialIndex": 50, "score": 31.5, "costs": -1.5, "simulationMode": [null, null, null], "rewards": [-4, 8, 24], "path": ["0", "0", "9", "10", "12"], "rt": [9801, 206, 163], "actions": ["left", "left", "down"], "actionTimes": [10935, 11654, 12328], "queries": {"click": {"state": {"target": ["3", "12", "11", "4", "7", "8"], "time": [3383, 4417, 5364, 6085, 7105, 7871]}, "edge": {"target": [], "time": []}}, "mouseover": {"state": {"target": ["3", "3", "9", "12", "10", "11", "4", "2", "7", "6", "8"], "time": [2334, 2951, 3832, 4083, 4766, 5015, 5734, 6431, 6783, 7382, 7433]}, "edge": {"target": [], "time": []}}, "mouseout": {"state": {"target": ["9", "0", "3", "3", "9", "12", "10", "11", "4", "2", "7", "6", "8"], "time": [633, 750, 2417, 3784, 3848, 4732, 4833, 5650, 6416, 6448, 7381, 7415, 8448]}, "edge": {"target": [], "time": []}}}, "displayed_time": "12.85", "trialTime": 16239, "trial_type": "mouselab-mdp", "trial_index": 58, "time_elapsed": 1380209, "internal_node_id": "0.0-4.0-3.0-18.0"}}, {"uniqueid": "w67030491:a95288785", "current_trial": 59, "dateTime": 1664556567309, "trialdata": {"revealed_states": [], "num_clicks_accrued": [0, 0, 0, 0, 0, 0, 0, 0, 0, 0, 0, 0, 0], "stateRewards": ["", 4, 8, -48, 24, -2, 8, -48, -48, -4, 4, 48, -48], "withholdReward": false, "trial_id": "mdp_693807815190", "block": "test2", "trialIndex": 51, "score": 51.5, "costs": -1.5, "simulationMode": [null, null, null], "rewards": [-4, 4, 48], "path": ["0", "0", "9", "10", "11"], "rt": [12664, 114, 266], "actions": ["left", "left", "up"], "actionTimes": [15954, 16587, 17371], "queries": {"click": {"state": {"target": ["4", "3", "7", "8", "11", "10"], "time": [5704, 6669, 7369, 8105, 9211, 11725]}, "edge": {"target": [], "time": []}}, "mouseover": {"state": {"target": ["1", "4", "2", "3", "7", "6", "8", "0", "9", "11", "10", "12", "10", "12", "10", "9"], "time": [5173, 5290, 6140, 6273, 7123, 7689, 7722, 8574, 8590, 8857, 9555, 9605, 9955, 10772, 11322, 12255]}, "edge": {"target": [], "time": []}}, "mouseout": {"state": {"target": ["0", "1", "4", "2", "3", "7", "6", "8", "0", "9", "11", "10", "12", "10", "12", "10", "9"], "time": [5140, 5190, 6109, 6207, 7007, 7673, 7706, 8539, 8589, 8606, 9540, 9589, 9940, 10524, 11256, 12123, 15355]}, "edge": {"target": [], "time": []}}}, "displayed_time": "17.89", "trialTime": 19854, "trial_type": "mouselab-mdp", "trial_index": 59, "time_elapsed": 1400113, "internal_node_id": "0.0-4.0-3.0-19.0"}}, {"uniqueid": "w67030491:a95288785", "current_trial": 60, "dateTime": 1664556580367, "trialdata": {"revealed_states": [], "num_clicks_accrued": [0, 0, 0, 0, 0, 0, 0, 0, 0, 0, 0, 0, 0], "stateRewards": ["", 4, 4, 48, -48, 4, 4, -48, 24, 2, 8, 24, -48], "withholdReward": true, "trial_id": "mdp_291674656283", "block": "test2", "trialIndex": 52, "score": 60.5, "costs": -0.5, "simulationMode": [null, null, null], "rewards": [4, 4, 48], "path": ["0", "0", "1", "2", "3"], "rt": [3793, 69, 48], "actions": ["up", "up", "right"], "actionTimes": [6035, 6606, 7167], "queries": {"click": {"state": {"target": ["3", "2"], "time": [3254, 4454]}, "edge": {"target": [], "time": []}}, "mouseover": {"state": {"target": ["3", "2", "1", "1"], "time": [2835, 4103, 5070, 5370]}, "edge": {"target": [], "time": []}}, "mouseout": {"state": {"target": ["0", "3", "2", "1", "1"], "time": [2714, 3619, 4869, 5085, 5502]}, "edge": {"target": [], "time": []}}}, "displayed_time": "11.24", "trialTime": 12996, "trial_type": "mouselab-mdp", "trial_index": 60, "time_elapsed": 1413171, "internal_node_id": "0.0-4.0-3.0-20.0"}}, {"uniqueid": "w67030491:a95288785", "current_trial": 61, "dateTime": 1664556592340, "trialdata": {"revealed_states": [], "num_clicks_accrued": [0, 0, 0, 0, 0, 0, 0, 0, 0, 0, 0, 0, 0], "stateRewards": ["", -4, 8, 24, 24, -2, 8, -48, 48, 4, -8, 48, -48], "withholdReward": true, "trial_id": "mdp_295249220524", "block": "test2", "trialIndex": 53, "score": 57.75, "costs": -1.25, "simulationMode": [null, null, null], "rewards": [-2, 8, 48], "path": ["0", "0", "5", "6", "8"], "rt": [6827, 118, 230], "actions": ["right", "right", "down"], "actionTimes": [8215, 8883, 9613], "queries": {"click": {"state": {"target": ["4", "3", "7", "8", "6"], "time": [2741, 3675, 4371, 5211, 6360]}, "edge": {"target": [], "time": []}}, "mouseover": {"state": {"target": ["1", "4", "2", "3", "7", "6", "8", "0", "9", "0", "5", "6", "5"], "time": [2151, 2386, 3217, 3334, 4086, 4749, 4850, 5650, 5700, 5832, 5850, 5900, 6767]}, "edge": {"target": [], "time": []}}, "mouseout": {"state": {"target": ["1", "4", "2", "3", "7", "6", "8", "0", "9", "0", "5", "6", "5"], "time": [2167, 3200, 3300, 3985, 4733, 4800, 5568, 5666, 5816, 5849, 5866, 6701, 11432]}, "edge": {"target": [], "time": []}}}, "displayed_time": "10.12", "trialTime": 11918, "trial_type": "mouselab-mdp", "trial_index": 61, "time_elapsed": 1425144, "internal_node_id": "0.0-4.0-3.0-21.0"}}, {"uniqueid": "w67030491:a95288785", "current_trial": 62, "dateTime": 1664556605056, "trialdata": {"revealed_states": [], "num_clicks_accrued": [0, 0, 0, 0, 0, 0, 0, 0, 0, 0, 0, 0, 0], "stateRewards": ["", -2, -8, 24, -24, 4, -8, 48, 48, -4, -8, -24, -48], "withholdReward": true, "trial_id": "mdp_286767261523", "block": "test2", "trialIndex": 54, "score": 47, "costs": -2, "simulationMode": [null, null, null], "rewards": [4, -8, 48], "path": ["0", "0", "5", "6", "7"], "rt": [7827, 689, 245], "actions": ["right", "right", "up"], "actionTimes": [9323, 10523, 11277], "queries": {"click": {"state": {"target": ["4", "11", "12", "3", "7", "6", "5", "8"], "time": [2526, 3334, 4154, 4991, 5759, 7079, 7811, 8521]}, "edge": {"target": [], "time": []}}, "mouseover": {"state": {"target": ["1", "4", "11", "10", "12", "9", "1", "3", "7", "6", "8", "6", "5", "8"], "time": [2066, 2201, 3050, 3717, 3783, 4466, 4516, 4583, 5500, 6133, 6232, 6533, 7500, 8119]}, "edge": {"target": [], "time": []}}, "mouseout": {"state": {"target": ["0", "1", "4", "11", "10", "12", "9", "1", "3", "7", "6", "8", "6", "5", "8"], "time": [2034, 2100, 2917, 3700, 3749, 4450, 4499, 4550, 5349, 6099, 6184, 6499, 7466, 8084, 8898]}, "edge": {"target": [], "time": []}}}, "displayed_time": "11.77", "trialTime": 12653, "trial_type": "mouselab-mdp", "trial_index": 62, "time_elapsed": 1437860, "internal_node_id": "0.0-4.0-3.0-22.0"}}, {"uniqueid": "w67030491:a95288785", "current_trial": 63, "dateTime": 1664556618048, "trialdata": {"revealed_states": [], "num_clicks_accrued": [0, 0, 0, 0, 0, 0, 0, 0, 0, 0, 0, 0, 0], "stateRewards": ["", 2, 4, 48, -24, 2, -8, -24, -24, 2, -8, -24, -48], "withholdReward": false, "trial_id": "mdp_274832552938", "block": "test2", "trialIndex": 55, "score": 57.5, "costs": -1.5, "simulationMode": [null, null, null], "rewards": [2, 4, 48], "path": ["0", "0", "1", "2", "3"], "rt": [9133, 185, 73], "actions": ["up", "up", "right"], "actionTimes": [10300, 10984, 11555], "queries": {"click": {"state": {"target": ["11", "12", "4", "3", "2", "1"], "time": [2220, 3049, 3679, 4586, 6145, 9414]}, "edge": {"target": [], "time": []}}, "mouseover": {"state": {"target": ["11", "10", "12", "10", "4", "2", "3", "7", "2", "1"], "time": [1866, 2582, 2782, 3300, 3468, 4182, 4249, 5115, 5848, 6484]}, "edge": {"target": [], "time": []}}, "mouseout": {"state": {"target": ["0", "11", "10", "12", "10", "4", "2", "3", "7", "2", "1"], "time": [1732, 2549, 2632, 3285, 3316, 4165, 4215, 4882, 5615, 6450, 9864]}, "edge": {"target": [], "time": []}}}, "displayed_time": "12.05", "trialTime": 12931, "trial_type": "mouselab-mdp", "trial_index": 63, "time_elapsed": 1450852, "internal_node_id": "0.0-4.0-3.0-23.0"}}, {"uniqueid": "w67030491:a95288785", "current_trial": 64, "dateTime": 1664556642487, "trialdata": {"revealed_states": [], "num_clicks_accrued": [0, 0, 0, 0, 0, 0, 0, 0, 0, 0, 0, 0, 0], "stateRewards": ["", -2, 8, -24, 24, -4, -8, -24, 48, -2, -8, -48, 48], "withholdReward": false, "trial_id": "mdp_238332601315", "block": "test2", "trialIndex": 56, "score": 41, "costs": -2, "simulationMode": [null, null, null], "rewards": [-2, -8, 48], "path": ["0", "0", "9", "10", "12"], "rt": [16331, 60, 49], "actions": ["left", "left", "down"], "actionTimes": [17677, 18253, 18808], "queries": {"click": {"state": {"target": ["7", "8", "6", "3", "4", "11", "12", "10"], "time": [2146, 3725, 5210, 6692, 7760, 8518, 9193, 10201]}, "edge": {"target": [], "time": []}}, "mouseover": {"state": {"target": ["7", "6", "8", "8", "5", "1", "1", "0", "5", "6", "5", "1", "2", "3", "2", "4", "4", "11", "10", "12", "10", "10"], "time": [1811, 2510, 2544, 3404, 4111, 4178, 4378, 4444, 4644, 4827, 5794, 6094, 6143, 6361, 7027, 7077, 7478, 8180, 8779, 8845, 9678, 9879]}, "edge": {"target": [], "time": []}}, "mouseout": {"state": {"target": ["0", "7", "6", "8", "8", "5", "1", "1", "0", "5", "6", "5", "1", "2", "3", "2", "4", "4", "11", "10", "12", "10", "10"], "time": [1662, 2483, 2528, 2560, 4045, 4144, 4211, 4394, 4628, 4660, 5677, 5961, 6110, 6277, 7010, 7060, 7144, 7996, 8746, 8829, 9465, 9711, 10943]}, "edge": {"target": [], "time": []}}}, "displayed_time": "19.31", "trialTime": 24367, "trial_type": "mouselab-mdp", "trial_index": 64, "time_elapsed": 1475290, "internal_node_id": "0.0-4.0-3.0-24.0"}}, {"uniqueid": "w67030491:a95288785", "current_trial": 65, "dateTime": 1664556656092, "trialdata": {"revealed_states": [], "num_clicks_accrued": [0, 0, 0, 0, 0, 0, 0, 0, 0, 0, 0, 0, 0], "stateRewards": ["", -2, -8, -24, 48, -2, -8, -48, -48, 2, -8, -48, 24], "withholdReward": true, "trial_id": "mdp_288324580942", "block": "test2", "trialIndex": 57, "score": 41.5, "costs": -1.5, "simulationMode": [null, null, null], "rewards": [-2, -8, 48], "path": ["0", "0", "1", "2", "4"], "rt": [8276, 174, 582], "actions": ["up", "up", "left"], "actionTimes": [10164, 10848, 11938], "queries": {"click": {"state": {"target": ["4", "2", "12", "11", "7", "8"], "time": [3158, 4205, 5522, 6473, 7794, 8592]}, "edge": {"target": [], "time": []}}, "mouseover": {"state": {"target": ["1", "4", "2", "1", "9", "12", "10", "11", "3", "7", "6", "8"], "time": [2474, 2624, 3858, 4640, 5007, 5240, 5990, 6056, 6857, 7473, 8172, 8256]}, "edge": {"target": [], "time": []}}, "mouseout": {"state": {"target": ["0", "0", "1", "4", "2", "1", "9", "12", "10", "11", "3", "7", "6", "8"], "time": [1157, 2433, 2490, 3524, 4574, 4957, 5040, 5974, 6024, 6779, 7356, 8157, 8189, 9024]}, "edge": {"target": [], "time": []}}}, "displayed_time": "12.46", "trialTime": 13540, "trial_type": "mouselab-mdp", "trial_index": 65, "time_elapsed": 1488895, "internal_node_id": "0.0-4.0-3.0-25.0"}}, {"uniqueid": "w67030491:a95288785", "current_trial": 66, "dateTime": 1664556668875, "trialdata": {"revealed_states": [], "num_clicks_accrued": [0, 0, 0, 0, 0, 0, 0, 0, 0, 0, 0, 0, 0], "stateRewards": ["", -4, 4, -48, -48, -2, -8, -48, -24, 4, 8, -24, 24], "withholdReward": true, "trial_id": "mdp_449260894259", "block": "test2", "trialIndex": 58, "score": 39.5, "costs": -1.5, "simulationMode": [null, null, null], "rewards": [4, 8, 24], "path": ["0", "0", "9", "10", "12"], "rt": [8469, 44, 124], "actions": ["left", "left", "down"], "actionTimes": [9966, 10513, 11144], "queries": {"click": {"state": {"target": ["4", "3", "7", "8", "12", "11"], "time": [2498, 4486, 5151, 5873, 6665, 7397]}, "edge": {"target": [], "time": []}}, "mouseover": {"state": {"target": ["4", "11", "11", "3", "7", "6", "8", "12", "10", "11", "9"], "time": [2170, 2987, 3486, 3721, 4805, 5419, 5469, 6353, 6936, 7020, 9353]}, "edge": {"target": [], "time": []}}, "mouseout": {"state": {"target": ["0", "4", "11", "11", "3", "7", "6", "8", "12", "10", "11", "9"], "time": [1937, 2837, 3088, 3492, 4770, 5403, 5453, 6153, 6919, 6969, 9319, 9385]}, "edge": {"target": [], "time": []}}}, "displayed_time": "11.65", "trialTime": 12723, "trial_type": "mouselab-mdp", "trial_index": 66, "time_elapsed": 1501679, "internal_node_id": "0.0-4.0-3.0-26.0"}}, {"uniqueid": "w67030491:a95288785", "current_trial": 67, "dateTime": 1664556682068, "trialdata": {"revealed_states": [], "num_clicks_accrued": [0, 0, 0, 0, 0, 0, 0, 0, 0, 0, 0, 0, 0], "stateRewards": ["", -4, -8, 48, 48, -4, 4, 48, -24, 4, 8, -24, -48], "withholdReward": true, "trial_id": "mdp_142906093415", "block": "test2", "trialIndex": 59, "score": 51.5, "costs": -1.5, "simulationMode": [null, null, null], "rewards": [-4, 4, 48], "path": ["0", "0", "5", "6", "7"], "rt": [8813, 38, 519], "actions": ["right", "right", "up"], "actionTimes": [9874, 10427, 11474], "queries": {"click": {"state": {"target": ["4", "11", "12", "7", "6", "2"], "time": [2069, 3144, 3903, 4886, 6438, 7329]}, "edge": {"target": [], "time": []}}, "mouseover": {"state": {"target": ["1", "4", "11", "10", "12", "0", "5", "7", "6", "2", "1", "5"], "time": [1606, 1756, 2789, 3472, 3538, 4305, 4372, 4588, 5505, 7039, 8006, 9205]}, "edge": {"target": [], "time": []}}, "mouseout": {"state": {"target": ["0", "1", "4", "11", "10", "12", "0", "5", "7", "6", "2", "1"], "time": [1540, 1656, 2473, 3456, 3506, 4261, 4339, 4405, 5422, 6773, 8005, 8739]}, "edge": {"target": [], "time": []}}}, "displayed_time": "11.99", "trialTime": 13120, "trial_type": "mouselab-mdp", "trial_index": 67, "time_elapsed": 1514872, "internal_node_id": "0.0-4.0-3.0-27.0"}}, {"uniqueid": "w67030491:a95288785", "current_trial": 68, "dateTime": 1664556697343, "trialdata": {"revealed_states": [], "num_clicks_accrued": [0, 0, 0, 0, 0, 0, 0, 0, 0, 0, 0, 0, 0], "stateRewards": ["", -4, -4, -24, -24, -2, 4, 48, -24, -2, -4, -24, 48], "withholdReward": false, "trial_id": "mdp_855903341564", "block": "test2", "trialIndex": 60, "score": 53.25, "costs": -1.75, "simulationMode": [null, null, null], "rewards": [-2, 4, 48], "path": ["0", "0", "5", "6", "7"], "rt": [10381, 75, 115], "actions": ["right", "right", "up"], "actionTimes": [12464, 13035, 13643], "queries": {"click": {"state": {"target": ["4", "3", "7", "6", "11", "12", "10"], "time": [2911, 3909, 4626, 7899, 9511, 10290, 11394]}, "edge": {"target": [], "time": []}}, "mouseover": {"state": {"target": ["1", "4", "2", "3", "7", "6", "8", "6", "5", "9", "11", "10", "12", "10"], "time": [2480, 2544, 3494, 3594, 4278, 4961, 5062, 5444, 8660, 8745, 8843, 9894, 9977, 10977]}, "edge": {"target": [], "time": []}}, "mouseout": {"state": {"target": ["5", "0", "1", "4", "2", "3", "7", "6", "8", "6", "5", "9", "11", "10", "12", "10"], "time": [979, 1411, 2494, 3295, 3528, 4227, 4945, 5027, 5378, 8628, 8677, 8760, 9893, 9926, 10662, 11893]}, "edge": {"target": [], "time": []}}}, "displayed_time": "14.16", "trialTime": 15220, "trial_type": "mouselab-mdp", "trial_index": 68, "time_elapsed": 1530147, "internal_node_id": "0.0-4.0-3.0-28.0"}}, {"uniqueid": "w67030491:a95288785", "current_trial": 69, "dateTime": 1664556708897, "trialdata": {"revealed_states": [], "num_clicks_accrued": [0, 0, 0, 0, 0, 0, 0, 0, 0, 0, 0, 0, 0], "stateRewards": ["", -4, -8, -48, 24, -4, -4, -24, -48, 2, -8, -24, -48], "withholdReward": true, "trial_id": "mdp_628181832088", "block": "test2", "trialIndex": 61, "score": 15.5, "costs": -1.5, "simulationMode": [null, null, null], "rewards": [-4, -8, 24], "path": ["0", "0", "1", "2", "4"], "rt": [6667, 169, 179], "actions": ["up", "up", "left"], "actionTimes": [8244, 8903, 9579], "queries": {"click": {"state": {"target": ["4", "3", "7", "8", "11", "12"], "time": [2667, 3567, 4323, 5128, 6087, 6854]}, "edge": {"target": [], "time": []}}, "mouseover": {"state": {"target": ["4", "2", "3", "7", "6", "8", "0", "11", "10", "12"], "time": [2283, 3117, 3183, 4016, 4648, 4832, 5550, 5716, 6415, 6516]}, "edge": {"target": [], "time": []}}, "mouseout": {"state": {"target": ["0", "4", "2", "3", "7", "6", "8", "0", "11", "10", "12"], "time": [2183, 3083, 3150, 3932, 4632, 4699, 5500, 5566, 6400, 6483, 7282]}, "edge": {"target": [], "time": []}}}, "displayed_time": "10.08", "trialTime": 11499, "trial_type": "mouselab-mdp", "trial_index": 69, "time_elapsed": 1541701, "internal_node_id": "0.0-4.0-3.0-29.0"}}, {"uniqueid": "w67030491:a95288785", "current_trial": 70, "dateTime": 1664556719927, "trialdata": {"rt": 11022, "stimulus": "<h1> End of block! </h1>\n\nYou have reached the end of the block 2/4. If you need a short break, feel free to take one now before moving on.\n\n<br><br>\nIn the next block, you will complete another 30 rounds of this game.\n\n<br><br>\n<div style='text-align: center;'>Press <code>space</code> to begin.</div>\n<br><br>\n<div style='text-align: center;'>(If the experiment doesn't continue, try clicking on the text and then pressing <code>space</code>.)</div>", "response": " ", "trial_id": "mdp_ready_3", "trial_type": "html-keyboard-response", "trial_index": 70, "time_elapsed": 1552731, "internal_node_id": "0.0-4.0-4.0"}}, {"uniqueid": "w67030491:a95288785", "current_trial": 71, "dateTime": 1664556731747, "trialdata": {"revealed_states": [], "num_clicks_accrued": [0, 0, 0, 0, 0, 0, 0, 0, 0, 0, 0, 0, 0], "stateRewards": ["", -4, -4, -24, -48, -4, 8, -24, -48, 4, -8, 24, -24], "withholdReward": true, "trial_id": "mdp_924927483179", "block": "test3", "trialIndex": 62, "score": 23.5, "costs": -1.5, "simulationMode": [null, null, null], "rewards": [4, -8, 24], "path": ["0", "0", "9", "10", "11"], "rt": [6542, 102, 104], "actions": ["left", "left", "up"], "actionTimes": [8311, 8929, 9548], "queries": {"click": {"state": {"target": ["4", "12", "11", "3", "7", "8"], "time": [2829, 3661, 4471, 5356, 6122, 6949]}, "edge": {"target": [], "time": []}}, "mouseover": {"state": {"target": ["1", "4", "12", "10", "11", "1", "3", "7", "6", "8"], "time": [2328, 2510, 3310, 4044, 4160, 4893, 5044, 5728, 6512, 6610]}, "edge": {"target": [], "time": []}}, "mouseout": {"state": {"target": ["1", "4", "12", "10", "11", "1", "3", "7", "6", "8"], "time": [2361, 3159, 4028, 4095, 4794, 4927, 5678, 6511, 6560, 7527]}, "edge": {"target": [], "time": []}}}, "displayed_time": "10.77", "trialTime": 11748, "trial_type": "mouselab-mdp", "trial_index": 71, "time_elapsed": 1564550, "internal_node_id": "0.0-4.0-5.0-0.0"}}, {"uniqueid": "w67030491:a95288785", "current_trial": 72, "dateTime": 1664556743354, "trialdata": {"revealed_states": [], "num_clicks_accrued": [0, 0, 0, 0, 0, 0, 0, 0, 0, 0, 0, 0, 0], "stateRewards": ["", -2, -4, -24, -48, -2, 8, -48, 24, 4, -4, -24, -24], "withholdReward": false, "trial_id": "mdp_915304165774", "block": "test3", "trialIndex": 63, "score": 33.5, "costs": -1.5, "simulationMode": [null, null, null], "rewards": [-2, 8, 24], "path": ["0", "0", "5", "6", "8"], "rt": [7058, 72, 222], "actions": ["right", "right", "down"], "actionTimes": [8249, 8857, 9574], "queries": {"click": {"state": {"target": ["4", "3", "7", "8", "11", "12"], "time": [2194, 3109, 3903, 4923, 6007, 6800]}, "edge": {"target": [], "time": []}}, "mouseover": {"state": {"target": ["4", "2", "3", "7", "6", "8", "5", "11", "10", "12"], "time": [1869, 2619, 2701, 3619, 4268, 4369, 5469, 5702, 6368, 6435]}, "edge": {"target": [], "time": []}}, "mouseout": {"state": {"target": ["0", "4", "2", "3", "7", "6", "8", "5", "11", "10", "12"], "time": [1553, 2604, 2652, 3496, 4235, 4302, 5436, 5484, 6352, 6384, 7385]}, "edge": {"target": [], "time": []}}}, "displayed_time": "10.09", "trialTime": 11550, "trial_type": "mouselab-mdp", "trial_index": 72, "time_elapsed": 1576158, "internal_node_id": "0.0-4.0-5.0-1.0"}}, {"uniqueid": "w67030491:a95288785", "current_trial": 73, "dateTime": 1664556761959, "trialdata": {"revealed_states": [], "num_clicks_accrued": [0, 0, 0, 0, 0, 0, 0, 0, 0, 0, 0, 0, 0], "stateRewards": ["", -4, -8, -24, 24, 2, 8, 24, 48, 2, 4, 24, -48], "withholdReward": true, "trial_id": "mdp_122352383932", "block": "test3", "trialIndex": 64, "score": 61.5, "costs": -1.5, "simulationMode": [null, null, null], "rewards": [2, 8, 48], "path": ["0", "0", "5", "6", "8"], "rt": [8100, 5892, 436], "actions": ["right", "right", "down"], "actionTimes": [9348, 15789, 16735], "queries": {"click": {"state": {"target": ["4", "3", "7", "8", "12", "11"], "time": [2106, 2965, 3680, 4506, 5938, 6709]}, "edge": {"target": [], "time": []}}, "mouseover": {"state": {"target": ["4", "2", "3", "7", "6", "8", "12", "10", "11", "0", "5", "5"], "time": [1735, 2451, 2585, 3368, 4101, 4150, 5334, 6234, 6301, 7151, 7234, 7600]}, "edge": {"target": [], "time": []}}, "mouseout": {"state": {"target": ["0", "4", "2", "3", "7", "6", "8", "12", "10", "11", "0", "5", "5"], "time": [1603, 2435, 2535, 3286, 4068, 4135, 4800, 6218, 6267, 7051, 7201, 7334, 8193]}, "edge": {"target": [], "time": []}}}, "displayed_time": "17.25", "trialTime": 18540, "trial_type": "mouselab-mdp", "trial_index": 73, "time_elapsed": 1594763, "internal_node_id": "0.0-4.0-5.0-2.0"}}, {"uniqueid": "w67030491:a95288785", "current_trial": 74, "dateTime": 1664556773165, "trialdata": {"revealed_states": [], "num_clicks_accrued": [0, 0, 0, 0, 0, 0, 0, 0, 0, 0, 0, 0, 0], "stateRewards": ["", 2, -4, -48, 24, 4, 4, 48, -48, -2, -4, -24, -48], "withholdReward": true, "trial_id": "mdp_858916930936", "block": "test3", "trialIndex": 65, "score": 59.75, "costs": -1.25, "simulationMode": [null, null, null], "rewards": [4, 4, 48], "path": ["0", "0", "5", "6", "7"], "rt": [6942, 151, 107], "actions": ["right", "right", "up"], "actionTimes": [8186, 8836, 9444], "queries": {"click": {"state": {"target": ["4", "3", "7", "11", "12"], "time": [2185, 2987, 3708, 6106, 6914]}, "edge": {"target": [], "time": []}}, "mouseover": {"state": {"target": ["4", "2", "3", "7", "6", "8", "0", "9", "11", "10", "12"], "time": [1854, 2554, 2620, 3336, 4102, 4220, 5453, 5503, 5721, 6402, 6606]}, "edge": {"target": [], "time": []}}, "mouseout": {"state": {"target": ["0", "4", "2", "3", "7", "6", "8", "0", "9", "11", "10", "12"], "time": [1605, 2537, 2586, 3304, 4087, 4186, 5369, 5468, 5603, 6389, 6455, 7352]}, "edge": {"target": [], "time": []}}}, "displayed_time": "10.25", "trialTime": 11134, "trial_type": "mouselab-mdp", "trial_index": 74, "time_elapsed": 1605968, "internal_node_id": "0.0-4.0-5.0-3.0"}}, {"uniqueid": "w67030491:a95288785", "current_trial": 75, "dateTime": 1664556784092, "trialdata": {"revealed_states": [], "num_clicks_accrued": [0, 0, 0, 0, 0, 0, 0, 0, 0, 0, 0, 0, 0], "stateRewards": ["", -2, -4, -24, -48, 2, -8, -24, -24, 4, -8, 48, 48], "withholdReward": true, "trial_id": "mdp_950599994674", "block": "test3", "trialIndex": 66, "score": 47.75, "costs": -1.25, "simulationMode": [null, null, null], "rewards": [4, -8, 48], "path": ["0", "0", "9", "10", "12"], "rt": [6357, 94, 110], "actions": ["left", "left", "down"], "actionTimes": [7565, 8162, 8779], "queries": {"click": {"state": {"target": ["4", "3", "7", "8", "12"], "time": [2298, 3290, 4004, 4797, 5605]}, "edge": {"target": [], "time": []}}, "mouseover": {"state": {"target": ["4", "3", "7", "6", "8", "12", "10", "11"], "time": [1968, 2920, 3701, 4384, 4484, 5317, 5983, 6050]}, "edge": {"target": [], "time": []}}, "mouseout": {"state": {"target": ["0", "4", "3", "7", "6", "8", "12", "10", "11"], "time": [1589, 2703, 3635, 4368, 4433, 5100, 5951, 6016, 6851]}, "edge": {"target": [], "time": []}}}, "displayed_time": "10.21", "trialTime": 10862, "trial_type": "mouselab-mdp", "trial_index": 75, "time_elapsed": 1616896, "internal_node_id": "0.0-4.0-5.0-4.0"}}, {"uniqueid": "w67030491:a95288785", "current_trial": 76, "dateTime": 1664556799417, "trialdata": {"revealed_states": [], "num_clicks_accrued": [0, 0, 0, 0, 0, 0, 0, 0, 0, 0, 0, 0, 0], "stateRewards": ["", -2, -8, -24, 24, -2, -8, -48, 24, -2, -8, 24, 24], "withholdReward": true, "trial_id": "mdp_336617436097", "block": "test3", "trialIndex": 67, "score": 17.5, "costs": -1.5, "simulationMode": [null, null, null], "rewards": [-2, -8, 24], "path": ["0", "0", "9", "10", "11"], "rt": [9608, 128, 137], "actions": ["left", "left", "up"], "actionTimes": [11108, 11748, 12389], "queries": {"click": {"state": {"target": ["4", "11", "12", "3", "7", "8"], "time": [2445, 3191, 3921, 4962, 5664, 6790]}, "edge": {"target": [], "time": []}}, "mouseover": {"state": {"target": ["4", "11", "10", "12", "1", "3", "7", "6", "8", "8"], "time": [2153, 2906, 3456, 3504, 4370, 4603, 5337, 5969, 6001, 6486]}, "edge": {"target": [], "time": []}}, "mouseout": {"state": {"target": ["10", "9", "0", "4", "11", "10", "12", "1", "3", "7", "6", "8", "8"], "time": [803, 886, 1870, 2755, 3456, 3489, 4320, 4385, 5287, 5952, 5986, 6087, 7401]}, "edge": {"target": [], "time": []}}}, "displayed_time": "12.89", "trialTime": 15257, "trial_type": "mouselab-mdp", "trial_index": 76, "time_elapsed": 1632221, "internal_node_id": "0.0-4.0-5.0-5.0"}}, {"uniqueid": "w67030491:a95288785", "current_trial": 77, "dateTime": 1664556811316, "trialdata": {"revealed_states": [], "num_clicks_accrued": [0, 0, 0, 0, 0, 0, 0, 0, 0, 0, 0, 0, 0], "stateRewards": ["", -2, 4, -48, -48, -4, -8, 48, -48, 2, 4, 48, -48], "withholdReward": true, "trial_id": "mdp_258647270500", "block": "test3", "trialIndex": 68, "score": 57.5, "costs": -1.5, "simulationMode": [null, null, null], "rewards": [2, 4, 48], "path": ["0", "0", "9", "10", "11"], "rt": [7639, 77, 41], "actions": ["left", "left", "up"], "actionTimes": [8814, 9389, 9938], "queries": {"click": {"state": {"target": ["11", "4", "3", "7", "6", "10"], "time": [2020, 3781, 4509, 5156, 6783, 7683]}, "edge": {"target": [], "time": []}}, "mouseover": {"state": {"target": ["9", "11", "10", "12", "4", "2", "3", "7", "6", "8", "6", "5", "0", "9", "10", "9"], "time": [1580, 1662, 2429, 2646, 3313, 4112, 4196, 4848, 5528, 5662, 6046, 7095, 7145, 7212, 7412, 8028]}, "edge": {"target": [], "time": []}}, "mouseout": {"state": {"target": ["0", "9", "11", "10", "12", "4", "2", "3", "7", "6", "8", "6", "5", "0", "9", "10", "9"], "time": [1563, 1612, 2396, 2497, 3246, 4082, 4146, 4796, 5479, 5579, 5995, 7064, 7129, 7180, 7346, 8011, 8079]}, "edge": {"target": [], "time": []}}}, "displayed_time": "10.45", "trialTime": 11836, "trial_type": "mouselab-mdp", "trial_index": 77, "time_elapsed": 1644120, "internal_node_id": "0.0-4.0-5.0-6.0"}}, {"uniqueid": "w67030491:a95288785", "current_trial": 78, "dateTime": 1664556826633, "trialdata": {"revealed_states": [], "num_clicks_accrued": [0, 0, 0, 0, 0, 0, 0, 0, 0, 0, 0, 0, 0], "stateRewards": ["", 2, -8, 24, 24, 4, -4, -24, -48, 4, 8, 24, 24], "withholdReward": true, "trial_id": "mdp_249803813713", "block": "test3", "trialIndex": 69, "score": 39, "costs": -2, "simulatio