{"condition": 1, "counterbalance": 0, "assignmentId": "a41844838", "workerId": "w42334182", "hitId": "h42094391", "currenttrial": 155, "bonus": 0, "data": [{"uniqueid": "w42334182:a41844838", "current_trial": 0, "dateTime": 1664555035219, "trialdata": {"success": true, "trial_type": "fullscreen", "trial_index": 0, "time_elapsed": 21774, "internal_node_id": "0.0-0.0"}}, {"uniqueid": "w42334182:a41844838", "current_trial": 1, "dateTime": 1664555039258, "trialdata": {"view_history": [{"page_index": 0, "viewing_time": 4026}], "rt": 4027, "trial_id": "exp_instructions_no_distractor", "trial_type": "instructions", "trial_index": 1, "time_elapsed": 25815, "internal_node_id": "0.0-1.0"}}, {"uniqueid": "w42334182:a41844838", "current_trial": 2, "dateTime": 1664555043671, "trialdata": {"success": true, "trial_type": "fullscreen", "trial_index": 2, "time_elapsed": 30228, "internal_node_id": "0.0-2.0-0.0"}}, {"uniqueid": "w42334182:a41844838", "current_trial": 3, "dateTime": 1664555216151, "trialdata": {"view_history": [{"page_index": 0, "viewing_time": 70289}, {"page_index": 1, "viewing_time": 39219}, {"page_index": 2, "viewing_time": 17111}, {"page_index": 3, "viewing_time": 5654}, {"page_index": 4, "viewing_time": 40196}], "rt": 172470, "trial_id": "mouselab_instructions_1", "trial_type": "instructions", "trial_index": 3, "time_elapsed": 202708, "internal_node_id": "0.0-2.0-1.0"}}, {"uniqueid": "w42334182:a41844838", "current_trial": 4, "dateTime": 1664555268189, "trialdata": {"revealed_states": [], "num_clicks_accrued": [0, 0, 0, 0, 0, 0, 0, 0, 0, 0, 0, 0, 0], "stateRewards": ["", -10, 10, 10, -10, -10, -10, 10, 10, -10, -10, 10, -10], "withholdReward": false, "trial_id": "practice_1", "block": "test", "trialIndex": 0, "score": -11, "costs": -3, "simulationMode": [null, null, null], "rewards": [-10, -10, 10], "path": ["0", "0", "5", "6", "7"], "rt": [42024, 8, 644], "actions": ["right", "right", "up"], "actionTimes": [44994, 45495, 46649], "queries": {"click": {"state": {"target": ["5", "1", "9", "3", "7", "8", "11", "12", "10", "2", "4", "6"], "time": [5838, 8034, 9624, 10947, 12821, 14156, 16899, 18688, 20320, 21536, 24993, 26683]}, "edge": {"target": [], "time": []}}, "mouseover": {"state": {"target": ["5", "6", "5", "5", "1", "9", "9", "2", "3", "7", "6", "8", "12", "12", "11", "10", "12", "10", "2", "6", "0", "4", "6", "6", "0", "0", "0"], "time": [3402, 3849, 4603, 5250, 6800, 9167, 9318, 10451, 10683, 12167, 13579, 13884, 15450, 15876, 16704, 18054, 18350, 19850, 21200, 23067, 23366, 24716, 25933, 26300, 28116, 30336, 32335]}, "edge": {"target": [], "time": []}}, "mouseout": {"state": {"target": ["5", "6", "5", "5", "1", "9", "9", "2", "3", "7", "6", "8", "12", "12", "11", "10", "12", "10", "2", "1", "5", "6", "0", "4", "6", "6", "5", "0", "0", "0", "5", "7", "5", "6"], "time": [3667, 4594, 4617, 6758, 8870, 9184, 10392, 10484, 12139, 13558, 13634, 15147, 15597, 16110, 18044, 18151, 19590, 20906, 22907, 22967, 23033, 23083, 24440, 25891, 25950, 27817, 27983, 28267, 30366, 33624, 34217, 36105, 42217, 50008]}, "edge": {"target": [], "time": []}}}, "displayed_time": "47.15", "trialTime": 50964, "trial_type": "mouselab-mdp", "trial_index": 4, "time_elapsed": 254744, "internal_node_id": "0.0-2.0-2.0-0.0"}}, {"uniqueid": "w42334182:a41844838", "current_trial": 5, "dateTime": 1664555306472, "trialdata": {"revealed_states": [], "num_clicks_accrued": [0, 0, 0, 0, 0, 0, 0, 0, 0, 0, 0, 0, 0], "stateRewards": ["", 10, 10, 10, -10, 10, 10, 10, -10, -10, -10, -10, -10], "withholdReward": false, "trial_id": "practice_2", "block": "test", "trialIndex": 1, "score": 30.5, "costs": -1.5, "simulationMode": [null, null, null], "rewards": [10, 10, 10], "path": ["0", "0", "1", "2", "3"], "rt": [15270, 15, 2393], "actions": ["up", "up", "right"], "actionTimes": [32080, 32595, 35523], "queries": {"click": {"state": {"target": ["2", "1", "8", "12", "11", "6"], "time": [18235, 19642, 22690, 24465, 25865, 28184]}, "edge": {"target": [], "time": []}}, "mouseover": {"state": {"target": ["1", "2", "1", "3", "0", "8", "12", "12", "10", "11", "5", "6", "6", "7"], "time": [17786, 17829, 19316, 21928, 22062, 22329, 23562, 23982, 25196, 25595, 26746, 27029, 27907, 28912]}, "edge": {"target": [], "time": []}}, "mouseout": {"state": {"target": ["0", "5", "5", "0", "1", "2", "1", "2", "2", "3", "0", "8", "12", "12", "10", "11", "5", "6", "6", "7", "1", "2"], "time": [1200, 1646, 15349, 16515, 17803, 19286, 21229, 21328, 21718, 21979, 22129, 23250, 23595, 25170, 25429, 26603, 26945, 27095, 28903, 29553, 30803, 31511]}, "edge": {"target": [], "time": []}}}, "displayed_time": "36.01", "trialTime": 38096, "trial_type": "mouselab-mdp", "trial_index": 5, "time_elapsed": 293029, "internal_node_id": "0.0-2.0-2.0-1.0"}}, {"uniqueid": "w42334182:a41844838", "current_trial": 6, "dateTime": 1664555339945, "trialdata": {"view_history": [{"page_index": 0, "viewing_time": 18918}, {"page_index": 1, "viewing_time": 9486}, {"page_index": 2, "viewing_time": 5052}], "rt": 33458, "trial_id": "mouselab_instructions_2_scarce", "trial_type": "instructions", "trial_index": 6, "time_elapsed": 326502, "internal_node_id": "0.0-2.0-3.0"}}, {"uniqueid": "w42334182:a41844838", "current_trial": 7, "dateTime": 1664555378482, "trialdata": {"rt": 38457, "response": {"Q0": "$-48 to $48", "Q1": "The cost is always $0.25.", "Q2": "The better I perform the higher my bonus will be.", "Q3": "No, the structure of the web will be different each time.", "Q4": "The values of the nodes walked through from start to finish.", "Q5": "No, the score will only be displayed once at the end of the game."}, "question_order": [0, 1, 2, 3, 4, 5], "correct": {"Q0": "$-48 to $48", "Q1": "The cost is always $0.25.", "Q2": "The better I perform the higher my bonus will be.", "Q3": "No, the amount of cash at each node of the web may be different each time.", "Q4": "The values of the nodes walked through from start to finish.", "Q5": "No, the spider might forget to count the money on some rounds."}, "trial_id": "mouselab_quiz_scarce", "trial_type": "survey-multi-choice", "trial_index": 7, "time_elapsed": 365038, "internal_node_id": "0.0-2.0-4.0"}}, {"uniqueid": "w42334182:a41844838", "current_trial": 8, "dateTime": 1664555387075, "trialdata": {"success": true, "trial_type": "fullscreen", "trial_index": 8, "time_elapsed": 373631, "internal_node_id": "0.0-2.1-0.1"}}, {"uniqueid": "w42334182:a41844838", "current_trial": 9, "dateTime": 1664555462107, "trialdata": {"view_history": [{"page_index": 0, "viewing_time": 9555}, {"page_index": 1, "viewing_time": 25157}, {"page_index": 2, "viewing_time": 19792}, {"page_index": 3, "viewing_time": 5027}, {"page_index": 4, "viewing_time": 15490}], "rt": 75021, "trial_id": "mouselab_instructions_1", "trial_type": "instructions", "trial_index": 9, "time_elapsed": 448664, "internal_node_id": "0.0-2.1-1.1"}}, {"uniqueid": "w42334182:a41844838", "current_trial": 10, "dateTime": 1664555489325, "trialdata": {"revealed_states": [], "num_clicks_accrued": [0, 0, 0, 0, 0, 0, 0, 0, 0, 0, 0, 0, 0], "stateRewards": ["", -10, 10, 10, -10, -10, -10, 10, 10, -10, -10, 10, -10], "withholdReward": false, "trial_id": "practice_1", "block": "test", "trialIndex": 2, "score": 9.25, "costs": -2.75, "simulationMode": [null, null, null], "rewards": [-10, 10, 10], "path": ["0", "0", "1", "2", "3"], "rt": [19887, 406, 346], "actions": ["up", "up", "right"], "actionTimes": [22440, 23355, 24211], "queries": {"click": {"state": {"target": ["3", "8", "11", "7", "6", "4", "12", "9", "1", "10", "5"], "time": [4543, 5702, 7290, 8786, 9583, 11661, 12756, 13800, 15731, 17490, 18507]}, "edge": {"target": [], "time": []}}, "mouseover": {"state": {"target": ["1", "3", "7", "6", "8", "12", "11", "11", "1", "7", "6", "1", "2", "4", "12", "9", "1", "0", "10", "5"], "time": [3629, 4195, 5145, 5246, 5397, 6496, 6679, 6946, 8012, 8446, 9279, 10646, 11014, 11362, 12446, 13396, 15169, 16542, 17196, 18111]}, "edge": {"target": [], "time": []}}, "mouseout": {"state": {"target": ["5", "1", "3", "7", "6", "8", "12", "11", "11", "1", "7", "6", "1", "2", "4", "12", "9", "1", "0", "9", "10", "5", "0"], "time": [1777, 3879, 5084, 5228, 5329, 6134, 6529, 6696, 7966, 8046, 9185, 10454, 10996, 11280, 12169, 13235, 14320, 16336, 16789, 17046, 18018, 19511, 25786]}, "edge": {"target": [], "time": []}}}, "displayed_time": "24.71", "trialTime": 27062, "trial_type": "mouselab-mdp", "trial_index": 10, "time_elapsed": 475881, "internal_node_id": "0.0-2.1-2.1-0.1"}}, {"uniqueid": "w42334182:a41844838", "current_trial": 11, "dateTime": 1664555506794, "trialdata": {"revealed_states": [], "num_clicks_accrued": [0, 0, 0, 0, 0, 0, 0, 0, 0, 0, 0, 0, 0], "stateRewards": ["", 10, 10, 10, -10, 10, 10, 10, -10, -10, -10, -10, -10], "withholdReward": false, "trial_id": "practice_2", "block": "test", "trialIndex": 3, "score": 31, "costs": -1, "simulationMode": [null, null, null], "rewards": [10, 10, 10], "path": ["0", "0", "5", "6", "7"], "rt": [6389, 969, 654], "actions": ["right", "right", "up"], "actionTimes": [11577, 13057, 14230], "queries": {"click": {"state": {"target": ["1", "5", "6", "7"], "time": [7254, 8159, 8882, 9616]}, "edge": {"target": [], "time": []}}, "mouseover": {"state": {"target": ["1", "2", "1", "0", "5", "6", "7"], "time": [6624, 6682, 6833, 7649, 7900, 8550, 9250]}, "edge": {"target": [], "time": []}}, "mouseout": {"state": {"target": ["0", "1", "2", "1", "0", "5", "6", "7"], "time": [4549, 6651, 6749, 7591, 7685, 8488, 9204, 16990]}, "edge": {"target": [], "time": []}}}, "displayed_time": "14.75", "trialTime": 17335, "trial_type": "mouselab-mdp", "trial_index": 11, "time_elapsed": 493351, "internal_node_id": "0.0-2.1-2.1-1.1"}}, {"uniqueid": "w42334182:a41844838", "current_trial": 12, "dateTime": 1664555535616, "trialdata": {"view_history": [{"page_index": 0, "viewing_time": 12750}, {"page_index": 1, "viewing_time": 12704}, {"page_index": 2, "viewing_time": 3357}], "rt": 28812, "trial_id": "mouselab_instructions_2_scarce", "trial_type": "instructions", "trial_index": 12, "time_elapsed": 522172, "internal_node_id": "0.0-2.1-3.1"}}, {"uniqueid": "w42334182:a41844838", "current_trial": 13, "dateTime": 1664555674991, "trialdata": {"rt": 139356, "response": {"Q0": "$-48 to $48", "Q1": "The cost is always $0.25.", "Q2": "No.", "Q3": "Yes.", "Q4": "The values of the nodes walked through from start to finish.", "Q5": "No, the spider might forget to count the money on some rounds."}, "question_order": [0, 1, 2, 3, 4, 5], "correct": {"Q0": "$-48 to $48", "Q1": "The cost is always $0.25.", "Q2": "The better I perform the higher my bonus will be.", "Q3": "No, the amount of cash at each node of the web may be different each time.", "Q4": "The values of the nodes walked through from start to finish.", "Q5": "No, the spider might forget to count the money on some rounds."}, "trial_id": "mouselab_quiz_scarce", "trial_type": "survey-multi-choice", "trial_index": 13, "time_elapsed": 661548, "internal_node_id": "0.0-2.1-4.1"}}, {"uniqueid": "w42334182:a41844838", "current_trial": 14, "dateTime": 1664555688081, "trialdata": {"success": true, "trial_type": "fullscreen", "trial_index": 14, "time_elapsed": 674638, "internal_node_id": "0.0-2.2-0.2"}}, {"uniqueid": "w42334182:a41844838", "current_trial": 15, "dateTime": 1664555726965, "trialdata": {"view_history": [{"page_index": 0, "viewing_time": 9010}, {"page_index": 1, "viewing_time": 10609}, {"page_index": 2, "viewing_time": 8271}, {"page_index": 3, "viewing_time": 7911}, {"page_index": 4, "viewing_time": 3076}], "rt": 38879, "trial_id": "mouselab_instructions_1", "trial_type": "instructions", "trial_index": 15, "time_elapsed": 713522, "internal_node_id": "0.0-2.2-1.2"}}, {"uniqueid": "w42334182:a41844838", "current_trial": 16, "dateTime": 1664555750103, "trialdata": {"revealed_states": [], "num_clicks_accrued": [0, 0, 0, 0, 0, 0, 0, 0, 0, 0, 0, 0, 0], "stateRewards": ["", -10, 10, 10, -10, -10, -10, 10, 10, -10, -10, 10, -10], "withholdReward": false, "trial_id": "practice_1", "block": "test", "trialIndex": 4, "score": -10.75, "costs": -2.75, "simulationMode": [null, null, null], "rewards": [-10, -10, 10], "path": ["0", "0", "5", "6", "7"], "rt": [15244, 110, 443], "actions": ["right", "right", "up"], "actionTimes": [19042, 19656, 20622], "queries": {"click": {"state": {"target": ["3", "7", "8", "12", "11", "4", "1", "2", "9", "10", "5"], "time": [4987, 5821, 6943, 7772, 8554, 9449, 10397, 11478, 14024, 14811, 17438]}, "edge": {"target": [], "time": []}}, "mouseover": {"state": {"target": ["1", "2", "3", "7", "6", "8", "12", "10", "11", "4", "1", "2", "5", "0", "5", "0", "9", "10", "5"], "time": [4251, 4283, 4667, 5480, 6377, 6611, 7411, 8128, 8137, 9029, 10061, 11195, 12277, 12326, 12778, 13564, 13593, 14454, 17096]}, "edge": {"target": [], "time": []}}, "mouseout": {"state": {"target": ["0", "4", "1", "1", "2", "3", "7", "6", "8", "12", "10", "11", "4", "1", "2", "3", "5", "0", "5", "0", "9", "10", "9", "5"], "time": [2914, 3141, 3208, 4276, 4342, 5365, 6276, 6543, 7280, 8114, 8134, 8883, 9912, 11060, 12010, 12077, 12311, 12394, 13310, 13585, 14433, 15217, 15245, 22364]}, "edge": {"target": [], "time": []}}}, "displayed_time": "21.11", "trialTime": 22981, "trial_type": "mouselab-mdp", "trial_index": 16, "time_elapsed": 736660, "internal_node_id": "0.0-2.2-2.2-0.2"}}, {"uniqueid": "w42334182:a41844838", "current_trial": 17, "dateTime": 1664555759416, "trialdata": {"revealed_states": [], "num_clicks_accrued": [0, 0, 0, 0, 0, 0, 0, 0, 0, 0, 0, 0, 0], "stateRewards": ["", 10, 10, 10, -10, 10, 10, 10, -10, -10, -10, -10, -10], "withholdReward": false, "trial_id": "practice_2", "block": "test", "trialIndex": 5, "score": 31, "costs": -1, "simulationMode": [null, null, null], "rewards": [10, 10, 10], "path": ["0", "0", "5", "6", "7"], "rt": [4867, 22, 144], "actions": ["right", "right", "up"], "actionTimes": [6292, 6830, 7502], "queries": {"click": {"state": {"target": ["5", "6", "7", "8"], "time": [2142, 2822, 3542, 4849]}, "edge": {"target": [], "time": []}}, "mouseover": {"state": {"target": ["5", "6", "7", "8", "8"], "time": [1889, 2489, 3273, 4142, 4588]}, "edge": {"target": [], "time": []}}, "mouseout": {"state": {"target": ["0", "5", "6", "7", "8", "8", "5", "0"], "time": [1761, 2459, 3130, 4113, 4239, 5478, 5539, 8629]}, "edge": {"target": [], "time": []}}}, "displayed_time": "8.04", "trialTime": 9172, "trial_type": "mouselab-mdp", "trial_index": 17, "time_elapsed": 745973, "internal_node_id": "0.0-2.2-2.2-1.2"}}, {"uniqueid": "w42334182:a41844838", "current_trial": 18, "dateTime": 1664555782340, "trialdata": {"view_history": [{"page_index": 0, "viewing_time": 9123}, {"page_index": 1, "viewing_time": 8884}, {"page_index": 2, "viewing_time": 4905}], "rt": 22913, "trial_id": "mouselab_instructions_2_scarce", "trial_type": "instructions", "trial_index": 18, "time_elapsed": 768897, "internal_node_id": "0.0-2.2-3.2"}}, {"uniqueid": "w42334182:a41844838", "current_trial": 19, "dateTime": 1664555995006, "trialdata": {"rt": 212644, "response": {"Q0": "$-48 to $48", "Q1": "The cost is always $0.25.", "Q2": "The better I perform the higher my bonus will be.", "Q3": "No, the structure of the web will be different each time.", "Q4": "The values of the nodes walked through from start to finish.", "Q5": "No, the spider might forget to count the money on some rounds."}, "question_order": [0, 1, 2, 3, 4, 5], "correct": {"Q0": "$-48 to $48", "Q1": "The cost is always $0.25.", "Q2": "The better I perform the higher my bonus will be.", "Q3": "No, the amount of cash at each node of the web may be different each time.", "Q4": "The values of the nodes walked through from start to finish.", "Q5": "No, the spider might forget to count the money on some rounds."}, "trial_id": "mouselab_quiz_scarce", "trial_type": "survey-multi-choice", "trial_index": 19, "time_elapsed": 981563, "internal_node_id": "0.0-2.2-4.2"}}, {"uniqueid": "w42334182:a41844838", "current_trial": 20, "dateTime": 1664556001434, "trialdata": {"success": true, "trial_type": "fullscreen", "trial_index": 20, "time_elapsed": 987990, "internal_node_id": "0.0-2.3-0.3"}}, {"uniqueid": "w42334182:a41844838", "current_trial": 21, "dateTime": 1664556077097, "trialdata": {"view_history": [{"page_index": 0, "viewing_time": 19157}, {"page_index": 1, "viewing_time": 20164}, {"page_index": 2, "viewing_time": 9673}, {"page_index": 3, "viewing_time": 6892}, {"page_index": 4, "viewing_time": 19765}], "rt": 75653, "trial_id": "mouselab_instructions_1", "trial_type": "instructions", "trial_index": 21, "time_elapsed": 1063654, "internal_node_id": "0.0-2.3-1.3"}}, {"uniqueid": "w42334182:a41844838", "current_trial": 22, "dateTime": 1664556088172, "trialdata": {"revealed_states": [], "num_clicks_accrued": [0, 0, 0, 0, 0, 0, 0, 0, 0, 0, 0, 0, 0], "stateRewards": ["", -10, 10, 10, -10, -10, -10, 10, 10, -10, -10, 10, -10], "withholdReward": false, "trial_id": "practice_1", "block": "test", "trialIndex": 6, "score": 10.5, "costs": -1.5, "simulationMode": [null, null, null], "rewards": [-10, 10, 10], "path": ["0", "0", "1", "2", "3"], "rt": [6527, 12, 240], "actions": ["up", "up", "right"], "actionTimes": [7652, 8176, 8953], "queries": {"click": {"state": {"target": ["5", "6", "7", "1", "2", "3"], "time": [1732, 2396, 3049, 3888, 5163, 5797]}, "edge": {"target": [], "time": []}}, "mouseover": {"state": {"target": ["5", "6", "7", "1", "2", "3", "0"], "time": [1428, 2178, 2692, 3581, 4952, 5504, 6694]}, "edge": {"target": [], "time": []}}, "mouseout": {"state": {"target": ["0", "5", "6", "7", "1", "2", "3", "0", "1", "9"], "time": [1384, 2067, 2685, 3535, 4286, 5485, 6418, 6712, 10034, 10045]}, "edge": {"target": [], "time": []}}}, "displayed_time": "9.45", "trialTime": 10908, "trial_type": "mouselab-mdp", "trial_index": 22, "time_elapsed": 1074729, "internal_node_id": "0.0-2.3-2.3-0.3"}}, {"uniqueid": "w42334182:a41844838", "current_trial": 23, "dateTime": 1664556099291, "trialdata": {"revealed_states": [], "num_clicks_accrued": [0, 0, 0, 0, 0, 0, 0, 0, 0, 0, 0, 0, 0], "stateRewards": ["", 10, 10, 10, -10, 10, 10, 10, -10, -10, -10, -10, -10], "withholdReward": false, "trial_id": "practice_2", "block": "test", "trialIndex": 7, "score": 31.25, "costs": -0.75, "simulationMode": [null, null, null], "rewards": [10, 10, 10], "path": ["0", "0", "5", "6", "7"], "rt": [3896, 21, 256], "actions": ["right", "right", "up"], "actionTimes": [6695, 7220, 7972], "queries": {"click": {"state": {"target": ["5", "6", "7"], "time": [3806, 4425, 5188]}, "edge": {"target": [], "time": []}}, "mouseover": {"state": {"target": ["5", "6", "7"], "time": [3531, 4136, 4851]}, "edge": {"target": [], "time": []}}, "mouseout": {"state": {"target": ["0", "0", "5", "6", "7", "6"], "time": [962, 3469, 4123, 4838, 6214, 9139]}, "edge": {"target": [], "time": []}}}, "displayed_time": "8.47", "trialTime": 10961, "trial_type": "mouselab-mdp", "trial_index": 23, "time_elapsed": 1085847, "internal_node_id": "0.0-2.3-2.3-1.3"}}, {"uniqueid": "w42334182:a41844838", "current_trial": 24, "dateTime": 1664556112952, "trialdata": {"view_history": [{"page_index": 0, "viewing_time": 8313}, {"page_index": 1, "viewing_time": 3654}, {"page_index": 2, "viewing_time": 1682}], "rt": 13651, "trial_id": "mouselab_instructions_2_scarce", "trial_type": "instructions", "trial_index": 24, "time_elapsed": 1099509, "internal_node_id": "0.0-2.3-3.3"}}, {"uniqueid": "w42334182:a41844838", "current_trial": 25, "dateTime": 1664556240139, "trialdata": {"rt": 127171, "response": {"Q0": "$-48 to $48", "Q1": "The cost is always $0.25.", "Q2": "The better I perform the higher my bonus will be.", "Q3": "No, the amount of cash at each node of the web may be different each time.", "Q4": "The values of the nodes walked through from start to finish.", "Q5": "No, the spider might forget to count the money on some rounds."}, "question_order": [0, 1, 2, 3, 4, 5], "correct": {"Q0": "$-48 to $48", "Q1": "The cost is always $0.25.", "Q2": "The better I perform the higher my bonus will be.", "Q3": "No, the amount of cash at each node of the web may be different each time.", "Q4": "The values of the nodes walked through from start to finish.", "Q5": "No, the spider might forget to count the money on some rounds."}, "trial_id": "mouselab_quiz_scarce", "trial_type": "survey-multi-choice", "trial_index": 25, "time_elapsed": 1226696, "internal_node_id": "0.0-2.3-4.3"}}, {"uniqueid": "w42334182:a41844838", "current_trial": 26, "dateTime": 1664556244131, "trialdata": {"rt": 3974, "stimulus": "\n<h1> Get ready to start the game! </h1>\n\nThank you for reading the instructions. Get ready start with the first of 4 block(s) of this game.\n<br><br>\nIn this first block, you will complete 30 rounds of this game before moving on.\n<br><br>\nRemember, the more money the spider gets, the bigger your bonus will be!\n<br><br>\n<div style='text-align: center;'>Press <code>space</code> to begin.</div>\n\n<br><br>\n(If, at any point, the <code>space</code> key does not take you to the next page, click once on the text and try again.)", "response": " ", "trial_id": "mdp_ready_1", "trial_type": "html-keyboard-response", "trial_index": 26, "time_elapsed": 1230688, "internal_node_id": "0.0-4.0-0.0"}}, {"uniqueid": "w42334182:a41844838", "current_trial": 27, "dateTime": 1664556255893, "trialdata": {"revealed_states": [], "num_clicks_accrued": [0, 0, 0, 0, 0, 0, 0, 0, 0, 0, 0, 0, 0], "stateRewards": ["", -2, -4, -24, 48, -4, 8, 48, 48, 2, 8, -48, -24], "withholdReward": false, "trial_id": "mdp_136376573354", "block": "test1", "trialIndex": 8, "score": 55.75, "costs": -1.25, "simulationMode": [null, null, null], "rewards": [-4, 8, 48], "path": ["0", "0", "5", "6", "7"], "rt": [6259, 18, 239], "actions": ["right", "right", "up"], "actionTimes": [7769, 8303, 9074], "queries": {"click": {"state": {"target": ["1", "2", "5", "6", "7"], "time": [2902, 3913, 4859, 5524, 6473]}, "edge": {"target": [], "time": []}}, "mouseover": {"state": {"target": ["1", "2", "5", "5", "6", "7"], "time": [2517, 3516, 4350, 4604, 5202, 6137]}, "edge": {"target": [], "time": []}}, "mouseout": {"state": {"target": ["10", "9", "5", "1", "2", "5", "5", "6", "7", "6", "5"], "time": [672, 690, 988, 3389, 4266, 4367, 5193, 6107, 6958, 7133, 11267]}, "edge": {"target": [], "time": []}}}, "displayed_time": "10.51", "trialTime": 11579, "trial_type": "mouselab-mdp", "trial_index": 27, "time_elapsed": 1242449, "internal_node_id": "0.0-4.0-1.0-0.0"}}, {"uniqueid": "w42334182:a41844838", "current_trial": 28, "dateTime": 1664556272353, "trialdata": {"revealed_states": [], "num_clicks_accrued": [0, 0, 0, 0, 0, 0, 0, 0, 0, 0, 0, 0, 0], "stateRewards": ["", 2, -4, -24, 24, 2, 8, 48, 48, 2, -8, 48, -24], "withholdReward": true, "trial_id": "mdp_330392242530", "block": "test1", "trialIndex": 9, "score": 61.75, "costs": -1.25, "simulationMode": [null, null, null], "rewards": [2, 8, 48], "path": ["0", "0", "5", "6", "8"], "rt": [8264, 22, 441], "actions": ["right", "right", "down"], "actionTimes": [9794, 10327, 11280], "queries": {"click": {"state": {"target": ["5", "6", "8", "7", "9"], "time": [3176, 3797, 4497, 5474, 8520]}, "edge": {"target": [], "time": []}}, "mouseover": {"state": {"target": ["5", "6", "8", "7", "0", "9", "0"], "time": [2853, 3570, 4203, 4872, 7944, 8253, 9221]}, "edge": {"target": [], "time": []}}, "mouseout": {"state": {"target": ["0", "5", "6", "8", "6", "7", "0", "9", "0"], "time": [2410, 3527, 4162, 4829, 4861, 5920, 8002, 9211, 15628]}, "edge": {"target": [], "time": []}}}, "displayed_time": "11.77", "trialTime": 16308, "trial_type": "mouselab-mdp", "trial_index": 28, "time_elapsed": 1258909, "internal_node_id": "0.0-4.0-1.0-1.0"}}, {"uniqueid": "w42334182:a41844838", "current_trial": 29, "dateTime": 1664556287245, "trialdata": {"revealed_states": [], "num_clicks_accrued": [0, 0, 0, 0, 0, 0, 0, 0, 0, 0, 0, 0, 0], "stateRewards": ["", 4, 4, 24, -24, -4, -8, 48, -24, 4, 4, 48, 24], "withholdReward": true, "trial_id": "mdp_822446942217", "block": "test1", "trialIndex": 10, "score": 36, "costs": -1, "simulationMode": [null, null, null], "rewards": [4, 4, 24], "path": ["0", "0", "1", "2", "3"], "rt": [4715, 57, 331], "actions": ["up", "up", "right"], "actionTimes": [8719, 9269, 10125], "queries": {"click": {"state": {"target": ["5", "1", "2", "3"], "time": [4670, 6064, 6784, 7617]}, "edge": {"target": [], "time": []}}, "mouseover": {"state": {"target": ["0", "5", "1", "2", "3"], "time": [4351, 4409, 5816, 6360, 7221]}, "edge": {"target": [], "time": []}}, "mouseout": {"state": {"target": ["0", "5", "7", "0", "5", "1", "2", "3", "1"], "time": [675, 725, 3163, 4366, 5117, 6348, 7200, 8236, 14350]}, "edge": {"target": [], "time": []}}}, "displayed_time": "12.01", "trialTime": 14741, "trial_type": "mouselab-mdp", "trial_index": 29, "time_elapsed": 1273802, "internal_node_id": "0.0-4.0-1.0-2.0"}}, {"uniqueid": "w42334182:a41844838", "current_trial": 30, "dateTime": 1664556306273, "trialdata": {"revealed_states": [], "num_clicks_accrued": [0, 0, 0, 0, 0, 0, 0, 0, 0, 0, 0, 0, 0], "stateRewards": ["", 4, -8, -48, 24, 4, 4, -24, -24, 2, 4, -48, 24], "withholdReward": true, "trial_id": "mdp_626971397185", "block": "test1", "trialIndex": 11, "score": -13, "costs": -2, "simulationMode": [null, null, null], "rewards": [4, 4, -24], "path": ["0", "0", "5", "6", "8"], "rt": [8668, 185, 4313], "actions": ["right", "right", "down"], "actionTimes": [10752, 11455, 16266], "queries": {"click": {"state": {"target": ["2", "3", "7", "5", "6", "8", "1", "9"], "time": [3038, 3750, 4673, 5453, 6252, 7050, 8316, 9347]}, "edge": {"target": [], "time": []}}, "mouseover": {"state": {"target": ["1", "2", "3", "7", "7", "5", "6", "8", "0", "1", "9", "0"], "time": [2381, 2550, 3450, 4116, 4390, 5183, 5966, 6750, 7725, 8032, 9049, 9851]}, "edge": {"target": [], "time": []}}, "mouseout": {"state": {"target": ["0", "0", "0", "1", "2", "3", "7", "7", "5", "6", "8", "0", "1", "9", "0"], "time": [866, 1549, 2372, 2399, 3389, 4040, 4183, 4976, 5850, 6659, 7707, 7734, 8773, 9823, 17742]}, "edge": {"target": [], "time": []}}}, "displayed_time": "16.79", "trialTime": 18858, "trial_type": "mouselab-mdp", "trial_index": 30, "time_elapsed": 1292830, "internal_node_id": "0.0-4.0-1.0-3.0"}}, {"uniqueid": "w42334182:a41844838", "current_trial": 31, "dateTime": 1664556318184, "trialdata": {"revealed_states": [], "num_clicks_accrued": [0, 0, 0, 0, 0, 0, 0, 0, 0, 0, 0, 0, 0], "stateRewards": ["", -2, 8, 48, -48, 4, -8, 24, 24, 4, 4, -48, -24], "withholdReward": true, "trial_id": "mdp_746937869927", "block": "test1", "trialIndex": 12, "score": 58, "costs": -1, "simulationMode": [null, null, null], "rewards": [-2, 8, 48], "path": ["0", "0", "1", "2", "3"], "rt": [4582, 71, 592], "actions": ["up", "up", "right"], "actionTimes": [6429, 7001, 8120], "queries": {"click": {"state": {"target": ["1", "2", "4", "3"], "time": [2846, 3509, 4200, 5253]}, "edge": {"target": [], "time": []}}, "mouseover": {"state": {"target": ["1", "2", "4", "3", "3"], "time": [2582, 3144, 3844, 4555, 5019]}, "edge": {"target": [], "time": []}}, "mouseout": {"state": {"target": ["1", "0", "1", "2", "4", "2", "3", "3", "0"], "time": [1360, 2322, 3127, 3826, 4519, 4546, 4643, 10616, 10844]}, "edge": {"target": [], "time": []}}}, "displayed_time": "9.85", "trialTime": 11745, "trial_type": "mouselab-mdp", "trial_index": 31, "time_elapsed": 1304740, "internal_node_id": "0.0-4.0-1.0-4.0"}}, {"uniqueid": "w42334182:a41844838", "current_trial": 32, "dateTime": 1664556332917, "trialdata": {"revealed_states": [], "num_clicks_accrued": [0, 0, 0, 0, 0, 0, 0, 0, 0, 0, 0, 0, 0], "stateRewards": ["", -4, 4, -48, -48, -2, -8, -48, -24, 4, 8, -24, 24], "withholdReward": false, "trial_id": "mdp_449260894259", "block": "test1", "trialIndex": 13, "score": -8.75, "costs": -1.75, "simulationMode": [null, null, null], "rewards": [4, 8, -24], "path": ["0", "0", "9", "10", "11"], "rt": [9679, 77, 498], "actions": ["left", "left", "up"], "actionTimes": [11151, 11746, 12765], "queries": {"click": {"state": {"target": ["1", "2", "3", "4", "9", "5", "10"], "time": [2670, 3313, 3977, 5036, 5950, 7460, 9701]}, "edge": {"target": [], "time": []}}, "mouseover": {"state": {"target": ["1", "1", "2", "3", "4", "9", "5", "5", "6", "6", "0", "10"], "time": [2131, 2405, 2999, 3632, 4514, 5681, 6281, 7220, 8532, 8799, 8865, 9382]}, "edge": {"target": [], "time": []}}, "mouseout": {"state": {"target": ["0", "0", "1", "1", "2", "3", "2", "4", "9", "5", "5", "6", "6", "0", "9", "10"], "time": [731, 2113, 2147, 2980, 3588, 4437, 4463, 5314, 6230, 6548, 8154, 8566, 8815, 8898, 9182, 13894]}, "edge": {"target": [], "time": []}}}, "displayed_time": "13.27", "trialTime": 14582, "trial_type": "mouselab-mdp", "trial_index": 32, "time_elapsed": 1319473, "internal_node_id": "0.0-4.0-1.0-5.0"}}, {"uniqueid": "w42334182:a41844838", "current_trial": 33, "dateTime": 1664556348589, "trialdata": {"revealed_states": [], "num_clicks_accrued": [0, 0, 0, 0, 0, 0, 0, 0, 0, 0, 0, 0, 0], "stateRewards": ["", -4, 4, 48, 24, -4, 4, -24, 48, -2, -8, 24, -48], "withholdReward": true, "trial_id": "mdp_261501605436", "block": "test1", "trialIndex": 14, "score": 51.5, "costs": -1.5, "simulationMode": [null, null, null], "rewards": [-4, 4, 48], "path": ["0", "0", "1", "2", "3"], "rt": [5954, 32, 549], "actions": ["up", "up", "right"], "actionTimes": [8370, 8924, 10007], "queries": {"click": {"state": {"target": ["9", "10", "11", "1", "2", "3"], "time": [3376, 4287, 4871, 5862, 6746, 7460]}, "edge": {"target": [], "time": []}}, "mouseover": {"state": {"target": ["9", "10", "11", "1", "2", "3"], "time": [3124, 3733, 4575, 5190, 6440, 7090]}, "edge": {"target": [], "time": []}}, "mouseout": {"state": {"target": ["0", "9", "10", "11", "1", "2"], "time": [2765, 3714, 4549, 5128, 6390, 7041]}, "edge": {"target": [], "time": []}}}, "displayed_time": "12.42", "trialTime": 15513, "trial_type": "mouselab-mdp", "trial_index": 33, "time_elapsed": 1335146, "internal_node_id": "0.0-4.0-1.0-6.0"}}, {"uniqueid": "w42334182:a41844838", "current_trial": 34, "dateTime": 1664556383626, "trialdata": {"revealed_states": [], "num_clicks_accrued": [0, 0, 0, 0, 0, 0, 0, 0, 0, 0, 0, 0, 0], "stateRewards": ["", 2, 4, 48, 48, 4, -8, 24, -48, -4, -8, -24, -48], "withholdReward": true, "trial_id": "mdp_343818007251", "block": "test1", "trialIndex": 15, "score": 58.25, "costs": -0.75, "simulationMode": [null, null, null], "rewards": [2, 4, 48], "path": ["0", "0", "1", "2", "4"], "rt": [4466, 31, 109], "actions": ["up", "up", "left"], "actionTimes": [13504, 14042, 14653], "queries": {"click": {"state": {"target": ["1", "2", "4"], "time": [10522, 11541, 12262]}, "edge": {"target": [], "time": []}}, "mouseover": {"state": {"target": ["1", "2", "2", "4"], "time": [10150, 10854, 11249, 11942]}, "edge": {"target": [], "time": []}}, "mouseout": {"state": {"target": ["3", "1", "1", "2", "2", "4"], "time": [8300, 8508, 10840, 10892, 11859, 12949]}, "edge": {"target": [], "time": []}}}, "displayed_time": "17.04", "trialTime": 34869, "trial_type": "mouselab-mdp", "trial_index": 34, "time_elapsed": 1370183, "internal_node_id": "0.0-4.0-1.0-7.0"}}, {"uniqueid": "w42334182:a41844838", "current_trial": 35, "dateTime": 1664556400876, "trialdata": {"revealed_states": [], "num_clicks_accrued": [0, 0, 0, 0, 0, 0, 0, 0, 0, 0, 0, 0, 0], "stateRewards": ["", 4, 8, 24, 24, 2, -4, 48, -24, -4, 8, -24, 24], "withholdReward": true, "trial_id": "mdp_932292142091", "block": "test1", "trialIndex": 16, "score": 40.25, "costs": -0.75, "simulationMode": [null, null, null], "rewards": [4, 8, 24], "path": ["0", "0", "1", "2", "3"], "rt": [5403, 10, 193], "actions": ["up", "up", "right"], "actionTimes": [6760, 7282, 8002], "queries": {"click": {"state": {"target": ["1", "2", "3"], "time": [2740, 4046, 5941]}, "edge": {"target": [], "time": []}}, "mouseover": {"state": {"target": ["1", "2", "2", "3"], "time": [2574, 3293, 3703, 5693]}, "edge": {"target": [], "time": []}}, "mouseout": {"state": {"target": ["0", "1", "2", "2"], "time": [706, 3276, 3369, 4619]}, "edge": {"target": [], "time": []}}}, "displayed_time": "10.36", "trialTime": 17079, "trial_type": "mouselab-mdp", "trial_index": 35, "time_elapsed": 1387432, "internal_node_id": "0.0-4.0-1.0-8.0"}}, {"uniqueid": "w42334182:a41844838", "current_trial": 36, "dateTime": 1664556413787, "trialdata": {"revealed_states": [], "num_clicks_accrued": [0, 0, 0, 0, 0, 0, 0, 0, 0, 0, 0, 0, 0], "stateRewards": ["", -2, 8, -48, 48, -4, 8, -24, 24, 4, -4, 24, -48], "withholdReward": false, "trial_id": "mdp_904238083902", "block": "test1", "trialIndex": 17, "score": 58, "costs": -1, "simulationMode": [null, null, null], "rewards": [-2, 8, 48], "path": ["0", "0", "1", "2", "4"], "rt": [8804, 4, 314], "actions": ["up", "up", "left"], "actionTimes": [10366, 10883, 11727], "queries": {"click": {"state": {"target": ["1", "2", "3", "4"], "time": [6948, 7662, 8325, 9282]}, "edge": {"target": [], "time": []}}, "mouseover": {"state": {"target": ["1", "2", "3", "4"], "time": [6420, 7242, 7993, 8754]}, "edge": {"target": [], "time": []}}, "mouseout": {"state": {"target": ["3", "0", "1", "2", "3", "2"], "time": [751, 6413, 7236, 7943, 8718, 8742]}, "edge": {"target": [], "time": []}}}, "displayed_time": "12.24", "trialTime": 12730, "trial_type": "mouselab-mdp", "trial_index": 36, "time_elapsed": 1400344, "internal_node_id": "0.0-4.0-1.0-9.0"}}, {"uniqueid": "w42334182:a41844838", "current_trial": 37, "dateTime": 1664556427899, "trialdata": {"revealed_states": [], "num_clicks_accrued": [0, 0, 0, 0, 0, 0, 0, 0, 0, 0, 0, 0, 0], "stateRewards": ["", -2, 8, -48, 48, 4, -8, -48, 48, 4, -4, -24, 48], "withholdReward": true, "trial_id": "mdp_144739116828", "block": "test1", "trialIndex": 18, "score": 58.25, "costs": -0.75, "simulationMode": [null, null, null], "rewards": [-2, 8, 48], "path": ["0", "0", "1", "2", "4"], "rt": [7031, 15, 282], "actions": ["up", "up", "left"], "actionTimes": [10398, 10931, 11747], "queries": {"click": {"state": {"target": ["1", "4", "2"], "time": [6838, 8062, 9107]}, "edge": {"target": [], "time": []}}, "mouseover": {"state": {"target": ["1", "2", "2", "4", "4", "2"], "time": [6443, 7151, 7430, 7448, 7732, 8847]}, "edge": {"target": [], "time": []}}, "mouseout": {"state": {"target": ["4", "1", "2", "2", "4", "4", "1", "2"], "time": [2781, 7143, 7165, 7446, 7464, 8489, 8747, 13669]}, "edge": {"target": [], "time": []}}}, "displayed_time": "12.25", "trialTime": 13962, "trial_type": "mouselab-mdp", "trial_index": 37, "time_elapsed": 1414456, "internal_node_id": "0.0-4.0-1.0-10.0"}}, {"uniqueid": "w42334182:a41844838", "current_trial": 38, "dateTime": 1664556453366, "trialdata": {"revealed_states": [], "num_clicks_accrued": [0, 0, 0, 0, 0, 0, 0, 0, 0, 0, 0, 0, 0], "stateRewards": ["", -2, -8, -48, 24, 2, -4, -48, 48, 2, 4, 24, -24], "withholdReward": true, "trial_id": "mdp_849341543762", "block": "test1", "trialIndex": 19, "score": 49.25, "costs": -1.75, "simulationMode": [null, null, null], "rewards": [2, -4, 48], "path": ["0", "0", "5", "6", "8"], "rt": [6551, 22, 381], "actions": ["right", "right", "down"], "actionTimes": [21297, 21822, 22732], "queries": {"click": {"state": {"target": ["1", "2", "3", "5", "6", "7", "8"], "time": [15348, 16011, 16669, 17546, 18633, 19397, 20492]}, "edge": {"target": [], "time": []}}, "mouseover": {"state": {"target": ["1", "2", "3", "5", "6", "7", "8", "8"], "time": [14964, 15714, 16338, 17315, 18405, 19148, 19931, 20205]}, "edge": {"target": [], "time": []}}, "mouseout": {"state": {"target": ["0", "1", "2", "3", "5", "6", "7", "6", "8", "8"], "time": [14413, 15645, 16321, 17021, 17940, 19014, 19870, 19899, 19947, 24955]}, "edge": {"target": [], "time": []}}}, "displayed_time": "23.75", "trialTime": 25312, "trial_type": "mouselab-mdp", "trial_index": 38, "time_elapsed": 1439923, "internal_node_id": "0.0-4.0-1.0-11.0"}}, {"uniqueid": "w42334182:a41844838", "current_trial": 39, "dateTime": 1664556498321, "trialdata": {"revealed_states": [], "num_clicks_accrued": [0, 0, 0, 0, 0, 0, 0, 0, 0, 0, 0, 0, 0], "stateRewards": ["", -4, -8, -48, 48, -2, 8, 48, 48, -2, -4, -48, -48], "withholdReward": true, "trial_id": "mdp_752833580638", "block": "test1", "trialIndex": 20, "score": 40, "costs": -1, "simulationMode": [null, null, null], "rewards": [-4, -8, 48], "path": ["0", "0", "1", "2", "4"], "rt": [9711, 122, 388], "actions": ["up", "up", "left"], "actionTimes": [41767, 42394, 43275], "queries": {"click": {"state": {"target": ["1", "2", "4", "3"], "time": [38121, 38841, 39590, 40592]}, "edge": {"target": [], "time": []}}, "mouseover": {"state": {"target": ["1", "2", "4", "3"], "time": [37710, 38525, 39251, 40251]}, "edge": {"target": [], "time": []}}, "mouseout": {"state": {"target": ["0", "1", "2", "4", "3", "1"], "time": [37683, 38507, 39241, 40091, 40958, 41151]}, "edge": {"target": [], "time": []}}}, "displayed_time": "43.77", "trialTime": 44784, "trial_type": "mouselab-mdp", "trial_index": 39, "time_elapsed": 1484877, "internal_node_id": "0.0-4.0-1.0-12.0"}}, {"uniqueid": "w42334182:a41844838", "current_trial": 40, "dateTime": 1664556514745, "trialdata": {"revealed_states": [], "num_clicks_accrued": [0, 0, 0, 0, 0, 0, 0, 0, 0, 0, 0, 0, 0], "stateRewards": ["", -4, -8, 48, 24, 4, -8, 24, -48, -2, -8, 24, -48], "withholdReward": true, "trial_id": "mdp_952038635544", "block": "test1", "trialIndex": 21, "score": 24, "costs": -1, "simulationMode": [null, null, null], "rewards": [4, -8, 24], "path": ["0", "0", "5", "6", "7"], "rt": [4992, 88, 379], "actions": ["right", "right", "up"], "actionTimes": [11494, 12092, 12981], "queries": {"click": {"state": {"target": ["5", "6", "7", "8"], "time": [7366, 8021, 8861, 10659]}, "edge": {"target": [], "time": []}}, "mouseover": {"state": {"target": ["5", "5", "6", "7", "8"], "time": [6875, 7116, 7688, 8633, 10367]}, "edge": {"target": [], "time": []}}, "mouseout": {"state": {"target": ["0", "0", "5", "5", "6", "7", "8"], "time": [5863, 6855, 6982, 7674, 8533, 9851, 15825]}, "edge": {"target": [], "time": []}}}, "displayed_time": "15.50", "trialTime": 16241, "trial_type": "mouselab-mdp", "trial_index": 40, "time_elapsed": 1501302, "internal_node_id": "0.0-4.0-1.0-13.0"}}, {"uniqueid": "w42334182:a41844838", "current_trial": 41, "dateTime": 1664556529648, "trialdata": {"revealed_states": [], "num_clicks_accrued": [0, 0, 0, 0, 0, 0, 0, 0, 0, 0, 0, 0, 0], "stateRewards": ["", -4, -4, -24, -48, -4, 8, -24, -48, 4, -8, 24, -24], "withholdReward": true, "trial_id": "mdp_924927483179", "block": "test1", "trialIndex": 22, "score": 23, "costs": -2, "simulationMode": [null, null, null], "rewards": [4, -8, 24], "path": ["0", "0", "9", "10", "11"], "rt": [9296, 974, 116], "actions": ["left", "left", "up"], "actionTimes": [10721, 12197, 12821], "queries": {"click": {"state": {"target": ["1", "2", "4", "3", "5", "9", "10", "11"], "time": [2836, 4191, 4905, 5689, 6559, 8112, 9143, 9759]}, "edge": {"target": [], "time": []}}, "mouseover": {"state": {"target": ["1", "2", "4", "3", "5", "0", "9", "9", "10", "11"], "time": [2284, 3957, 4719, 5356, 6268, 6903, 7436, 7890, 8879, 9421]}, "edge": {"target": [], "time": []}}, "mouseout": {"state": {"target": ["0", "1", "2", "4", "3", "5", "0", "9", "9", "10", "11"], "time": [2101, 3251, 4604, 5340, 5969, 6878, 7410, 7469, 8501, 9412, 10188]}, "edge": {"target": [], "time": []}}}, "displayed_time": "13.32", "trialTime": 14729, "trial_type": "mouselab-mdp", "trial_index": 41, "time_elapsed": 1516205, "internal_node_id": "0.0-4.0-1.0-14.0"}}, {"uniqueid": "w42334182:a41844838", "current_trial": 42, "dateTime": 1664556540322, "trialdata": {"revealed_states": [], "num_clicks_accrued": [0, 0, 0, 0, 0, 0, 0, 0, 0, 0, 0, 0, 0], "stateRewards": ["", -4, -4, -24, 48, -4, -8, -24, 48, 2, 4, 48, 48], "withholdReward": true, "trial_id": "mdp_810954007398", "block": "test1", "trialIndex": 23, "score": 58.25, "costs": -0.75, "simulationMode": [null, null, null], "rewards": [2, 4, 48], "path": ["0", "0", "9", "10", "12"], "rt": [3142, 670, 191], "actions": ["left", "left", "down"], "actionTimes": [4750, 5919, 6608], "queries": {"click": {"state": {"target": ["9", "10", "12"], "time": [2501, 3136, 3829]}, "edge": {"target": [], "time": []}}, "mouseover": {"state": {"target": ["9", "10", "12"], "time": [2281, 2846, 3496]}, "edge": {"target": [], "time": []}}, "mouseout": {"state": {"target": ["0", "0", "9", "10", "12"], "time": [963, 2032, 2813, 3463, 10196]}, "edge": {"target": [], "time": []}}}, "displayed_time": "9.61", "trialTime": 10514, "trial_type": "mouselab-mdp", "trial_index": 42, "time_elapsed": 1526879, "internal_node_id": "0.0-4.0-1.0-15.0"}}, {"uniqueid": "w42334182:a41844838", "current_trial": 43, "dateTime": 1664556551790, "trialdata": {"revealed_states": [], "num_clicks_accrued": [0, 0, 0, 0, 0, 0, 0, 0, 0, 0, 0, 0, 0], "stateRewards": ["", -4, 4, -24, 48, -2, 8, -48, 24, 2, 4, 48, -48], "withholdReward": true, "trial_id": "mdp_366632183904", "block": "test1", "trialIndex": 24, "score": 58, "costs": -1, "simulationMode": [null, null, null], "rewards": [2, 4, 48], "path": ["0", "0", "9", "10", "11"], "rt": [4562, 70, 301], "actions": ["left", "left", "up"], "actionTimes": [5779, 6358, 7154], "queries": {"click": {"state": {"target": ["9", "10", "12", "11"], "time": [2202, 2908, 3701, 4723]}, "edge": {"target": [], "time": []}}, "mouseover": {"state": {"target": ["9", "10", "12", "11"], "time": [1952, 2534, 3367, 4223]}, "edge": {"target": [], "time": []}}, "mouseout": {"state": {"target": ["9", "10", "12", "11", "10", "12"], "time": [2488, 3303, 4204, 10759, 10816, 10885]}, "edge": {"target": [], "time": []}}}, "displayed_time": "10.22", "trialTime": 11303, "trial_type": "mouselab-mdp", "trial_index": 43, "time_elapsed": 1538347, "internal_node_id": "0.0-4.0-1.0-16.0"}}, {"uniqueid": "w42334182:a41844838", "current_trial": 44, "dateTime": 1664556566011, "trialdata": {"revealed_states": [], "num_clicks_accrued": [0, 0, 0, 0, 0, 0, 0, 0, 0, 0, 0, 0, 0], "stateRewards": ["", 2, -4, 24, 24, 2, 4, 24, 24, -4, 8, 24, 48], "withholdReward": true, "trial_id": "mdp_268430387178", "block": "test1", "trialIndex": 25, "score": 34.25, "costs": -0.75, "simulationMode": [null, null, null], "rewards": [2, 4, 24], "path": ["0", "0", "5", "6", "8"], "rt": [3354, 116, 477], "actions": ["right", "right", "down"], "actionTimes": [4769, 5401, 6425], "queries": {"click": {"state": {"target": ["5", "6", "8"], "time": [2502, 3334, 4073]}, "edge": {"target": [], "time": []}}, "mouseover": {"state": {"target": ["9", "0", "5", "6", "8"], "time": [1998, 2148, 2199, 3082, 3718]}, "edge": {"target": [], "time": []}}, "mouseout": {"state": {"target": ["0", "9", "0", "5", "6"], "time": [1789, 2098, 2166, 2998, 3681]}, "edge": {"target": [], "time": []}}}, "displayed_time": "9.42", "trialTime": 14055, "trial_type": "mouselab-mdp", "trial_index": 44, "time_elapsed": 1552567, "internal_node_id": "0.0-4.0-1.0-17.0"}}, {"uniqueid": "w42334182:a41844838", "current_trial": 45, "dateTime": 1664556597523, "trialdata": {"revealed_states": [], "num_clicks_accrued": [0, 0, 0, 0, 0, 0, 0, 0, 0, 0, 0, 0, 0], "stateRewards": ["", 2, -8, -48, 24, 4, 8, 48, -48, 2, -4, 24, 24], "withholdReward": true, "trial_id": "mdp_130475327289", "block": "test1", "trialIndex": 26, "score": 22.25, "costs": -0.75, "simulationMode": [null, null, null], "rewards": [2, -8, 24], "path": ["0", "0", "1", "2", "4"], "rt": [10288, 202, 418], "actions": ["up", "up", "left"], "actionTimes": [28347, 29069, 30001], "queries": {"click": {"state": {"target": ["1", "2", "4"], "time": [20398, 21288, 22386]}, "edge": {"target": [], "time": []}}, "mouseover": {"state": {"target": ["1", "2", "4", "4", "3"], "time": [20148, 21014, 21784, 22098, 22832]}, "edge": {"target": [], "time": []}}, "mouseout": {"state": {"target": ["8", "11", "0", "1", "2", "4", "4", "3"], "time": [16803, 17131, 19954, 20815, 21770, 21965, 22808, 22864]}, "edge": {"target": [], "time": []}}}, "displayed_time": "30.50", "trialTime": 31332, "trial_type": "mouselab-mdp", "trial_index": 45, "time_elapsed": 1584080, "internal_node_id": "0.0-4.0-1.0-18.0"}}, {"uniqueid": "w42334182:a41844838", "current_trial": 46, "dateTime": 1664556614429, "trialdata": {"revealed_states": [], "num_clicks_accrued": [0, 0, 0, 0, 0, 0, 0, 0, 0, 0, 0, 0, 0], "stateRewards": ["", -4, -8, 24, 48, 2, -4, -24, 24, -4, 8, 48, 48], "withholdReward": true, "trial_id": "mdp_496672670022", "block": "test1", "trialIndex": 27, "score": 56.25, "costs": -0.75, "simulationMode": [null, null, null], "rewards": [-4, 8, 48], "path": ["0", "0", "9", "10", "11"], "rt": [5924, 399, 524], "actions": ["left", "left", "up"], "actionTimes": [9565, 10485, 11512], "queries": {"click": {"state": {"target": ["9", "10", "11"], "time": [4940, 5680, 6641]}, "edge": {"target": [], "time": []}}, "mouseover": {"state": {"target": ["1", "9", "10", "11"], "time": [4050, 4649, 5267, 6437]}, "edge": {"target": [], "time": []}}, "mouseout": {"state": {"target": ["0", "1", "9", "10", "11"], "time": [4027, 4450, 5249, 6240, 7128]}, "edge": {"target": [], "time": []}}}, "displayed_time": "13.64", "trialTime": 16706, "trial_type": "mouselab-mdp", "trial_index": 46, "time_elapsed": 1600986, "internal_node_id": "0.0-4.0-1.0-19.0"}}, {"uniqueid": "w42334182:a41844838", "current_trial": 47, "dateTime": 1664556625677, "trialdata": {"revealed_states": [], "num_clicks_accrued": [0, 0, 0, 0, 0, 0, 0, 0, 0, 0, 0, 0, 0], "stateRewards": ["", -4, -8, 48, -24, 4, -8, 48, 48, -2, 4, -48, -24], "withholdReward": false, "trial_id": "mdp_925905402462", "block": "test1", "trialIndex": 28, "score": 48, "costs": -1, "simulationMode": [null, null, null], "rewards": [4, -8, 48], "path": ["0", "0", "5", "6", "8"], "rt": [4569, 3, 325], "actions": ["right", "right", "down"], "actionTimes": [5901, 6399, 7254], "queries": {"click": {"state": {"target": ["5", "6", "8", "7"], "time": [2410, 3071, 3745, 4570]}, "edge": {"target": [], "time": []}}, "mouseover": {"state": {"target": ["5", "6", "8", "7"], "time": [2055, 2796, 3411, 4194]}, "edge": {"target": [], "time": []}}, "mouseout": {"state": {"target": ["0", "5", "6", "8", "6", "7"], "time": [1644, 2775, 3384, 4033, 4076, 4860]}, "edge": {"target": [], "time": []}}}, "displayed_time": "10.33", "trialTime": 11063, "trial_type": "mouselab-mdp", "trial_index": 47, "time_elapsed": 1612233, "internal_node_id": "0.0-4.0-1.0-20.0"}}, {"uniqueid": "w42334182:a41844838", "current_trial": 48, "dateTime": 1664556637473, "trialdata": {"revealed_states": [], "num_clicks_accrued": [0, 0, 0, 0, 0, 0, 0, 0, 0, 0, 0, 0, 0], "stateRewards": ["", -4, 8, 24, -48, -4, -8, -24, 24, 2, -4, -48, 24], "withholdReward": false, "trial_id": "mdp_898449441629", "block": "test1", "trialIndex": 29, "score": 31.25, "costs": -1.75, "simulationMode": [null, null, null], "rewards": [-4, 8, 24], "path": ["0", "0", "1", "2", "3"], "rt": [7290, 135, 309], "actions": ["up", "up", "right"], "actionTimes": [8496, 9126, 9950], "queries": {"click": {"state": {"target": ["5", "6", "7", "1", "2", "4", "3"], "time": [2173, 3007, 3763, 4642, 5416, 6194, 7360]}, "edge": {"target": [], "time": []}}, "mouseover": {"state": {"target": ["5", "6", "7", "1", "2", "4", "3"], "time": [1839, 2722, 3355, 4356, 4924, 5739, 7072]}, "edge": {"target": [], "time": []}}, "mouseout": {"state": {"target": ["5", "5", "6", "7", "1", "2", "4", "2", "3", "1", "0"], "time": [607, 2662, 3311, 4031, 4889, 5714, 6577, 6773, 7754, 11356, 11373]}, "edge": {"target": [], "time": []}}}, "displayed_time": "10.44", "trialTime": 11621, "trial_type": "mouselab-mdp", "trial_index": 48, "time_elapsed": 1624029, "internal_node_id": "0.0-4.0-1.0-21.0"}}, {"uniqueid": "w42334182:a41844838", "current_trial": 49, "dateTime": 1664556649589, "trialdata": {"revealed_states": [], "num_clicks_accrued": [0, 0, 0, 0, 0, 0, 0, 0, 0, 0, 0, 0, 0], "stateRewards": ["", 2, -8, 24, 24, 2, 4, -48, -48, 4, 4, -24, 48], "withholdReward": true, "trial_id": "mdp_985707010949", "block": "test1", "trialIndex": 30, "score": 22, "costs": -1, "simulationMode": [null, null, null], "rewards": [2, -8, 24], "path": ["0", "0", "1", "2", "3"], "rt": [4623, 62, 716], "actions": ["up", "up", "right"], "actionTimes": [7981, 8543, 9797], "queries": {"click": {"state": {"target": ["1", "2", "4", "3"], "time": [4115, 4807, 5669, 6631]}, "edge": {"target": [], "time": []}}, "mouseover": {"state": {"target": ["1", "2", "4", "3"], "time": [3767, 4435, 5363, 6363]}, "edge": {"target": [], "time": []}}, "mouseout": {"state": {"target": ["0", "1", "2", "4", "2", "3"], "time": [3012, 4410, 5148, 5979, 6013, 7163]}, "edge": {"target": [], "time": []}}}, "displayed_time": "11.36", "trialTime": 11928, "trial_type": "mouselab-mdp", "trial_index": 49, "time_elapsed": 1636146, "internal_node_id": "0.0-4.0-1.0-22.0"}}, {"uniqueid": "w42334182:a41844838", "current_trial": 50, "dateTime": 1664556663103, "trialdata": {"revealed_states": [], "num_clicks_accrued": [0, 0, 0, 0, 0, 0, 0, 0, 0, 0, 0, 0, 0], "stateRewards": ["", 4, 8, -24, 48, -2, -4, 24, -24, -2, 4, 24, 24], "withholdReward": true, "trial_id": "mdp_948713805479", "block": "test1", "trialIndex": 31, "score": 30, "costs": -1, "simulationMode": [null, null, null], "rewards": [-2, 4, 24], "path": ["0", "0", "9", "10", "12"], "rt": [4983, 72, 120], "actions": ["left", "left", "down"], "actionTimes": [7466, 8058, 8694], "queries": {"click": {"state": {"target": ["9", "10", "11", "12"], "time": [3777, 4469, 5205, 5996]}, "edge": {"target": [], "time": []}}, "mouseover": {"state": {"target": ["1", "9", "10", "11", "12", "0"], "time": [3019, 3416, 4166, 4900, 5617, 6533]}, "edge": {"target": [], "time": []}}, "mouseout": {"state": {"target": ["0", "1", "9", "10", "11", "10", "12"], "time": [2978, 3167, 4139, 4850, 5541, 5599, 6456]}, "edge": {"target": [], "time": []}}}, "displayed_time": "11.48", "trialTime": 13196, "trial_type": "mouselab-mdp", "trial_index": 50, "time_elapsed": 1649660, "internal_node_id": "0.0-4.0-1.0-23.0"}}, {"uniqueid": "w42334182:a41844838", "current_trial": 51, "dateTime": 1664556691953, "trialdata": {"revealed_states": [], "num_clicks_accrued": [0, 0, 0, 0, 0, 0, 0, 0, 0, 0, 0, 0, 0], "stateRewards": ["", -2, -8, 24, -24, 4, -8, 48, 48, -4, -8, -24, -48], "withholdReward": true, "trial_id": "mdp_286767261523", "block": "test1", "trialIndex": 32, "score": 47.25, "costs": -1.75, "simulationMode": [null, null, null], "rewards": [4, -8, 48], "path": ["0", "0", "5", "6", "8"], "rt": [6503, 53, 1670], "actions": ["right", "right", "down"], "actionTimes": [7776, 8368, 10548], "queries": {"click": {"state": {"target": ["9", "10", "11", "12", "5", "6", "8"], "time": [2090, 3121, 3785, 4642, 5552, 6260, 6954]}, "edge": {"target": [], "time": []}}, "mouseover": {"state": {"target": ["9", "10", "10", "11", "12", "5", "6", "8"], "time": [1793, 2395, 2878, 3426, 4410, 5310, 5960, 6647]}, "edge": {"target": [], "time": []}}, "mouseout": {"state": {"target": ["0", "9", "10", "10", "11", "10", "12", "5", "6", "8"], "time": [1727, 2393, 2494, 3410, 4076, 4260, 4931, 5927, 6633, 28118]}, "edge": {"target": [], "time": []}}}, "displayed_time": "11.06", "trialTime": 28605, "trial_type": "mouselab-mdp", "trial_index": 51, "time_elapsed": 1678510, "internal_node_id": "0.0-4.0-1.0-24.0"}}, {"uniqueid": "w42334182:a41844838", "current_trial": 52, "dateTime": 1664556710746, "trialdata": {"revealed_states": [], "num_clicks_accrued": [0, 0, 0, 0, 0, 0, 0, 0, 0, 0, 0, 0, 0], "stateRewards": ["", -2, 4, -48, 24, -4, 8, 48, 24, -2, 4, -48, -24], "withholdReward": false, "trial_id": "mdp_740882974347", "block": "test1", "trialIndex": 33, "score": 29.25, "costs": -1.75, "simulationMode": [null, null, null], "rewards": [-2, 4, 24], "path": ["0", "0", "1", "2", "4"], "rt": [7393, 363, 307], "actions": ["up", "up", "left"], "actionTimes": [8938, 9820, 10647], "queries": {"click": {"state": {"target": ["9", "10", "11", "12", "1", "2", "4"], "time": [2949, 3586, 4511, 5366, 6404, 7012, 7820]}, "edge": {"target": [], "time": []}}, "mouseover": {"state": {"target": ["9", "10", "11", "11", "12", "1", "2", "4"], "time": [2696, 3254, 3846, 4255, 5070, 6137, 6815, 7422]}, "edge": {"target": [], "time": []}}, "mouseout": {"state": {"target": ["0", "9", "10", "11", "11", "10", "12", "9", "1", "2", "4"], "time": [2187, 3243, 3844, 3855, 4937, 4988, 5812, 5854, 6682, 7410, 8171]}, "edge": {"target": [], "time": []}}}, "displayed_time": "11.14", "trialTime": 18590, "trial_type": "mouselab-mdp", "trial_index": 52, "time_elapsed": 1697302, "internal_node_id": "0.0-4.0-1.0-25.0"}}, {"uniqueid": "w42334182:a41844838", "current_trial": 53, "dateTime": 1664556730726, "trialdata": {"revealed_states": [], "num_clicks_accrued": [0, 0, 0, 0, 0, 0, 0, 0, 0, 0, 0, 0, 0], "stateRewards": ["", -4, 4, -24, 24, 2, 4, -24, 48, -4, 8, -48, 48], "withholdReward": true, "trial_id": "mdp_422109108860", "block": "test1", "trialIndex": 34, "score": 28, "costs": -1, "simulationMode": [null, null, null], "rewards": [-4, 4, 24], "path": ["0", "0", "1", "2", "4"], "rt": [4547, 43, 134], "actions": ["up", "up", "left"], "actionTimes": [6185, 6725, 7367], "queries": {"click": {"state": {"target": ["2", "1", "3", "4"], "time": [2925, 3575, 4325, 5108]}, "edge": {"target": [], "time": []}}, "mouseover": {"state": {"target": ["1", "2", "1", "3", "4"], "time": [2063, 2197, 3280, 4047, 4831]}, "edge": {"target": [], "time": []}}, "mouseout": {"state": {"target": ["0", "1", "1", "2", "1", "3", "2", "4", "2", "7", "5"], "time": [913, 1114, 2113, 3197, 3915, 4597, 4713, 5488, 18697, 18847, 19063]}, "edge": {"target": [], "time": []}}}, "displayed_time": "10.64", "trialTime": 19730, "trial_type": "mouselab-mdp", "trial_index": 53, "time_elapsed": 1717283, "internal_node_id": "0.0-4.0-1.0-26.0"}}, {"uniqueid": "w42334182:a41844838", "current_trial": 54, "dateTime": 1664556746578, "trialdata": {"revealed_states": [], "num_clicks_accrued": [0, 0, 0, 0, 0, 0, 0, 0, 0, 0, 0, 0, 0], "stateRewards": ["", 2, 4, -48, -48, 2, 4, 48, -24, -2, 8, 48, -48], "withholdReward": true, "trial_id": "mdp_258528916140", "block": "test1", "trialIndex": 35, "score": 58, "costs": -1, "simulationMode": [null, null, null], "rewards": [2, 4, 48], "path": ["0", "0", "5", "6", "7"], "rt": [11325, 43, 397], "actions": ["right", "right", "up"], "actionTimes": [12810, 13360, 14265], "queries": {"click": {"state": {"target": ["5", "6", "8", "7"], "time": [9150, 9856, 10536, 12055]}, "edge": {"target": [], "time": []}}, "mouseover": {"state": {"target": ["0", "0", "5", "5", "6", "8", "7"], "time": [7082, 8422, 8440, 8899, 9615, 10181, 11792]}, "edge": {"target": [], "time": []}}, "mouseout": {"state": {"target": ["0", "0", "0", "5", "5", "6", "8", "6", "7", "5"], "time": [748, 7631, 8438, 8482, 9497, 10148, 11189, 11331, 15422, 15499]}, "edge": {"target": [], "time": []}}}, "displayed_time": "14.77", "trialTime": 15633, "trial_type": "mouselab-mdp", "trial_index": 54, "time_elapsed": 1733135, "internal_node_id": "0.0-4.0-1.0-27.0"}}, {"uniqueid": "w42334182:a41844838", "current_trial": 55, "dateTime": 1664556764531, "trialdata": {"revealed_states": [], "num_clicks_accrued": [0, 0, 0, 0, 0, 0, 0, 0, 0, 0, 0, 0, 0], "stateRewards": ["", 4, 4, 48, -24, 2, -4, 48, 24, -4, -4, -48, 24], "withholdReward": false, "trial_id": "mdp_496003763005", "block": "test1", "trialIndex": 36, "score": 60.25, "costs": -0.75, "simulationMode": [null, null, null], "rewards": [4, 4, 48], "path": ["0", "0", "1", "2", "3"], "rt": [12150, 161, 86], "actions": ["up", "up", "right"], "actionTimes": [13470, 14141, 14752], "queries": {"click": {"state": {"target": ["2", "1", "3"], "time": [10222, 10871, 12539]}, "edge": {"target": [], "time": []}}, "mouseover": {"state": {"target": ["1", "2", "1", "3"], "time": [9794, 9945, 10528, 12294]}, "edge": {"target": [], "time": []}}, "mouseout": {"state": {"target": ["0", "1", "2", "1"], "time": [9750, 9878, 10505, 11770]}, "edge": {"target": [], "time": []}}}, "displayed_time": "15.26", "trialTime": 17765, "trial_type": "mouselab-mdp", "trial_index": 55, "time_elapsed": 1751088, "internal_node_id": "0.0-4.0-1.0-28.0"}}, {"uniqueid": "w42334182:a41844838", "current_trial": 56, "dateTime": 1664556776695, "trialdata": {"revealed_states": [], "num_clicks_accrued": [0, 0, 0, 0, 0, 0, 0, 0, 0, 0, 0, 0, 0], "stateRewards": ["", 4, 4, 48, -48, -2, 4, 48, -48, -4, 4, -24, -24], "withholdReward": false, "trial_id": "mdp_753324812898", "block": "test1", "trialIndex": 37, "score": 60, "costs": -1, "simulationMode": [null, null, null], "rewards": [4, 4, 48], "path": ["0", "0", "1", "2", "3"], "rt": [6316, 56, 17], "actions": ["up", "up", "right"], "actionTimes": [7909, 8484, 9046], "queries": {"click": {"state": {"target": ["1", "2", "4", "3"], "time": [3118, 3783, 5253, 6732]}, "edge": {"target": [], "time": []}}, "mouseover": {"state": {"target": ["1", "1", "2", "4", "4", "3"], "time": [2112, 2886, 3450, 4180, 5027, 6244]}, "edge": {"target": [], "time": []}}, "mouseout": {"state": {"target": ["3", "1", "9", "0", "1", "1", "2", "4", "4", "2"], "time": [659, 693, 726, 2097, 2131, 3417, 4166, 4361, 5967, 6178]}, "edge": {"target": [], "time": []}}}, "displayed_time": "9.60", "trialTime": 11877, "trial_type": "mouselab-mdp", "trial_index": 56, "time_elapsed": 1763251, "internal_node_id": "0.0-4.0-1.0-29.0"}}, {"uniqueid": "w42334182:a41844838", "current_trial": 57, "dateTime": 1664556808012, "trialdata": {"rt": 31299, "stimulus": "<h1> End of block! </h1>\n\nYou have reached the end of the block 1/4. If you need a short break, feel free to take one now before moving on.\n\n<br><br>\nIn the next block, you will complete another 30 rounds of this game.\n\n<br><br>\n<div style='text-align: center;'>Press <code>space</code> to begin.</div>\n<br><br>\n<div style='text-align: center;'>(If the experiment doesn't continue, try clicking on the text and then pressing <code>space</code>.)</div>", "response": " ", "trial_id": "mdp_ready_2", "trial_type": "html-keyboard-response", "trial_index": 57, "time_elapsed": 1794568, "internal_node_id": "0.0-4.0-2.0"}}, {"uniqueid": "w42334182:a41844838", "current_trial": 58, "dateTime": 1664556831801, "trialdata": {"revealed_states": [], "num_clicks_accrued": [0, 0, 0, 0, 0, 0, 0, 0, 0, 0, 0, 0, 0], "stateRewards": ["", 2, 4, -48, 24, -4, 4, -24, 48, -2, -8, -48, 48], "withholdReward": true, "trial_id": "mdp_424193661731", "block": "test2", "trialIndex": 38, "score": 52, "costs": -1, "simulationMode": [null, null, null], "rewards": [-4, 4, 48], "path": ["0", "0", "5", "6", "8"], "rt": [18574, 74, 474], "actions": ["right", "right", "down"], "actionTimes": [20210, 20793, 21795], "queries": {"click": {"state": {"target": ["5", "6", "7", "8"], "time": [13756, 14505, 15328, 19208]}, "edge": {"target": [], "time": []}}, "mouseover": {"state": {"target": ["5", "6", "7", "8"], "time": [13381, 14314, 14823, 18848]}, "edge": {"target": [], "time": []}}, "mouseout": {"state": {"target": ["3", "5", "6", "7", "6"], "time": [731, 14131, 14806, 18664, 18815]}, "edge": {"target": [], "time": []}}}, "displayed_time": "22.30", "trialTime": 23570, "trial_type": "mouselab-mdp", "trial_index": 58, "time_elapsed": 1818358, "internal_node_id": "0.0-4.0-3.0-0.0"}}, {"uniqueid": "w42334182:a41844838", "current_trial": 59, "dateTime": 1664556863234, "trialdata": {"revealed_states": [], "num_clicks_accrued": [0, 0, 0, 0, 0, 0, 0, 0, 0, 0, 0, 0, 0], "stateRewards": ["", 2, -8, -24, 48, -4, -8, 24, -48, 4, -8, -24, -24], "withholdReward": true, "trial_id": "mdp_928911266656", "block": "test2", "trialIndex": 39, "score": 44, "costs": -3, "simulationMode": [null, null, null], "rewards": [2, -8, 48], "path": ["0", "0", "1", "2", "4"], "rt": [12584, 32, 556], "actions": ["up", "up", "left"], "actionTimes": [17589, 18129, 19187], "queries": {"click": {"state": {"target": ["9", "10", "12", "11", "5", "6", "7", "8", "1", "2", "3", "4"], "time": [5806, 6750, 7903, 8766, 9892, 10916, 11523, 12494, 13636, 14288, 14987, 15940]}, "edge": {"target": [], "time": []}}, "mouseover": {"state": {"target": ["9", "10", "12", "11", "5", "6", "6", "7", "8", "1", "2", "3", "4"], "time": [5594, 6539, 7410, 8378, 9528, 10194, 10650, 11219, 11979, 13361, 13912, 14662, 15529]}, "edge": {"target": [], "time": []}}, "mouseout": {"state": {"target": ["8", "5", "0", "9", "10", "12", "11", "5", "6", "6", "7", "6", "8", "1", "2", "3", "4"], "time": [4279, 4343, 5378, 6119, 7328, 8351, 9301, 10178, 10229, 11192, 11850, 11895, 13104, 13895, 14639, 15502, 30882]}, "edge": {"target": [], "time": []}}}, "displayed_time": "19.70", "trialTime": 31216, "trial_type": "mouselab-mdp", "trial_index": 59, "time_elapsed": 1849791, "internal_node_id": "0.0-4.0-3.0-1.0"}}, {"uniqueid": "w42334182:a41844838", "current_trial": 60, "dateTime": 1664556894153, "trialdata": {"revealed_states": [], "num_clicks_accrued": [0, 0, 0, 0, 0, 0, 0, 0, 0, 0, 0, 0, 0], "stateRewards": ["", -4, 4, 24, 24, 4, -8, 48, -48, -2, -8, 24, 24], "withholdReward": true, "trial_id": "mdp_395264223239", "block": "test2", "trialIndex": 40, "score": 28.25, "costs": -0.75, "simulationMode": [null, null, null], "rewards": [-4, 4, 24], "path": ["0", "0", "1", "2", "3"], "rt": [3833, 69, 388], "actions": ["up", "up", "right"], "actionTimes": [26080, 26646, 27548], "queries": {"click": {"state": {"target": ["1", "2", "3"], "time": [23207, 24435, 25143]}, "edge": {"target": [], "time": []}}, "mouseover": {"state": {"target": ["1", "2", "3"], "time": [22974, 24226, 24958]}, "edge": {"target": [], "time": []}}, "mouseout": {"state": {"target": ["1", "2", "3", "1"], "time": [23549, 24808, 28591, 28614]}, "edge": {"target": [], "time": []}}}, "displayed_time": "30.25", "trialTime": 30712, "trial_type": "mouselab-mdp", "trial_index": 60, "time_elapsed": 1880709, "internal_node_id": "0.0-4.0-3.0-2.0"}}, {"uniqueid": "w42334182:a41844838", "current_trial": 61, "dateTime": 1664556907575, "trialdata": {"revealed_states": [], "num_clicks_accrued": [0, 0, 0, 0, 0, 0, 0, 0, 0, 0, 0, 0, 0], "stateRewards": ["", 2, -8, 48, -24, 2, 8, 24, -24, 4, -4, -48, -48], "withholdReward": true, "trial_id": "mdp_130946197263", "block": "test2", "trialIndex": 41, "score": 46.25, "costs": -0.75, "simulationMode": [null, null, null], "rewards": [2, -8, 48], "path": ["0", "0", "1", "2", "3"], "rt": [3434, 74, 330], "actions": ["up", "up", "right"], "actionTimes": [5477, 6053, 6892], "queries": {"click": {"state": {"target": ["1", "2", "3"], "time": [2942, 3750, 4465]}, "edge": {"target": [], "time": []}}, "mouseover": {"state": {"target": ["1", "2", "3", "4"], "time": [2559, 3509, 4143, 4825]}, "edge": {"target": [], "time": []}}, "mouseout": {"state": {"target": ["9", "0", "0", "1", "1", "2", "3", "4"], "time": [614, 791, 1125, 1484, 3248, 4092, 4778, 5059]}, "edge": {"target": [], "time": []}}}, "displayed_time": "10.04", "trialTime": 13236, "trial_type": "mouselab-mdp", "trial_index": 61, "time_elapsed": 1894132, "internal_node_id": "0.0-4.0-3.0-3.0"}}, {"uniqueid": "w42334182:a41844838", "current_trial": 62, "dateTime": 1664556921609, "trialdata": {"revealed_states": [], "num_clicks_accrued": [0, 0, 0, 0, 0, 0, 0, 0, 0, 0, 0, 0, 0], "stateRewards": ["", 4, -8, 48, -24, 4, -4, -48, -48, 4, -4, 24, 24], "withholdReward": true, "trial_id": "mdp_221562928904", "block": "test2", "trialIndex": 42, "score": 48, "costs": -1, "simulationMode": [null, null, null], "rewards": [4, -8, 48], "path": ["0", "0", "1", "2", "3"], "rt": [4590, 27, 1494], "actions": ["up", "up", "right"], "actionTimes": [6046, 6592, 8608], "queries": {"click": {"state": {"target": ["1", "2", "4", "3"], "time": [2145, 2788, 3635, 4872]}, "edge": {"target": [], "time": []}}, "mouseover": {"state": {"target": ["1", "2", "4", "3"], "time": [1815, 2478, 3278, 4584]}, "edge": {"target": [], "time": []}}, "mouseout": {"state": {"target": ["2", "0", "1", "2", "4", "2", "3"], "time": [454, 1794, 2460, 3187, 4132, 4179, 5233]}, "edge": {"target": [], "time": []}}}, "displayed_time": "9.46", "trialTime": 13788, "trial_type": "mouselab-mdp", "trial_index": 62, "time_elapsed": 1908165, "internal_node_id": "0.0-4.0-3.0-4.0"}}, {"uniqueid": "w42334182:a41844838", "current_trial": 63, "dateTime": 1664556937521, "trialdata": {"revealed_states": [], "num_clicks_accrued": [0, 0, 0, 0, 0, 0, 0, 0, 0, 0, 0, 0, 0], "stateRewards": ["", 2, 8, 24, -48, 4, 8, 24, 24, 4, -8, 48, 48], "withholdReward": true, "trial_id": "mdp_646103824875", "block": "test2", "trialIndex": 43, "score": 40.25, "costs": -0.75, "simulationMode": [null, null, null], "rewards": [4, 8, 24], "path": ["0", "0", "5", "6", "7"], "rt": [3995, 116, 413], "actions": ["right", "right", "up"], "actionTimes": [5663, 6287, 7200], "queries": {"click": {"state": {"target": ["5", "6", "7"], "time": [2774, 3960, 4758]}, "edge": {"target": [], "time": []}}, "mouseover": {"state": {"target": ["5", "6", "7"], "time": [2551, 3384, 4352]}, "edge": {"target": [], "time": []}}, "mouseout": {"state": {"target": ["0", "5", "6", "7"], "time": [2433, 3150, 4336, 15458]}, "edge": {"target": [], "time": []}}}, "displayed_time": "11.67", "trialTime": 15706, "trial_type": "mouselab-mdp", "trial_index": 63, "time_elapsed": 1924078, "internal_node_id": "0.0-4.0-3.0-5.0"}}, {"uniqueid": "w42334182:a41844838", "current_trial": 64, "dateTime": 1664556951125, "trialdata": {"revealed_states": [], "num_clicks_accrued": [0, 0, 0, 0, 0, 0, 0, 0, 0, 0, 0, 0, 0], "stateRewards": ["", 4, -8, 24, 48, 2, -4, 48, 48, 4, -8, 48, 48], "withholdReward": true, "trial_id": "mdp_962498334245", "block": "test2", "trialIndex": 44, "score": 50, "costs": -1, "simulationMode": [null, null, null], "rewards": [2, -4, 48], "path": ["0", "0", "5", "6", "8"], "rt": [4753, 139, 770], "actions": ["right", "right", "down"], "actionTimes": [6774, 7417, 8697], "queries": {"click": {"state": {"target": ["5", "6", "7", "8"], "time": [3443, 4181, 4951, 5745]}, "edge": {"target": [], "time": []}}, "mouseover": {"state": {"target": ["1", "1", "5", "6", "7", "8"], "time": [2532, 2790, 3175, 3841, 4641, 5358]}, "edge": {"target": [], "time": []}}, "mouseout": {"state": {"target": ["0", "1", "1", "5", "6", "7", "6"], "time": [2331, 2624, 2892, 3815, 4532, 5249, 5308]}, "edge": {"target": [], "time": []}}}, "displayed_time": "11.02", "trialTime": 13333, "trial_type": "mouselab-mdp", "trial_index": 64, "time_elapsed": 1937681, "internal_node_id": "0.0-4.0-3.0-6.0"}}, {"uniqueid": "w42334182:a41844838", "current_trial": 65, "dateTime": 1664556987565, "trialdata": {"revealed_states": [], "num_clicks_accrued": [0, 0, 0, 0, 0, 0, 0, 0, 0, 0, 0, 0, 0], "stateRewards": ["", 2, -8, -24, -48, -2, -4, 48, 48, 4, 8, 48, 48], "withholdReward": false, "trial_id": "mdp_347285045422", "block": "test2", "trialIndex": 45, "score": 46, "costs": -1, "simulationMode": [null, null, null], "rewards": [-2, -4, 48], "path": ["0", "0", "5", "6", "7"], "rt": [21872, 6, 636], "actions": ["right", "right", "up"], "actionTimes": [32321, 32840, 34005], "queries": {"click": {"state": {"target": ["5", "6", "8", "7"], "time": [27492, 28316, 29568, 30607]}, "edge": {"target": [], "time": []}}, "mouseover": {"state": {"target": ["5", "5", "6", "8", "7", "7"], "time": [26631, 27115, 27931, 29232, 29932, 30254]}, "edge": {"target": [], "time": []}}, "mouseout": {"state": {"target": ["8", "0", "0", "5", "5", "6", "8", "6", "7", "7"], "time": [9631, 9731, 26548, 26714, 27872, 29081, 29893, 29915, 29965, 35452]}, "edge": {"target": [], "time": []}}}, "displayed_time": "34.50", "trialTime": 36229, "trial_type": "mouselab-mdp", "trial_index": 65, "time_elapsed": 1974121, "internal_node_id": "0.0-4.0-3.0-7.0"}}, {"uniqueid": "w42334182:a41844838", "current_trial": 66, "dateTime": 1664557007457, "trialdata": {"revealed_states": [], "num_clicks_accrued": [0, 0, 0, 0, 0, 0, 0, 0, 0, 0, 0, 0, 0], "stateRewards": ["", 2, -4, 48, 24, 2, 8, 24, 24, -2, 4, 24, 24], "withholdReward": true, "trial_id": "mdp_813974524300", "block": "test2", "trialIndex": 46, "score": 38, "costs": -1, "simulationMode": [null, null, null], "rewards": [2, 8, 24], "path": ["0", "0", "5", "6", "8"], "rt": [11392, 49, 620], "actions": ["right", "right", "down"], "actionTimes": [15819, 16382, 17518], "queries": {"click": {"state": {"target": ["5", "6", "8", "7"], "time": [11790, 12511, 13519, 14829]}, "edge": {"target": [], "time": []}}, "mouseover": {"state": {"target": ["5", "6", "8", "8", "7"], "time": [11313, 12085, 12891, 13211, 14512]}, "edge": {"target": [], "time": []}}, "mouseout": {"state": {"target": ["0", "5", "6", "8", "8", "6"], "time": [1161, 12068, 12869, 12903, 14253, 14312]}, "edge": {"target": [], "time": []}}}, "displayed_time": "18.03", "trialTime": 19669, "trial_type": "mouselab-mdp", "trial_index": 66, "time_elapsed": 1994014, "internal_node_id": "0.0-4.0-3.0-8.0"}}, {"uniqueid": "w42334182:a41844838", "current_trial": 67, "dateTime": 1664557040494, "trialdata": {"revealed_states": [], "num_clicks_accrued": [0, 0, 0, 0, 0, 0, 0, 0, 0, 0, 0, 0, 0], "stateRewards": ["", -4, 8, -48, -48, -2, -8, -24, -48, 2, -4, -48, 24], "withholdReward": false, "trial_id": "mdp_743906784415", "block": "test2", "trialIndex": 47, "score": 24, "costs": -3, "simulationMode": [null, null, null], "rewards": [2, -4, 24], "path": ["0", "0", "9", "10", "12"], "rt": [27743, 33, 1086], "actions": ["left", "left", "down"], "actionTimes": [29275, 29822, 31425], "queries": {"click": {"state": {"target": ["1", "2", "3", "4", "5", "6", "7", "8", "9", "10", "11", "12"], "time": [16564, 17517, 18229, 19162, 20342, 21007, 22301, 23204, 24808, 25498, 26319, 27596]}, "edge": {"target": [], "time": []}}, "mouseover": {"state": {"target": ["1", "1", "1", "2", "3", "4", "5", "6", "7", "8", "9", "9", "10", "11", "12", "12"], "time": [15503, 15837, 16309, 17189, 17904, 18787, 20105, 20720, 22024, 22653, 23837, 24542, 25072, 25838, 26874, 27154]}, "edge": {"target": [], "time": []}}, "mouseout": {"state": {"target": ["7", "5", "1", "1", "1", "2", "3", "4", "5", "6", "7", "6", "8", "9", "9", "10", "11", "12"], "time": [603, 703, 15637, 15870, 16865, 17857, 18730, 19661, 20675, 21328, 22587, 22621, 23513, 23938, 25055, 25823, 26835, 26970]}, "edge": {"target": [], "time": []}}}, "displayed_time": "31.94", "trialTime": 32829, "trial_type": "mouselab-mdp", "trial_index": 67, "time_elapsed": 2027050, "internal_node_id": "0.0-4.0-3.0-9.0"}}, {"uniqueid": "w42334182:a41844838", "current_trial": 68, "dateTime": 1664557064224, "trialdata": {"revealed_states": [], "num_clicks_accrued": [0, 0, 0, 0, 0, 0, 0, 0, 0, 0, 0, 0, 0], "stateRewards": ["", -2, 4, -24, 48, 4, -8, 48, -48, 2, -8, 48, 24], "withholdReward": true, "trial_id": "mdp_501111216502", "block": "test2", "trialIndex": 48, "score": 54, "costs": -1, "simulationMode": [null, null, null], "rewards": [-2, 4, 48], "path": ["0", "0", "1", "2", "4"], "rt": [7801, 95, 120], "actions": ["up", "up", "left"], "actionTimes": [20913, 21523, 22162], "queries": {"click": {"state": {"target": ["1", "2", "3", "4"], "time": [16939, 17832, 18704, 19771]}, "edge": {"target": [], "time": []}}, "mouseover": {"state": {"target": ["1", "2", "3", "4"], "time": [16506, 17489, 18440, 19490]}, "edge": {"target": [], "time": []}}, "mouseout": {"state": {"target": ["12", "7", "0", "1", "2", "3", "1"], "time": [11548, 11839, 15973, 17432, 18307, 19156, 19207]}, "edge": {"target": [], "time": []}}}, "displayed_time": "22.66", "trialTime": 23445, "trial_type": "mouselab-mdp", "trial_index": 68, "time_elapsed": 2050781, "internal_node_id": "0.0-4.0-3.0-10.0"}}, {"uniqueid": "w42334182:a41844838", "current_trial": 69, "dateTime": 1664557093565, "trialdata": {"revealed_states": [], "num_clicks_accrued": [0, 0, 0, 0, 0, 0, 0, 0, 0, 0, 0, 0, 0], "stateRewards": ["", 4, -4, 48, -48, -4, -4, 48, -48, 4, 4, -48, -24], "withholdReward": true, "trial_id": "mdp_490058671112", "block": "test2", "trialIndex": 49, "score": 52, "costs": -1, "simulationMode": [null, null, null], "rewards": [4, -4, 48], "path": ["0", "0", "1", "2", "3"], "rt": [4137, 104, 440], "actions": ["up", "up", "right"], "actionTimes": [7561, 8184, 9148], "queries": {"click": {"state": {"target": ["1", "2", "4", "3"], "time": [4169, 4962, 5691, 6475]}, "edge": {"target": [], "time": []}}, "mouseover": {"state": {"target": ["1", "2", "4", "3"], "time": [3843, 4742, 5510, 6143]}, "edge": {"target": [], "time": []}}, "mouseout": {"state": {"target": ["4", "0", "1", "2", "4", "3", "0"], "time": [2712, 3744, 4628, 5316, 6084, 6927, 28695]}, "edge": {"target": [], "time": []}}}, "displayed_time": "12.43", "trialTime": 29090, "trial_type": "mouselab-mdp", "trial_index": 69, "time_elapsed": 2080122, "internal_node_id": "0.0-4.0-3.0-11.0"}}, {"uniqueid": "w42334182:a41844838", "current_trial": 70, "dateTime": 1664557106997, "trialdata": {"revealed_states": [], "num_clicks_accrued": [0, 0, 0, 0, 0, 0, 0, 0, 0, 0, 0, 0, 0], "stateRewards": ["", 4, 4, 24, -24, -4, -8, 48, -24, 4, 4, 48, 24], "withholdReward": true, "trial_id": "mdp_822446942217", "block": "test2", "trialIndex": 50, "score": 35.25, "costs": -1.75, "simulationMode": [null, null, null], "rewards": [4, 4, 24], "path": ["0", "0", "1", "2", "3"], "rt": [9153, 101, 208], "actions": ["up", "up", "right"], "actionTimes": [10383, 11006, 11729], "queries": {"click": {"state": {"target": ["5", "6", "7", "1", "2", "4", "3"], "time": [2405, 3090, 3770, 4863, 5641, 6539, 7835]}, "edge": {"target": [], "time": []}}, "mouseover": {"state": {"target": ["1", "5", "6", "7", "1", "2", "4", "3"], "time": [1852, 2135, 2770, 3535, 4568, 5385, 6269, 7053]}, "edge": {"target": [], "time": []}}, "mouseout": {"state": {"target": ["0", "1", "5", "6", "7", "1", "2", "4"], "time": [1587, 1951, 2718, 3402, 4195, 5244, 6007, 7020]}, "edge": {"target": [], "time": []}}}, "displayed_time": "12.24", "trialTime": 13229, "trial_type": "mouselab-mdp", "trial_index": 70, "time_elapsed": 2093554, "internal_node_id": "0.0-4.0-3.0-12.0"}}, {"uniqueid": "w42334182:a41844838", "current_trial": 71, "dateTime": 1664557139936, "trialdata": {"revealed_states": [], "num_clicks_accrued": [0, 0, 0, 0, 0, 0, 0, 0, 0, 0, 0, 0, 0], "stateRewards": ["", -2, -8, -24, -24, 4, -4, -48, 48, 2, 8, 48, -48], "withholdReward": false, "trial_id": "mdp_498095124548", "block": "test2", "trialIndex": 51, "score": 61.5, "costs": -1.5, "simulationMode": [null, null, null], "rewards": [2, 8, 48], "path": ["0", "0", "9", "10", "11"], "rt": [13930, 22, 602], "actions": ["left", "left", "up"], "actionTimes": [29683, 30221, 31351], "queries": {"click": {"state": {"target": ["1", "2", "4", "9", "10", "11"], "time": [23438, 24876, 26191, 26947, 27857, 28656]}, "edge": {"target": [], "time": []}}, "mouseover": {"state": {"target": ["1", "2", "2", "4", "4", "9", "10", "11"], "time": [23115, 23864, 24563, 25237, 25951, 26632, 27319, 28331]}, "edge": {"target": [], "time": []}}, "mouseout": {"state": {"target": ["3", "1", "2", "2", "4", "4", "9", "10", "11"], "time": [14902, 23837, 24031, 25233, 25364, 26488, 27307, 28297, 29083]}, "edge": {"target": [], "time": []}}}, "displayed_time": "31.85", "trialTime": 32645, "trial_type": "mouselab-mdp", "trial_index": 71, "time_elapsed": 2126492, "internal_node_id": "0.0-4.0-3.0-13.0"}}, {"uniqueid": "w42334182:a41844838", "current_trial": 72, "dateTime": 1664557172433, "trialdata": {"revealed_states": [], "num_clicks_accrued": [0, 0, 0, 0, 0, 0, 0, 0, 0, 0, 0, 0, 0], "stateRewards": ["", 2, 4, 48, -48, 2, -4, 48, 24, -2, -8, -24, 48], "withholdReward": false, "trial_id": "mdp_962424406744", "block": "test2", "trialIndex": 52, "score": 58, "costs": -1, "simulationMode": [null, null, null], "rewards": [2, 4, 48], "path": ["0", "0", "1", "2", "3"], "rt": [15106, 130, 518], "actions": ["up", "up", "right"], "actionTimes": [28947, 29579, 30657], "queries": {"click": {"state": {"target": ["1", "2", "4", "3"], "time": [25461, 26132, 26845, 28102]}, "edge": {"target": [], "time": []}}, "mouseover": {"state": {"target": ["2", "1", "2", "4", "3"], "time": [24729, 25179, 25895, 26536, 27429]}, "edge": {"target": [], "time": []}}, "mouseout": {"state": {"target": ["0", "2", "1", "2", "4", "2"], "time": [24688, 24996, 25801, 26503, 27393, 27412]}, "edge": {"target": [], "time": []}}}, "displayed_time": "31.16", "trialTime": 32256, "trial_type": "mouselab-mdp", "trial_index": 72, "time_elapsed": 2158989, "internal_node_id": "0.0-4.0-3.0-14.0"}}, {"uniqueid": "w42334182:a41844838", "current_trial": 73, "dateTime": 1664557182679, "trialdata": {"revealed_states": [], "num_clicks_accrued": [0, 0, 0, 0, 0, 0, 0, 0, 0, 0, 0, 0, 0], "stateRewards": ["", -4, 4, -24, 24, 2, 4, -24, 48, -4, 8, -48, 48], "withholdReward": true, "trial_id": "mdp_422109108860", "block": "test2", "trialIndex": 53, "score": 58, "costs": -1, "simulationMode": [null, null, null], "rewards": [2, 4, 48], "path": ["0", "0", "5", "6", "8"], "rt": [4720, 70, 419], "actions": ["right", "right", "down"], "actionTimes": [6046, 6637, 7570], "queries": {"click": {"state": {"target": ["5", "6", "7", "8"], "time": [2416, 3660, 4381, 5192]}, "edge": {"target": [], "time": []}}, "mouseover": {"state": {"target": ["1", "5", "6", "7", "8"], "time": [1794, 2035, 3429, 4040, 4931]}, "edge": {"target": [], "time": []}}, "mouseout": {"state": {"target": ["3", "1", "0", "1", "5", "6", "7", "6"], "time": [604, 798, 1657, 1972, 2766, 4020, 4724, 4798]}, "edge": {"target": [], "time": []}}}, "displayed_time": "9.33", "trialTime": 10055, "trial_type": "mouselab-mdp", "trial_index": 73, "time_elapsed": 2169235, "internal_node_id": "0.0-4.0-3.0-15.0"}}, {"uniqueid": "w42334182:a41844838", "current_trial": 74, "dateTime": 1664557216392, "trialdata": {"revealed_states": [], "num_clicks_accrued": [0, 0, 0, 0, 0, 0, 0, 0, 0, 0, 0, 0, 0], "stateRewards": ["", 4, 4, 48, -48, -2, -8, -48, -24, 2, 4, -24, -48], "withholdReward": true, "trial_id": "mdp_239929662917", "block": "test2", "trialIndex": 54, "score": 58.5, "costs": -2.5, "simulationMode": [null, null, null], "rewards": [4, 4, 48], "path": ["0", "0", "1", "2", "3"], "rt": [12544, 89, 243], "actions": ["up", "up", "right"], "actionTimes": [28842, 29427, 30177], "queries": {"click": {"state": {"target": ["9", "10", "11", "12", "5", "6", "7", "1", "2", "3"], "time": [20600, 21348, 22132, 23128, 24339, 25031, 25828, 26507, 27326, 27978]}, "edge": {"target": [], "time": []}}, "mouseover": {"state": {"target": ["9", "10", "11", "12", "1", "5", "6", "7", "1", "2", "3"], "time": [20366, 20966, 21749, 22882, 23666, 23949, 24644, 25466, 26200, 27050, 27652]}, "edge": {"target": [], "time": []}}, "mouseout": {"state": {"target": ["8", "0", "9", "10", "11", "10", "12", "1", "5", "6", "7", "1", "2"], "time": [15437, 20199, 20949, 21666, 22651, 22732, 23632, 23700, 24623, 25382, 26133, 26800, 27640]}, "edge": {"target": [], "time": []}}}, "displayed_time": "30.70", "trialTime": 33502, "trial_type": "mouselab-mdp", "trial_index": 74, "time_elapsed": 2202949, "internal_node_id": "0.0-4.0-3.0-16.0"}}, {"uniqueid": "w42334182:a41844838", "current_trial": 75, "dateTime": 1664557234221, "trialdata": {"revealed_states": [], "num_clicks_accrued": [0, 0, 0, 0, 0, 0, 0, 0, 0, 0, 0, 0, 0], "stateRewards": ["", 4, 8, 48, -48, -4, 8, -24, -24, -4, 8, 48, 48], "withholdReward": true, "trial_id": "mdp_377640328420", "block": "test2", "trialIndex": 55, "score": 64, "costs": -1, "simulationMode": [null, null, null], "rewards": [4, 8, 48], "path": ["0", "0", "1", "2", "3"], "rt": [4407, 124, 280], "actions": ["up", "up", "right"], "actionTimes": [9294, 9919, 10738], "queries": {"click": {"state": {"target": ["1", "2", "4", "3"], "time": [5997, 6625, 7571, 8590]}, "edge": {"target": [], "time": []}}, "mouseover": {"state": {"target": ["1", "1", "2", "4", "3"], "time": [5377, 5743, 6327, 7326, 8343]}, "edge": {"target": [], "time": []}}, "mouseout": {"state": {"target": ["3", "1", "0", "1", "1", "2", "4", "2"], "time": [4151, 4325, 5360, 5492, 6310, 7076, 8066, 8193]}, "edge": {"target": [], "time": []}}}, "displayed_time": "12.90", "trialTime": 17624, "trial_type": "mouselab-mdp", "trial_index": 75, "time_elapsed": 2220778, "internal_node_id": "0.0-4.0-3.0-17.0"}}, {"uniqueid": "w42334182:a41844838", "current_trial": 76, "dateTime": 1664557257423, "trialdata": {"revealed_states": [], "num_clicks_accrued": [0, 0, 0, 0, 0, 0, 0, 0, 0, 0, 0, 0, 0], "stateRewards": ["", -4, 4, 24, 24, -2, 8, 24, -48, 4, -8, -24, -48], "withholdReward": false, "trial_id": "mdp_651542905861", "block": "test2", "trialIndex": 56, "score": 28, "costs": -1, "simulationMode": [null, null, null], "rewards": [-4, 4, 24], "path": ["0", "0", "1", "2", "3"], "rt": [5048, 71, 243], "actions": ["up", "up", "right"], "actionTimes": [9809, 10394, 11169], "queries": {"click": {"state": {"target": ["1", "2", "3", "4"], "time": [6235, 6948, 7655, 8594]}, "edge": {"target": [], "time": []}}, "mouseover": {"state": {"target": ["1", "2", "3", "4"], "time": [5987, 6601, 7320, 8237]}, "edge": {"target": [], "time": []}}, "mouseout": {"state": {"target": ["3", "9", "0", "1", "2", "3", "2"], "time": [3596, 3653, 5596, 6594, 7291, 8054, 8136]}, "edge": {"target": [], "time": []}}}, "displayed_time": "12.76", "trialTime": 22985, "trial_type": "mouselab-mdp", "trial_index": 76, "time_elapsed": 2243979, "internal_node_id": "0.0-4.0-3.0-18.0"}}, {"uniqueid": "w42334182:a41844838", "current_trial": 77, "dateTime": 1664557275476, "trialdata": {"revealed_states": [], "num_clicks_accrued": [0, 0, 0, 0, 0, 0, 0, 0, 0, 0, 0, 0, 0], "stateRewards": ["", 2, 4, -48, 48, -4, 8, -48, -24, -4, -4, 48, 48], "withholdReward": false, "trial_id": "mdp_613582696541", "block": "test2", "trialIndex": 57, "score": 57, "costs": -2, "simulationMode": [null, null, null], "rewards": [2, 4, 48], "path": ["0", "0", "1", "2", "4"], "rt": [11517, 110, 281], "actions": ["up", "up", "left"], "actionTimes": [15168, 15793, 16565], "queries": {"click": {"state": {"target": ["5", "6", "7", "8", "1", "2", "3", "4"], "time": [4999, 5838, 6935, 8263, 10905, 11633, 12848, 14042]}, "edge": {"target": [], "time": []}}, "mouseover": {"state": {"target": ["5", "6", "7", "8", "8", "1", "2", "3", "4"], "time": [4630, 5514, 6631, 7549, 7897, 10648, 11314, 12281, 13781]}, "edge": {"target": [], "time": []}}, "mouseout": {"state": {"target": ["4", "9", "0", "5", "6", "7", "8", "8", "5", "1", "2", "3", "2", "4"], "time": [2790, 2881, 3264, 5470, 6405, 7515, 7597, 10348, 10397, 11258, 12248, 13498, 13730, 14654]}, "edge": {"target": [], "time": []}}}, "displayed_time": "17.07", "trialTime": 17833, "trial_type": "mouselab-mdp", "trial_index": 77, "time_elapsed": 2262033, "internal_node_id": "0.0-4.0-3.0-19.0"}}, {"uniqueid": "w42334182:a41844838", "current_trial": 78, "dateTime": 1664557301034, "trialdata": {"revealed_states": [], "num_clicks_accrued": [0, 0, 0, 0, 0, 0, 0, 0, 0, 0, 0, 0, 0], "stateRewards": ["", -2, -4, -24, -48, -4, -8, -48, 24, -4, -8, -24, -48], "withholdReward": true, "trial_id": "mdp_475782454549", "block": "test2", "trialIndex": 58, "score": 14, "costs": -3, "simulationMode": [null, null, null], "rewards": [-4, -8, 24], "path": ["0", "0", "5", "6", "8"], "rt": [13768, 99, 277], "actions": ["right", "right", "down"], "actionTimes": [22755, 23372, 24149], "queries": {"click": {"state": {"target": ["9", "10", "11", "5", "6", "7", "8", "12", "2", "1", "3", "4"], "time": [10289, 10960, 11610, 12493, 14513, 15129, 15862, 16838, 17926, 19345, 20432, 21573]}, "edge": {"target": [], "time": []}}, "mouseover": {"state": {"target": ["1", "9", "10", "11", "5", "6", "6", "7", "8", "12", "2", "1", "1", "3", "4"], "time": [9620, 10004, 10636, 11229, 12220, 13236, 14288, 14856, 15620, 16620, 17604, 18187, 18804, 20170, 21309]}, "edge": {"target": [], "time": []}}, "mouseout": {"state": {"target": ["0", "1", "9", "10", "11", "5", "6", "6", "7", "6", "8", "12", "10", "2", "1", "1", "3", "2", "4", "7"], "time": [9518, 9853, 10604, 11215, 11914, 13021, 13653, 14824, 15446, 15503, 16159, 17270, 17288, 18171, 18223, 19654, 20858, 20904, 21870, 21987]}, "edge": {"target": [], "time": []}}}, "displayed_time": "24.64", "trialTime": 25345, "trial_type": "mouselab-mdp", "trial_index": 78, "time_elapsed": 2287590, "internal_node_id": "0.0-4.0-3.0-20.0"}}, {"uniqueid": "w42334182:a41844838", "current_trial": 79, "dateTime": 1664557328715, "trialdata": {"revealed_states": [], "num_clicks_accrued": [0, 0, 0, 0, 0, 0, 0, 0, 0, 0, 0, 0, 0], "stateRewards": ["", -2, -4, -48, 48, -2, -4, 24, 48, -4, -8, -24, 24], "withholdReward": true, "trial_id": "mdp_917590390609", "block": "test2", "trialIndex": 59, "score": 45.5, "costs": -1.5, "simulationMode": [null, null, null], "rewards": [-2, -4, 48], "path": ["0", "0", "5", "6", "8"], "rt": [11445, 161, 543], "actions": ["right", "right", "down"], "actionTimes": [23948, 24608, 25672], "queries": {"click": {"state": {"target": ["5", "6", "8", "7", "1", "2"], "time": [13483, 14175, 14825, 15551, 17219, 17904]}, "edge": {"target": [], "time": []}}, "mouseover": {"state": {"target": ["5", "6", "8", "7", "1", "2"], "time": [13228, 13845, 14517, 15112, 16877, 17579]}, "edge": {"target": [], "time": []}}, "mouseout": {"state": {"target": ["5", "0", "5", "6", "8", "6", "7", "1", "2"], "time": [11793, 13177, 13819, 14484, 15069, 15093, 16566, 17551, 18349]}, "edge": {"target": [], "time": []}}}, "displayed_time": "26.18", "trialTime": 27434, "trial_type": "mouselab-mdp", "trial_index": 79, "time_elapsed": 2315272, "internal_node_id": "0.0-4.0-3.0-21.0"}}, {"uniqueid": "w42334182:a41844838", "current_trial": 80, "dateTime": 1664557351506, "trialdata": {"revealed_states": [], "num_clicks_accrued": [0, 0, 0, 0, 0, 0, 0, 0, 0, 0, 0, 0, 0], "stateRewards": ["", 2, 8, -48, 24, -2, 4, 48, 48, -2, -8, 48, 24], "withholdReward": true, "trial_id": "mdp_157355418411", "block": "test2", "trialIndex": 60, "score": 54, "costs": -1, "simulationMode": [null, null, null], "rewards": [-2, 4, 48], "path": ["0", "0", "5", "6", "8"], "rt": [17295, 223, 438], "actions": ["right", "right", "down"], "actionTimes": [19205, 19938, 20887], "queries": {"click": {"state": {"target": ["5", "6", "7", "8"], "time": [16138, 16766, 17452, 18201]}, "edge": {"target": [], "time": []}}, "mouseover": {"state": {"target": ["5", "6", "7", "8"], "time": [15678, 16462, 17096, 17895]}, "edge": {"target": [], "time": []}}, "mouseout": {"state": {"target": ["6", "5", "0", "5", "6", "7", "6", "8"], "time": [1277, 1328, 15546, 16446, 17065, 17763, 17812, 18547]}, "edge": {"target": [], "time": []}}}, "displayed_time": "21.40", "trialTime": 22291, "trial_type": "mouselab-mdp", "trial_index": 80, "time_elapsed": 2338062, "internal_node_id": "0.0-4.0-3.0-22.0"}}, {"uniqueid": "w42334182:a41844838", "current_trial": 81, "dateTime": 1664557381350, "trialdata": {"revealed_states": [], "num_clicks_accrued": [0, 0, 0, 0, 0, 0, 0, 0, 0, 0, 0, 0, 0], "stateRewards": ["", -2, -4, 48, -24, 2, -4, -24, -48, 2, 8, -48, -24], "withholdReward": false, "trial_id": "mdp_238243948191", "block": "test2", "trialIndex": 61, "score": 44, "costs": -3, "simulationMode": [null, null, null], "rewards": [-2, -4, 48], "path": ["0", "0", "1", "2", "3"], "rt": [12547, 437, 566], "actions": ["up", "up", "right"], "actionTimes": [24585, 25532, 26609], "queries": {"click": {"state": {"target": ["1", "2", "3", "5", "6", "7", "8", "4", "9", "10", "11", "12"], "time": [12794, 13479, 14102, 14929, 15613, 16631, 17626, 19250, 20141, 21447, 22415, 23348]}, "edge": {"target": [], "time": []}}, "mouseover": {"state": {"target": ["1", "2", "3", "5", "6", "7", "7", "8", "8", "4", "9", "9", "10", "10", "11", "11", "12"], "time": [12558, 13059, 13810, 14674, 15341, 15936, 16350, 17001, 17342, 18974, 19658, 19893, 20428, 21229, 21715, 22094, 23058]}, "edge": {"target": [], "time": []}}, "mouseout": {"state": {"target": ["0", "1", "2", "3", "5", "6", "7", "7", "6", "8", "8", "1", "4", "9", "9", "10", "10", "11", "11", "10", "12"], "time": [12314, 13040, 13760, 14408, 15258, 15934, 15948, 16965, 16988, 17074, 18422, 18508, 19603, 19691, 20410, 20643, 21709, 21730, 22862, 23024, 29333]}, "edge": {"target": [], "time": []}}}, "displayed_time": "27.13", "trialTime": 29614, "trial_type": "mouselab-mdp", "trial_index": 81, "time_elapsed": 2367907, "internal_node_id": "0.0-4.0-3.0-23.0"}}, {"uniqueid": "w42334182:a41844838", "current_trial": 82, "dateTime": 1664557402087, "trialdata": {"revealed_states": [], "num_clicks_accrued": [0, 0, 0, 0, 0, 0, 0, 0, 0, 0, 0, 0, 0], "stateRewards": ["", -4, -8, 24, 48, 2, -4, -24, 24, -4, 8, 48, 48], "withholdReward": true, "trial_id": "mdp_496672670022", "block": "test2", "trialIndex": 62, "score": 54.75, "costs": -2.25, "simulationMode": [null, null, null], "rewards": [-4, 8, 48], "path": ["0", "0", "9", "10", "11"], "rt": [9958, 60, 83], "actions": ["left", "left", "up"], "actionTimes": [18011, 18592, 19212], "queries": {"click": {"state": {"target": ["1", "2", "5", "6", "7", "8", "9", "10", "11"], "time": [9847, 10538, 12127, 12737, 13394, 14304, 15252, 15895, 17046]}, "edge": {"target": [], "time": []}}, "mouseover": {"state": {"target": ["1", "1", "2", "3", "5", "6", "7", "8", "8", "9", "9", "10", "11"], "time": [9153, 9645, 10180, 10862, 11895, 12429, 13029, 13661, 14028, 14695, 15012, 15546, 16548]}, "edge": {"target": [], "time": []}}, "mouseout": {"state": {"target": ["9", "1", "2", "1", "0", "0", "1", "1", "2", "3", "5", "6", "7", "6", "8", "8", "9", "9", "10"], "time": [5711, 6112, 6995, 7011, 7045, 8928, 9195, 10166, 10828, 11626, 12395, 12990, 13612, 13646, 13695, 14595, 14761, 15512, 16181]}, "edge": {"target": [], "time": []}}}, "displayed_time": "19.74", "trialTime": 20520, "trial_type": "mouselab-mdp", "trial_index": 82, "time_elapsed": 2388643, "internal_node_id": "0.0-4.0-3.0-24.0"}}, {"uniqueid": "w42334182:a41844838", "current_trial": 83, "dateTime": 1664557417335, "trialdata": {"revealed_states": [], "num_clicks_accrued": [0, 0, 0, 0, 0, 0, 0, 0, 0, 0, 0, 0, 0], "stateRewards": ["", 2, 4, -24, -24, 4, 8, -48, 48, 2, 4, -24, -48], "withholdReward": true, "trial_id": "mdp_565165082781", "block": "test2", "trialIndex": 63, "score": 63, "costs": -2, "simulationMode": [null, null, null], "rewards": [4, 8, 48], "path": ["0", "0", "5", "6", "8"], "rt": [8837, 18, 928], "actions": ["right", "right", "down"], "actionTimes": [11753, 12280, 13724], "queries": {"click": {"state": {"target": ["9", "10", "11", "12", "5", "6", "7", "8"], "time": [4264, 5332, 5981, 7083, 8377, 8963, 9642, 11152]}, "edge": {"target": [], "time": []}}, "mouseover": {"state": {"target": ["9", "10", "11", "12", "5", "6", "7", "8"], "time": [3960, 5134, 5628, 6454, 8061, 8698, 9280, 10844]}, "edge": {"target": [], "time": []}}, "mouseout": {"state": {"target": ["11", "0", "9", "10", "11", "12", "5", "6", "7", "6"], "time": [2178, 3911, 4579, 5614, 6418, 7702, 8683, 9245, 10510, 10761]}, "edge": {"target": [], "time": []}}}, "displayed_time": "14.23", "trialTime": 15034, "trial_type": "mouselab-mdp", "trial_index": 83, "time_elapsed": 2403892, "internal_node_id": "0.0-4.0-3.0-25.0"}}, {"uniqueid": "w42334182:a41844838", "current_trial": 84, "dateTime": 1664557462057, "trialdata": {"revealed_states": [], "num_clicks_accrued": [0, 0, 0, 0, 0, 0, 0, 0, 0, 0, 0, 0, 0], "stateRewards": ["", 2, 8, -48, 48, -4, -8, 24, 24, -2, -8, 24, -24], "withholdReward": true, "trial_id": "mdp_910248289075", "block": "test2", "trialIndex": 64, "score": 62, "costs": -1, "simulationMode": [null, null, null], "rewards": [2, 8, 48], "path": ["0", "0", "1", "2", "4"], "rt": [4741, 228, 217], "actions": ["up", "up", "left"], "actionTimes": [40476, 41217, 41977], "queries": {"click": {"state": {"target": ["1", "2", "3", "4"], "time": [36634, 37296, 37991, 39296]}, "edge": {"target": [], "time": []}}, "mouseover": {"state": {"target": ["1", "2", "3", "4"], "time": [36135, 36970, 37685, 39001]}, "edge": {"target": [], "time": []}}, "mouseout": {"state": {"target": ["8", "0", "1", "2", "3", "2"], "time": [34956, 36106, 36945, 37640, 38561, 38617]}, "edge": {"target": [], "time": []}}}, "displayed_time": "43.74", "trialTime": 44429, "trial_type": "mouselab-mdp", "trial_index": 84, "time_elapsed": 2448614, "internal_node_id": "0.0-4.0-3.0-26.0"}}, {"uniqueid": "w42334182:a41844838", "current_trial": 85, "dateTime": 1664557482502, "trialdata": {"revealed_states": [], "num_clicks_accrued": [0, 0, 0, 0, 0, 0, 0, 0, 0, 0, 0, 0, 0], "stateRewards": ["", -4, -8, 48, 24, 4, -8, 24, -48, -2, -8, 24, -48], "withholdReward": true, "trial_id": "mdp_952038635544", "block": "test2", "trialIndex": 65, "score": 24, "costs": -1, "simulationMode": [null, null, null], "rewards": [4, -8, 24], "path": ["0", "0", "5", "6", "7"], "rt": [12026, 70, 667], "actions": ["right", "right", "up"], "actionTimes": [16999, 17588, 18767], "queries": {"click": {"state": {"target": ["5", "6", "7", "8"], "time": [12899, 14068, 14872, 15819]}, "edge": {"target": [], "time": []}}, "mouseover": {"state": {"target": ["5", "6", "6", "7", "7", "8", "8"], "time": [12466, 13282, 13794, 14350, 14598, 15198, 15486]}, "edge": {"target": [], "time": []}}, "mouseout": {"state": {"target": ["4", "1", "0", "5", "6", "6", "7", "7", "8"], "time": [4078, 4313, 12439, 13114, 13297, 14331, 14365, 15165, 15232]}, "edge": {"target": [], "time": []}}}, "displayed_time": "19.28", "trialTime": 20220, "trial_type": "mouselab-mdp", "trial_index": 85, "time_elapsed": 2469059, "internal_node_id": "0.0-4.0-3.0-27.0"}}, {"uniqueid": "w42334182:a41844838", "current_trial": 86, "dateTime": 1664557499690, "trialdata": {"revealed_states": [], "num_clicks_accrued": [0, 0, 0, 0, 0, 0, 0, 0, 0, 0, 0, 0, 0], "stateRewards": ["", -2, 4, -24, 24, -4, -8, 24, -48, -4, -4, -48, -24], "withholdReward": false, "trial_id": "mdp_753137520419", "block": "test2", "trialIndex": 66, "score": 29.75, "costs": -1.25, "simulationMode": [null, null, null], "rewards": [-2, 4, 24], "path": ["0", "0", "1", "2", "4"], "rt": [7787, 344, 528], "actions": ["up", "up", "left"], "actionTimes": [14166, 15026, 16052], "queries": {"click": {"state": {"target": ["5", "9", "1", "4", "3"], "time": [7330, 8180, 9149, 10830, 12259]}, "edge": {"target": [], "time": []}}, "mouseover": {"state": {"target": ["5", "0", "9", "1", "2", "2", "2", "4", "2", "3", "2", "3", "2"], "time": [6888, 7706, 7760, 8574, 9574, 9839, 10138, 10455, 11354, 11573, 11639, 11856, 12786]}, "edge": {"target": [], "time": []}}, "mouseout": {"state": {"target": ["8", "0", "5", "0", "9", "1", "2", "2", "2", "4", "2", "3", "2", "3"], "time": [5358, 6233, 7691, 7722, 8572, 9559, 9591, 9904, 10421, 11322, 11406, 11590, 11805, 12704]}, "edge": {"target": [], "time": []}}}, "displayed_time": "16.57", "trialTime": 16980, "trial_type": "mouselab-mdp", "trial_index": 86, "time_elapsed": 2486246, "internal_node_id": "0.0-4.0-3.0-28.0"}}, {"uniqueid": "w42334182:a41844838", "current_trial": 87, "dateTime": 1664557518632, "trialdata": {"revealed_states": [], "num_clicks_accrued": [0, 0, 0, 0, 0, 0, 0, 0, 0, 0, 0, 0, 0], "stateRewards": ["", 2, -4, -24, -24, -2, -8, -48, 24, -4, -8, 24, 24], "withholdReward": true, "trial_id": "mdp_521351546461", "block": "test2", "trialIndex": 67, "score": 15, "costs": -2, "simulationMode": [null, null, null], "rewards": [-4, -8, 24], "path": ["0", "0", "9", "10", "11"], "rt": [12631, 313, 685], "actions": ["left", "left", "up"], "actionTimes": [15802, 16631, 17820], "queries": {"click": {"state": {"target": ["11", "3", "4", "10", "9", "5", "6", "7"], "time": [4598, 7170, 8553, 9904, 10703, 11665, 12450, 13490]}, "edge": {"target": [], "time": []}}, "mouseover": {"state": {"target": ["9", "11", "9", "9", "12", "2", "3", "3", "4", "10", "9", "5", "5", "6", "7", "0", "12", "12"], "time": [3948, 4197, 5115, 5290, 5966, 6301, 6601, 6834, 8098, 9348, 10233, 11100, 11335, 12080, 12894, 14001, 14415, 14648]}, "edge": {"target": [], "time": []}}, "mouseout": {"state": {"target": ["2", "1", "0", "0", "9", "11", "9", "9", "12", "2", "3", "3", "4", "10", "9", "5", "5", "6", "7", "5", "0", "12"], "time": [1915, 2063, 2164, 3916, 3998, 4952, 5164, 5610, 6250, 6317, 6617, 8093, 9171, 10217, 11019, 11234, 12077, 12867, 13976, 13998, 14017, 14449]}, "edge": {"target": [], "time": []}}}, "displayed_time": "18.33", "trialTime": 18715, "trial_type": "mouselab-mdp", "trial_index": 87, "time_elapsed": 2505188, "internal_node_id": "0.0-4.0-3.0-29.0"}}, {"uniqueid": "w42334182:a41844838", "current_trial": 88, "dateTime": 1664557523082, "trialdata": {"rt": 4430, "stimulus": "<h1> End of block! </h1>\n\nYou have reached the end of the block 2/4. If you need a short break, feel free to take one now before moving on.\n\n<br><br>\nIn the next block, you will complete another 30 rounds of this game.\n\n<br><br>\n<div style='text-align: center;'>Press <code>space</code> to begin.</div>\n<br><br>\n<div style='text-align: center;'>(If the experiment doesn't continue, try clicking on the text and then pressing <code>space</code>.)</div>", "response": " ", "trial_id": "mdp_ready_3", "trial_type": "html-keyboard-response", "trial_index": 88, "time_elapsed": 2509639, "internal_node_id": "0.0-4.0-4.0"}}, {"uniqueid": "w42334182:a41844838", "current_trial": 89, "dateTime": 1664557537189, "trialdata": {"revealed_states": [], "num_clicks_accrued": [0, 0, 0, 0, 0, 0, 0, 0, 0, 0, 0, 0, 0], "stateRewards": ["", 2, -8, -24, 48, 4, -8, -24, -24, 2, 8, -24, 24], "withholdReward": true, "trial_id": "mdp_480787552818", "block": "test3", "trialIndex": 68, "score": 37.5, "costs": -1.5, "simulationMode": [null, null, null], "rewards": [2, 8, 24], "path": ["0", "0", "9", "10", "12"], "rt": [8970, 64, 101], "actions": ["left", "left", "down"], "actionTimes": [11703, 12278, 12880], "queries": {"click": {"state": {"target": ["9", "10", "11", "12", "5", "6"], "time": [4210, 5645, 6697, 7685, 9116, 10705]}, "edge": {"target": [], "time": []}}, "mouseover": {"state": {"target": ["9", "10", "9", "10", "10", "11", "12", "0", "5", "6", "6"], "time": [3079, 3179, 3479, 4679, 5393, 6422, 7146, 8213, 8529, 9983, 10368]}, "edge": {"target": [], "time": []}}, "mouseout": {"state": {"target": ["12", "0", "0", "9", "10", "9", "10", "10", "11", "10", "12", "0", "5", "6"], "time": [955, 1628, 3046, 3129, 3379, 4612, 4845, 5988, 7085, 7129, 8031, 8263, 9953, 10074]}, "edge": {"target": [], "time": []}}}, "displayed_time": "13.38", "trialTime": 13870, "trial_type": "mouselab-mdp", "trial_index": 89, "time_elapsed": 2523746, "internal_node_id": "0.0-4.0-5.0-0.0"}}, {"uniqueid": "w42334182:a41844838", "current_trial": 90, "dateTime": 1664557547959, "trialdata": {"revealed_states": [], "num_clicks_accrued": [0, 0, 0, 0, 0, 0, 0, 0, 0, 0, 0, 0, 0], "stateRewards": ["", -4, -8, -48, 48, -2, 8, 48, 48, -2, -4, -48, -48], "withholdReward": true, "trial_id": "mdp_752833580638", "block": "test3", "trialIndex": 69, "score": 58, "costs": -1, "simulationMode": [null, null, null], "rewards": [-2, 8, 48], "path": ["0", "0", "5", "6", "7"], "rt": [6238, 641, 143], "actions": ["right", "right", "up"], "actionTimes": [8077, 9238, 9906], "queries": {"click": {"state": {"target": ["9", "5", "6", "7"], "time": [3880, 4939, 6184, 7074]}, "edge": {"target": [], "time": []}}, "mouseover": {"state": {"target": ["9", "0", "5", "6", "7"], "time": [3512, 4247, 4313, 5915, 6663]}, "edge": {"target": [], "time": []}}, "mouseout": {"state": {"target": ["6", "5", "0", "9", "0", "5", "6"], "time": [1080, 1129, 1512, 4246, 4280, 5266, 6629]}, "edge": {"target": [], "time": []}}}, "displayed_time": "10.41", "trialTime": 10557, "trial_type": "mouselab-mdp", "trial_index": 90, "time_elapsed": 2534515, "internal_node_id": "0.0-4.0-5.0-1.0"}}, {"uniqueid": "w42334182:a41844838", "current_trial": 91, "dateTime": 1664557567516, "trialdata": {"revealed_states": [], "num_clicks_accrued": [0, 0, 0, 0, 0, 0, 0, 0, 0, 0, 0, 0, 0], "stateRewards": ["", 4, -8, -48, 48, -2, 8, -48, 48, -2, -4, 24, -48], "withholdReward": true, "trial_id": "mdp_400558136089", "block": "test3", "trialIndex": 70, "score": 47, "costs": -2, "simulationMode": [null, null, null], "rewards": [4, -8, 48], "path": ["0", "0", "1", "2", 