{"condition": 0, "counterbalance": 0, "assignmentId": "a53983017", "workerId": "w46362498", "hitId": "h18585937", "currenttrial": 959, "bonus": 0, "data": [{"uniqueid": "w46362498:a53983017", "current_trial": 0, "dateTime": 1664555047310, "trialdata": {"success": true, "trial_type": "fullscreen", "trial_index": 0, "time_elapsed": 2666, "internal_node_id": "0.0-0.0"}}, {"uniqueid": "w46362498:a53983017", "current_trial": 1, "dateTime": 1664555069221, "trialdata": {"view_history": [{"page_index": 0, "viewing_time": 21908}], "rt": 21908, "trial_id": "exp_instructions_distractor", "trial_type": "instructions", "trial_index": 1, "time_elapsed": 24577, "internal_node_id": "0.0-1.0"}}, {"uniqueid": "w46362498:a53983017", "current_trial": 2, "dateTime": 1664555085581, "trialdata": {"view_history": [{"page_index": 0, "viewing_time": 16358}], "rt": 16358, "trial_id": "color_game_instructions", "trial_type": "instructions", "trial_index": 2, "time_elapsed": 40937, "internal_node_id": "0.0-2.0"}}, {"uniqueid": "w46362498:a53983017", "current_trial": 3, "dateTime": 1664555087315, "trialdata": {"rt": 1733, "stimulus": "<h1> Get ready to start the game! </h1>\n\nThank you for reading the instructions. Get ready start with the first of 5 block(s) of this game.\n<br><br>\nIn this first block, you will complete 90 rounds of this game before moving on.\n<br><br>\nRemember, the better you perform, the bigger your bonus will be!\n<br><br>\n<div style='text-align: center;'>Press <code>space</code> to begin.</div>", "response": " ", "trial_id": "stroop_1_ready_1", "trial_type": "html-keyboard-response", "trial_index": 3, "time_elapsed": 42671, "internal_node_id": "0.0-3.0"}}, {"uniqueid": "w46362498:a53983017", "current_trial": 4, "dateTime": 1664555088723, "trialdata": {"rt": 1402, "stimulus": "<p id='stroop-text' class='stroop-yellow'>YELLOW</p>", "response": "y", "stimulus-type": "congruent", "word": "yellow", "color": "yellow", "correct_response": "y", "trial_id": "stroop-trial-1-congruent-24", "trial_type": "html-keyboard-response", "trial_index": 4, "time_elapsed": 44078, "internal_node_id": "0.0-4.0-0.0"}}, {"uniqueid": "w46362498:a53983017", "current_trial": 5, "dateTime": 1664555090675, "trialdata": {"rt": 1448, "stimulus": "<p id='stroop-text' class='stroop-blue'>DOG</p>", "response": "b", "stimulus-type": "unrelated", "word": "DOG", "color": "blue", "correct_response": "b", "trial_id": "stroop-trial-1-unrelated-24", "trial_type": "html-keyboard-response", "trial_index": 5, "time_elapsed": 46031, "internal_node_id": "0.0-4.0-1.0"}}, {"uniqueid": "w46362498:a53983017", "current_trial": 6, "dateTime": 1664555092708, "trialdata": {"rt": 1526, "stimulus": "<p id='stroop-text' class='stroop-red'>WINDOW</p>", "response": "r", "stimulus-type": "unrelated", "word": "WINDOW", "color": "red", "correct_response": "r", "trial_id": "stroop-trial-1-unrelated-10", "trial_type": "html-keyboard-response", "trial_index": 6, "time_elapsed": 48063, "internal_node_id": "0.0-4.0-2.0"}}, {"uniqueid": "w46362498:a53983017", "current_trial": 7, "dateTime": 1664555094258, "trialdata": {"rt": 1047, "stimulus": "<p id='stroop-text' class='stroop-blue'>BLUE</p>", "response": "b", "stimulus-type": "congruent", "word": "blue", "color": "blue", "correct_response": "b", "trial_id": "stroop-trial-1-congruent-25", "trial_type": "html-keyboard-response", "trial_index": 7, "time_elapsed": 49613, "internal_node_id": "0.0-4.0-3.0"}}, {"uniqueid": "w46362498:a53983017", "current_trial": 8, "dateTime": 1664555095942, "trialdata": {"rt": 1181, "stimulus": "<p id='stroop-text' class='stroop-green'>GREEN</p>", "response": "g", "stimulus-type": "congruent", "word": "green", "color": "green", "correct_response": "g", "trial_id": "stroop-trial-1-congruent-13", "trial_type": "html-keyboard-response", "trial_index": 8, "time_elapsed": 51298, "internal_node_id": "0.0-4.0-4.0"}}, {"uniqueid": "w46362498:a53983017", "current_trial": 9, "dateTime": 1664555097536, "trialdata": {"rt": 1092, "stimulus": "<p id='stroop-text' class='stroop-yellow'>CHAIR</p>", "response": "y", "stimulus-type": "unrelated", "word": "CHAIR", "color": "yellow", "correct_response": "y", "trial_id": "stroop-trial-1-unrelated-9", "trial_type": "html-keyboard-response", "trial_index": 9, "time_elapsed": 52892, "internal_node_id": "0.0-4.0-5.0"}}, {"uniqueid": "w46362498:a53983017", "current_trial": 10, "dateTime": 1664555099256, "trialdata": {"rt": 1217, "stimulus": "<p id='stroop-text' class='stroop-green'>GREEN</p>", "response": "g", "stimulus-type": "congruent", "word": "green", "color": "green", "correct_response": "g", "trial_id": "stroop-trial-1-congruent-7", "trial_type": "html-keyboard-response", "trial_index": 10, "time_elapsed": 54611, "internal_node_id": "0.0-4.0-6.0"}}, {"uniqueid": "w46362498:a53983017", "current_trial": 11, "dateTime": 1664555101399, "trialdata": {"rt": 1640, "stimulus": "<p id='stroop-text' class='stroop-blue'>GREEN</p>", "response": "b", "stimulus-type": "incongruent", "word": "green", "color": "blue", "correct_response": "b", "trial_id": "stroop-trial-1-incongruent-9", "trial_type": "html-keyboard-response", "trial_index": 11, "time_elapsed": 56754, "internal_node_id": "0.0-4.0-7.0"}}, {"uniqueid": "w46362498:a53983017", "current_trial": 12, "dateTime": 1664555103084, "trialdata": {"rt": 1183, "stimulus": "<p id='stroop-text' class='stroop-blue'>BRAIN</p>", "response": "b", "stimulus-type": "unrelated", "word": "BRAIN", "color": "blue", "correct_response": "b", "trial_id": "stroop-trial-1-unrelated-3", "trial_type": "html-keyboard-response", "trial_index": 12, "time_elapsed": 58439, "internal_node_id": "0.0-4.0-8.0"}}, {"uniqueid": "w46362498:a53983017", "current_trial": 13, "dateTime": 1664555104724, "trialdata": {"rt": 1136, "stimulus": "<p id='stroop-text' class='stroop-yellow'>YELLOW</p>", "response": "y", "stimulus-type": "congruent", "word": "yellow", "color": "yellow", "correct_response": "y", "trial_id": "stroop-trial-1-congruent-12", "trial_type": "html-keyboard-response", "trial_index": 13, "time_elapsed": 60079, "internal_node_id": "0.0-4.0-9.0"}}, {"uniqueid": "w46362498:a53983017", "current_trial": 14, "dateTime": 1664555106332, "trialdata": {"rt": 1104, "stimulus": "<p id='stroop-text' class='stroop-red'>SHIP</p>", "response": "r", "stimulus-type": "unrelated", "word": "SHIP", "color": "red", "correct_response": "r", "trial_id": "stroop-trial-1-unrelated-11", "trial_type": "html-keyboard-response", "trial_index": 14, "time_elapsed": 61687, "internal_node_id": "0.0-4.0-10.0"}}, {"uniqueid": "w46362498:a53983017", "current_trial": 15, "dateTime": 1664555108362, "trialdata": {"rt": 1526, "stimulus": "<p id='stroop-text' class='stroop-blue'>RED</p>", "response": "b", "stimulus-type": "incongruent", "word": "red", "color": "blue", "correct_response": "b", "trial_id": "stroop-trial-1-incongruent-19", "trial_type": "html-keyboard-response", "trial_index": 15, "time_elapsed": 63717, "internal_node_id": "0.0-4.0-11.0"}}, {"uniqueid": "w46362498:a53983017", "current_trial": 16, "dateTime": 1664555109946, "trialdata": {"rt": 1079, "stimulus": "<p id='stroop-text' class='stroop-blue'>BOTTLE</p>", "response": "b", "stimulus-type": "unrelated", "word": "BOTTLE", "color": "blue", "correct_response": "b", "trial_id": "stroop-trial-1-unrelated-15", "trial_type": "html-keyboard-response", "trial_index": 16, "time_elapsed": 65302, "internal_node_id": "0.0-4.0-12.0"}}, {"uniqueid": "w46362498:a53983017", "current_trial": 17, "dateTime": 1664555111653, "trialdata": {"rt": 1203, "stimulus": "<p id='stroop-text' class='stroop-yellow'>CHAIR</p>", "response": "y", "stimulus-type": "unrelated", "word": "CHAIR", "color": "yellow", "correct_response": "y", "trial_id": "stroop-trial-1-unrelated-7", "trial_type": "html-keyboard-response", "trial_index": 17, "time_elapsed": 67009, "internal_node_id": "0.0-4.0-13.0"}}, {"uniqueid": "w46362498:a53983017", "current_trial": 18, "dateTime": 1664555113025, "trialdata": {"rt": 868, "stimulus": "<p id='stroop-text' class='stroop-blue'>DOG</p>", "response": "b", "stimulus-type": "unrelated", "word": "DOG", "color": "blue", "correct_response": "b", "trial_id": "stroop-trial-1-unrelated-20", "trial_type": "html-keyboard-response", "trial_index": 18, "time_elapsed": 68381, "internal_node_id": "0.0-4.0-14.0"}}, {"uniqueid": "w46362498:a53983017", "current_trial": 19, "dateTime": 1664555114934, "trialdata": {"rt": 1406, "stimulus": "<p id='stroop-text' class='stroop-green'>SHIP</p>", "response": "g", "stimulus-type": "unrelated", "word": "SHIP", "color": "green", "correct_response": "g", "trial_id": "stroop-trial-1-unrelated-1", "trial_type": "html-keyboard-response", "trial_index": 19, "time_elapsed": 70290, "internal_node_id": "0.0-4.0-15.0"}}, {"uniqueid": "w46362498:a53983017", "current_trial": 20, "dateTime": 1664555117133, "trialdata": {"rt": 1696, "stimulus": "<p id='stroop-text' class='stroop-red'>RED</p>", "response": "r", "stimulus-type": "congruent", "word": "red", "color": "red", "correct_response": "r", "trial_id": "stroop-trial-1-congruent-17", "trial_type": "html-keyboard-response", "trial_index": 20, "time_elapsed": 72488, "internal_node_id": "0.0-4.0-16.0"}}, {"uniqueid": "w46362498:a53983017", "current_trial": 21, "dateTime": 1664555118794, "trialdata": {"rt": 1146, "stimulus": "<p id='stroop-text' class='stroop-blue'>FORK</p>", "response": "b", "stimulus-type": "unrelated", "word": "FORK", "color": "blue", "correct_response": "b", "trial_id": "stroop-trial-1-unrelated-18", "trial_type": "html-keyboard-response", "trial_index": 21, "time_elapsed": 74150, "internal_node_id": "0.0-4.0-17.0"}}, {"uniqueid": "w46362498:a53983017", "current_trial": 22, "dateTime": 1664555120591, "trialdata": {"rt": 1295, "stimulus": "<p id='stroop-text' class='stroop-yellow'>FORK</p>", "response": "y", "stimulus-type": "unrelated", "word": "FORK", "color": "yellow", "correct_response": "y", "trial_id": "stroop-trial-1-unrelated-27", "trial_type": "html-keyboard-response", "trial_index": 22, "time_elapsed": 75946, "internal_node_id": "0.0-4.0-18.0"}}, {"uniqueid": "w46362498:a53983017", "current_trial": 23, "dateTime": 1664555122264, "trialdata": {"rt": 1169, "stimulus": "<p id='stroop-text' class='stroop-blue'>STONE</p>", "response": "b", "stimulus-type": "unrelated", "word": "STONE", "color": "blue", "correct_response": "b", "trial_id": "stroop-trial-1-unrelated-5", "trial_type": "html-keyboard-response", "trial_index": 23, "time_elapsed": 77620, "internal_node_id": "0.0-4.0-19.0"}}, {"uniqueid": "w46362498:a53983017", "current_trial": 24, "dateTime": 1664555123971, "trialdata": {"rt": 1203, "stimulus": "<p id='stroop-text' class='stroop-red'>FORK</p>", "response": "r", "stimulus-type": "unrelated", "word": "FORK", "color": "red", "correct_response": "r", "trial_id": "stroop-trial-1-unrelated-19", "trial_type": "html-keyboard-response", "trial_index": 24, "time_elapsed": 79326, "internal_node_id": "0.0-4.0-20.0"}}, {"uniqueid": "w46362498:a53983017", "current_trial": 25, "dateTime": 1664555125959, "trialdata": {"rt": 1484, "stimulus": "<p id='stroop-text' class='stroop-yellow'>GREEN</p>", "response": "y", "stimulus-type": "incongruent", "word": "green", "color": "yellow", "correct_response": "y", "trial_id": "stroop-trial-1-incongruent-26", "trial_type": "html-keyboard-response", "trial_index": 25, "time_elapsed": 81314, "internal_node_id": "0.0-4.0-21.0"}}, {"uniqueid": "w46362498:a53983017", "current_trial": 26, "dateTime": 1664555127443, "trialdata": {"rt": 980, "stimulus": "<p id='stroop-text' class='stroop-yellow'>YELLOW</p>", "response": "y", "stimulus-type": "congruent", "word": "yellow", "color": "yellow", "correct_response": "y", "trial_id": "stroop-trial-1-congruent-3", "trial_type": "html-keyboard-response", "trial_index": 26, "time_elapsed": 82798, "internal_node_id": "0.0-4.0-22.0"}}, {"uniqueid": "w46362498:a53983017", "current_trial": 27, "dateTime": 1664555129429, "trialdata": {"rt": 1478, "stimulus": "<p id='stroop-text' class='stroop-green'>GREEN</p>", "response": "g", "stimulus-type": "congruent", "word": "green", "color": "green", "correct_response": "g", "trial_id": "stroop-trial-1-congruent-28", "trial_type": "html-keyboard-response", "trial_index": 27, "time_elapsed": 84784, "internal_node_id": "0.0-4.0-23.0"}}, {"uniqueid": "w46362498:a53983017", "current_trial": 28, "dateTime": 1664555131280, "trialdata": {"rt": 1347, "stimulus": "<p id='stroop-text' class='stroop-blue'>BLUE</p>", "response": "b", "stimulus-type": "congruent", "word": "blue", "color": "blue", "correct_response": "b", "trial_id": "stroop-trial-1-congruent-26", "trial_type": "html-keyboard-response", "trial_index": 28, "time_elapsed": 86636, "internal_node_id": "0.0-4.0-24.0"}}, {"uniqueid": "w46362498:a53983017", "current_trial": 29, "dateTime": 1664555132888, "trialdata": {"rt": 1101, "stimulus": "<p id='stroop-text' class='stroop-green'>GREEN</p>", "response": "g", "stimulus-type": "congruent", "word": "green", "color": "green", "correct_response": "g", "trial_id": "stroop-trial-1-congruent-11", "trial_type": "html-keyboard-response", "trial_index": 29, "time_elapsed": 88243, "internal_node_id": "0.0-4.0-25.0"}}, {"uniqueid": "w46362498:a53983017", "current_trial": 30, "dateTime": 1664555134525, "trialdata": {"rt": 1135, "stimulus": "<p id='stroop-text' class='stroop-green'>GREEN</p>", "response": "g", "stimulus-type": "congruent", "word": "green", "color": "green", "correct_response": "g", "trial_id": "stroop-trial-1-congruent-2", "trial_type": "html-keyboard-response", "trial_index": 30, "time_elapsed": 89881, "internal_node_id": "0.0-4.0-26.0"}}, {"uniqueid": "w46362498:a53983017", "current_trial": 31, "dateTime": 1664555136380, "trialdata": {"rt": 1351, "stimulus": "<p id='stroop-text' class='stroop-blue'>GREEN</p>", "response": "b", "stimulus-type": "incongruent", "word": "green", "color": "blue", "correct_response": "b", "trial_id": "stroop-trial-1-incongruent-27", "trial_type": "html-keyboard-response", "trial_index": 31, "time_elapsed": 91736, "internal_node_id": "0.0-4.0-27.0"}}, {"uniqueid": "w46362498:a53983017", "current_trial": 32, "dateTime": 1664555138318, "trialdata": {"rt": 1434, "stimulus": "<p id='stroop-text' class='stroop-red'>GREEN</p>", "response": "r", "stimulus-type": "incongruent", "word": "green", "color": "red", "correct_response": "r", "trial_id": "stroop-trial-1-incongruent-6", "trial_type": "html-keyboard-response", "trial_index": 32, "time_elapsed": 93674, "internal_node_id": "0.0-4.0-28.0"}}, {"uniqueid": "w46362498:a53983017", "current_trial": 33, "dateTime": 1664555140754, "trialdata": {"rt": 1934, "stimulus": "<p id='stroop-text' class='stroop-green'>CHAIR</p>", "response": "g", "stimulus-type": "unrelated", "word": "CHAIR", "color": "green", "correct_response": "g", "trial_id": "stroop-trial-1-unrelated-4", "trial_type": "html-keyboard-response", "trial_index": 33, "time_elapsed": 96110, "internal_node_id": "0.0-4.0-29.0"}}, {"uniqueid": "w46362498:a53983017", "current_trial": 34, "dateTime": 1664555142607, "trialdata": {"rt": 1346, "stimulus": "<p id='stroop-text' class='stroop-yellow'>WINDOW</p>", "response": "y", "stimulus-type": "unrelated", "word": "WINDOW", "color": "yellow", "correct_response": "y", "trial_id": "stroop-trial-1-unrelated-13", "trial_type": "html-keyboard-response", "trial_index": 34, "time_elapsed": 97962, "internal_node_id": "0.0-4.0-30.0"}}, {"uniqueid": "w46362498:a53983017", "current_trial": 35, "dateTime": 1664555145164, "trialdata": {"rt": 2053, "stimulus": "<p id='stroop-text' class='stroop-red'>RED</p>", "response": "r", "stimulus-type": "congruent", "word": "red", "color": "red", "correct_response": "r", "trial_id": "stroop-trial-1-congruent-30", "trial_type": "html-keyboard-response", "trial_index": 35, "time_elapsed": 100519, "internal_node_id": "0.0-4.0-31.0"}}, {"uniqueid": "w46362498:a53983017", "current_trial": 36, "dateTime": 1664555146981, "trialdata": {"rt": 1311, "stimulus": "<p id='stroop-text' class='stroop-blue'>YELLOW</p>", "response": "b", "stimulus-type": "incongruent", "word": "yellow", "color": "blue", "correct_response": "b", "trial_id": "stroop-trial-1-incongruent-4", "trial_type": "html-keyboard-response", "trial_index": 36, "time_elapsed": 102337, "internal_node_id": "0.0-4.0-32.0"}}, {"uniqueid": "w46362498:a53983017", "current_trial": 37, "dateTime": 1664555148834, "trialdata": {"rt": 1350, "stimulus": "<p id='stroop-text' class='stroop-red'>RED</p>", "response": "r", "stimulus-type": "congruent", "word": "red", "color": "red", "correct_response": "r", "trial_id": "stroop-trial-1-congruent-14", "trial_type": "html-keyboard-response", "trial_index": 37, "time_elapsed": 104190, "internal_node_id": "0.0-4.0-33.0"}}, {"uniqueid": "w46362498:a53983017", "current_trial": 38, "dateTime": 1664555150822, "trialdata": {"rt": 1483, "stimulus": "<p id='stroop-text' class='stroop-yellow'>RED</p>", "response": "y", "stimulus-type": "incongruent", "word": "red", "color": "yellow", "correct_response": "y", "trial_id": "stroop-trial-1-incongruent-29", "trial_type": "html-keyboard-response", "trial_index": 38, "time_elapsed": 106177, "internal_node_id": "0.0-4.0-34.0"}}, {"uniqueid": "w46362498:a53983017", "current_trial": 39, "dateTime": 1664555152773, "trialdata": {"rt": 1449, "stimulus": "<p id='stroop-text' class='stroop-blue'>BLUE</p>", "response": "b", "stimulus-type": "congruent", "word": "blue", "color": "blue", "correct_response": "b", "trial_id": "stroop-trial-1-congruent-29", "trial_type": "html-keyboard-response", "trial_index": 39, "time_elapsed": 108129, "internal_node_id": "0.0-4.0-35.0"}}, {"uniqueid": "w46362498:a53983017", "current_trial": 40, "dateTime": 1664555154381, "trialdata": {"rt": 1104, "stimulus": "<p id='stroop-text' class='stroop-yellow'>RED</p>", "response": "y", "stimulus-type": "incongruent", "word": "red", "color": "yellow", "correct_response": "y", "trial_id": "stroop-trial-1-incongruent-23", "trial_type": "html-keyboard-response", "trial_index": 40, "time_elapsed": 109737, "internal_node_id": "0.0-4.0-36.0"}}, {"uniqueid": "w46362498:a53983017", "current_trial": 41, "dateTime": 1664555156165, "trialdata": {"rt": 1279, "stimulus": "<p id='stroop-text' class='stroop-green'>BLUE</p>", "response": "g", "stimulus-type": "incongruent", "word": "blue", "color": "green", "correct_response": "g", "trial_id": "stroop-trial-1-incongruent-3", "trial_type": "html-keyboard-response", "trial_index": 41, "time_elapsed": 111521, "internal_node_id": "0.0-4.0-37.0"}}, {"uniqueid": "w46362498:a53983017", "current_trial": 42, "dateTime": 1664555158073, "trialdata": {"rt": 1402, "stimulus": "<p id='stroop-text' class='stroop-blue'>BLUE</p>", "response": "b", "stimulus-type": "congruent", "word": "blue", "color": "blue", "correct_response": "b", "trial_id": "stroop-trial-1-congruent-20", "trial_type": "html-keyboard-response", "trial_index": 42, "time_elapsed": 113429, "internal_node_id": "0.0-4.0-38.0"}}, {"uniqueid": "w46362498:a53983017", "current_trial": 43, "dateTime": 1664555159723, "trialdata": {"rt": 1141, "stimulus": "<p id='stroop-text' class='stroop-green'>RED</p>", "response": "g", "stimulus-type": "incongruent", "word": "red", "color": "green", "correct_response": "g", "trial_id": "stroop-trial-1-incongruent-14", "trial_type": "html-keyboard-response", "trial_index": 43, "time_elapsed": 115079, "internal_node_id": "0.0-4.0-39.0"}}, {"uniqueid": "w46362498:a53983017", "current_trial": 44, "dateTime": 1664555161242, "trialdata": {"rt": 1017, "stimulus": "<p id='stroop-text' class='stroop-yellow'>RED</p>", "response": "y", "stimulus-type": "incongruent", "word": "red", "color": "yellow", "correct_response": "y", "trial_id": "stroop-trial-1-incongruent-24", "trial_type": "html-keyboard-response", "trial_index": 44, "time_elapsed": 116598, "internal_node_id": "0.0-4.0-40.0"}}, {"uniqueid": "w46362498:a53983017", "current_trial": 45, "dateTime": 1664555163307, "trialdata": {"rt": 1561, "stimulus": "<p id='stroop-text' class='stroop-green'>RED</p>", "response": "g", "stimulus-type": "incongruent", "word": "red", "color": "green", "correct_response": "g", "trial_id": "stroop-trial-1-incongruent-8", "trial_type": "html-keyboard-response", "trial_index": 45, "time_elapsed": 118662, "internal_node_id": "0.0-4.0-41.0"}}, {"uniqueid": "w46362498:a53983017", "current_trial": 46, "dateTime": 1664555164947, "trialdata": {"rt": 1137, "stimulus": "<p id='stroop-text' class='stroop-yellow'>BOAT</p>", "response": "y", "stimulus-type": "unrelated", "word": "BOAT", "color": "yellow", "correct_response": "y", "trial_id": "stroop-trial-1-unrelated-21", "trial_type": "html-keyboard-response", "trial_index": 46, "time_elapsed": 120302, "internal_node_id": "0.0-4.0-42.0"}}, {"uniqueid": "w46362498:a53983017", "current_trial": 47, "dateTime": 1664555166776, "trialdata": {"rt": 1325, "stimulus": "<p id='stroop-text' class='stroop-red'>BLUE</p>", "response": "r", "stimulus-type": "incongruent", "word": "blue", "color": "red", "correct_response": "r", "trial_id": "stroop-trial-1-incongruent-11", "trial_type": "html-keyboard-response", "trial_index": 47, "time_elapsed": 122131, "internal_node_id": "0.0-4.0-43.0"}}, {"uniqueid": "w46362498:a53983017", "current_trial": 48, "dateTime": 1664555168392, "trialdata": {"rt": 1112, "stimulus": "<p id='stroop-text' class='stroop-blue'>YELLOW</p>", "response": "b", "stimulus-type": "incongruent", "word": "yellow", "color": "blue", "correct_response": "b", "trial_id": "stroop-trial-1-incongruent-20", "trial_type": "html-keyboard-response", "trial_index": 48, "time_elapsed": 123748, "internal_node_id": "0.0-4.0-44.0"}}, {"uniqueid": "w46362498:a53983017", "current_trial": 49, "dateTime": 1664555169990, "trialdata": {"rt": 1095, "stimulus": "<p id='stroop-text' class='stroop-green'>BLUE</p>", "response": "g", "stimulus-type": "incongruent", "word": "blue", "color": "green", "correct_response": "g", "trial_id": "stroop-trial-1-incongruent-30", "trial_type": "html-keyboard-response", "trial_index": 49, "time_elapsed": 125346, "internal_node_id": "0.0-4.0-45.0"}}, {"uniqueid": "w46362498:a53983017", "current_trial": 50, "dateTime": 1664555171854, "trialdata": {"rt": 1358, "stimulus": "<p id='stroop-text' class='stroop-red'>GREEN</p>", "response": "r", "stimulus-type": "incongruent", "word": "green", "color": "red", "correct_response": "r", "trial_id": "stroop-trial-1-incongruent-15", "trial_type": "html-keyboard-response", "trial_index": 50, "time_elapsed": 127210, "internal_node_id": "0.0-4.0-46.0"}}, {"uniqueid": "w46362498:a53983017", "current_trial": 51, "dateTime": 1664555173762, "trialdata": {"rt": 1404, "stimulus": "<p id='stroop-text' class='stroop-yellow'>MONKEY</p>", "response": "g", "stimulus-type": "unrelated", "word": "MONKEY", "color": "yellow", "correct_response": "y", "trial_id": "stroop-trial-1-unrelated-17", "trial_type": "html-keyboard-response", "trial_index": 51, "time_elapsed": 129117, "internal_node_id": "0.0-4.0-47.0"}}, {"uniqueid": "w46362498:a53983017", "current_trial": 52, "dateTime": 1664555176896, "trialdata": {"rt": 2631, "stimulus": "<p id='stroop-text' class='stroop-blue'>BLUE</p>", "response": "b", "stimulus-type": "congruent", "word": "blue", "color": "blue", "correct_response": "b", "trial_id": "stroop-trial-1-congruent-1", "trial_type": "html-keyboard-response", "trial_index": 52, "time_elapsed": 132252, "internal_node_id": "0.0-4.0-48.0"}}, {"uniqueid": "w46362498:a53983017", "current_trial": 53, "dateTime": 1664555178615, "trialdata": {"rt": 1216, "stimulus": "<p id='stroop-text' class='stroop-red'>BRIDGE</p>", "response": "r", "stimulus-type": "unrelated", "word": "BRIDGE", "color": "red", "correct_response": "r", "trial_id": "stroop-trial-1-unrelated-2", "trial_type": "html-keyboard-response", "trial_index": 53, "time_elapsed": 133971, "internal_node_id": "0.0-4.0-49.0"}}, {"uniqueid": "w46362498:a53983017", "current_trial": 54, "dateTime": 1664555180871, "trialdata": {"rt": 1749, "stimulus": "<p id='stroop-text' class='stroop-green'>GREEN</p>", "response": "g", "stimulus-type": "congruent", "word": "green", "color": "green", "correct_response": "g", "trial_id": "stroop-trial-1-congruent-6", "trial_type": "html-keyboard-response", "trial_index": 54, "time_elapsed": 136226, "internal_node_id": "0.0-4.0-50.0"}}, {"uniqueid": "w46362498:a53983017", "current_trial": 55, "dateTime": 1664555182354, "trialdata": {"rt": 978, "stimulus": "<p id='stroop-text' class='stroop-green'>GREEN</p>", "response": "g", "stimulus-type": "congruent", "word": "green", "color": "green", "correct_response": "g", "trial_id": "stroop-trial-1-congruent-22", "trial_type": "html-keyboard-response", "trial_index": 55, "time_elapsed": 137709, "internal_node_id": "0.0-4.0-51.0"}}, {"uniqueid": "w46362498:a53983017", "current_trial": 56, "dateTime": 1664555183929, "trialdata": {"rt": 1071, "stimulus": "<p id='stroop-text' class='stroop-blue'>MONKEY</p>", "response": "b", "stimulus-type": "unrelated", "word": "MONKEY", "color": "blue", "correct_response": "b", "trial_id": "stroop-trial-1-unrelated-14", "trial_type": "html-keyboard-response", "trial_index": 56, "time_elapsed": 139284, "internal_node_id": "0.0-4.0-52.0"}}, {"uniqueid": "w46362498:a53983017", "current_trial": 57, "dateTime": 1664555185436, "trialdata": {"rt": 1002, "stimulus": "<p id='stroop-text' class='stroop-red'>RED</p>", "response": "r", "stimulus-type": "congruent", "word": "red", "color": "red", "correct_response": "r", "trial_id": "stroop-trial-1-congruent-4", "trial_type": "html-keyboard-response", "trial_index": 57, "time_elapsed": 140791, "internal_node_id": "0.0-4.0-53.0"}}, {"uniqueid": "w46362498:a53983017", "current_trial": 58, "dateTime": 1664555187053, "trialdata": {"rt": 1111, "stimulus": "<p id='stroop-text' class='stroop-red'>YELLOW</p>", "response": "r", "stimulus-type": "incongruent", "word": "yellow", "color": "red", "correct_response": "r", "trial_id": "stroop-trial-1-incongruent-21", "trial_type": "html-keyboard-response", "trial_index": 58, "time_elapsed": 142408, "internal_node_id": "0.0-4.0-54.0"}}, {"uniqueid": "w46362498:a53983017", "current_trial": 59, "dateTime": 1664555188758, "trialdata": {"rt": 1201, "stimulus": "<p id='stroop-text' class='stroop-blue'>GREEN</p>", "response": "b", "stimulus-type": "incongruent", "word": "green", "color": "blue", "correct_response": "b", "trial_id": "stroop-trial-1-incongruent-10", "trial_type": "html-keyboard-response", "trial_index": 59, "time_elapsed": 144114, "internal_node_id": "0.0-4.0-55.0"}}, {"uniqueid": "w46362498:a53983017", "current_trial": 60, "dateTime": 1664555191026, "trialdata": {"rt": 1765, "stimulus": "<p id='stroop-text' class='stroop-red'>RED</p>", "response": "r", "stimulus-type": "congruent", "word": "red", "color": "red", "correct_response": "r", "trial_id": "stroop-trial-1-congruent-23", "trial_type": "html-keyboard-response", "trial_index": 60, "time_elapsed": 146382, "internal_node_id": "0.0-4.0-56.0"}}, {"uniqueid": "w46362498:a53983017", "current_trial": 61, "dateTime": 1664555193090, "trialdata": {"rt": 1559, "stimulus": "<p id='stroop-text' class='stroop-red'>YELLOW</p>", "response": "r", "stimulus-type": "incongruent", "word": "yellow", "color": "red", "correct_response": "r", "trial_id": "stroop-trial-1-incongruent-2", "trial_type": "html-keyboard-response", "trial_index": 61, "time_elapsed": 148445, "internal_node_id": "0.0-4.0-57.0"}}, {"uniqueid": "w46362498:a53983017", "current_trial": 62, "dateTime": 1664555194964, "trialdata": {"rt": 1370, "stimulus": "<p id='stroop-text' class='stroop-blue'>BLUE</p>", "response": "b", "stimulus-type": "congruent", "word": "blue", "color": "blue", "correct_response": "b", "trial_id": "stroop-trial-1-congruent-8", "trial_type": "html-keyboard-response", "trial_index": 62, "time_elapsed": 150320, "internal_node_id": "0.0-4.0-58.0"}}, {"uniqueid": "w46362498:a53983017", "current_trial": 63, "dateTime": 1664555196807, "trialdata": {"rt": 1338, "stimulus": "<p id='stroop-text' class='stroop-green'>YELLOW</p>", "response": "g", "stimulus-type": "incongruent", "word": "yellow", "color": "green", "correct_response": "g", "trial_id": "stroop-trial-1-incongruent-5", "trial_type": "html-keyboard-response", "trial_index": 63, "time_elapsed": 152162, "internal_node_id": "0.0-4.0-59.0"}}, {"uniqueid": "w46362498:a53983017", "current_trial": 64, "dateTime": 1664555198691, "trialdata": {"rt": 1375, "stimulus": "<p id='stroop-text' class='stroop-red'>GREEN</p>", "response": "r", "stimulus-type": "incongruent", "word": "green", "color": "red", "correct_response": "r", "trial_id": "stroop-trial-1-incongruent-25", "trial_type": "html-keyboard-response", "trial_index": 64, "time_elapsed": 154046, "internal_node_id": "0.0-4.0-60.0"}}, {"uniqueid": "w46362498:a53983017", "current_trial": 65, "dateTime": 1664555200106, "trialdata": {"rt": 910, "stimulus": "<p id='stroop-text' class='stroop-red'>BOAT</p>", "response": "r", "stimulus-type": "unrelated", "word": "BOAT", "color": "red", "correct_response": "r", "trial_id": "stroop-trial-1-unrelated-8", "trial_type": "html-keyboard-response", "trial_index": 65, "time_elapsed": 155462, "internal_node_id": "0.0-4.0-61.0"}}, {"uniqueid": "w46362498:a53983017", "current_trial": 66, "dateTime": 1664555201750, "trialdata": {"rt": 1141, "stimulus": "<p id='stroop-text' class='stroop-green'>BOTTLE</p>", "response": "g", "stimulus-type": "unrelated", "word": "BOTTLE", "color": "green", "correct_response": "g", "trial_id": "stroop-trial-1-unrelated-6", "trial_type": "html-keyboard-response", "trial_index": 66, "time_elapsed": 157105, "internal_node_id": "0.0-4.0-62.0"}}, {"uniqueid": "w46362498:a53983017", "current_trial": 67, "dateTime": 1664555203010, "trialdata": {"rt": 756, "stimulus": "<p id='stroop-text' class='stroop-green'>BOTTLE</p>", "response": "g", "stimulus-type": "unrelated", "word": "BOTTLE", "color": "green", "correct_response": "g", "trial_id": "stroop-trial-1-unrelated-30", "trial_type": "html-keyboard-response", "trial_index": 67, "time_elapsed": 158366, "internal_node_id": "0.0-4.0-63.0"}}, {"uniqueid": "w46362498:a53983017", "current_trial": 68, "dateTime": 1664555204917, "trialdata": {"rt": 1405, "stimulus": "<p id='stroop-text' class='stroop-blue'>BLUE</p>", "response": "b", "stimulus-type": "congruent", "word": "blue", "color": "blue", "correct_response": "b", "trial_id": "stroop-trial-1-congruent-18", "trial_type": "html-keyboard-response", "trial_index": 68, "time_elapsed": 160272, "internal_node_id": "0.0-4.0-64.0"}}, {"uniqueid": "w46362498:a53983017", "current_trial": 69, "dateTime": 1664555207226, "trialdata": {"rt": 1805, "stimulus": "<p id='stroop-text' class='stroop-red'>BLUE</p>", "response": "r", "stimulus-type": "incongruent", "word": "blue", "color": "red", "correct_response": "r", "trial_id": "stroop-trial-1-incongruent-22", "trial_type": "html-keyboard-response", "trial_index": 69, "time_elapsed": 162581, "internal_node_id": "0.0-4.0-65.0"}}, {"uniqueid": "w46362498:a53983017", "current_trial": 70, "dateTime": 1664555209269, "trialdata": {"rt": 1540, "stimulus": "<p id='stroop-text' class='stroop-green'>GREEN</p>", "response": "g", "stimulus-type": "congruent", "word": "green", "color": "green", "correct_response": "g", "trial_id": "stroop-trial-1-congruent-10", "trial_type": "html-keyboard-response", "trial_index": 70, "time_elapsed": 164624, "internal_node_id": "0.0-4.0-66.0"}}, {"uniqueid": "w46362498:a53983017", "current_trial": 71, "dateTime": 1664555210787, "trialdata": {"rt": 1012, "stimulus": "<p id='stroop-text' class='stroop-green'>WINDOW</p>", "response": "g", "stimulus-type": "unrelated", "word": "WINDOW", "color": "green", "correct_response": "g", "trial_id": "stroop-trial-1-unrelated-12", "trial_type": "html-keyboard-response", "trial_index": 71, "time_elapsed": 166142, "internal_node_id": "0.0-4.0-67.0"}}, {"uniqueid": "w46362498:a53983017", "current_trial": 72, "dateTime": 1664555212002, "trialdata": {"rt": 711, "stimulus": "<p id='stroop-text' class='stroop-green'>RED</p>", "response": "g", "stimulus-type": "incongruent", "word": "red", "color": "green", "correct_response": "g", "trial_id": "stroop-trial-1-incongruent-1", "trial_type": "html-keyboard-response", "trial_index": 72, "time_elapsed": 167358, "internal_node_id": "0.0-4.0-68.0"}}, {"uniqueid": "w46362498:a53983017", "current_trial": 73, "dateTime": 1664555213153, "trialdata": {"rt": 648, "stimulus": "<p id='stroop-text' class='stroop-green'>MONKEY</p>", "response": "g", "stimulus-type": "unrelated", "word": "MONKEY", "color": "green", "correct_response": "g", "trial_id": "stroop-trial-1-unrelated-29", "trial_type": "html-keyboard-response", "trial_index": 73, "time_elapsed": 168509, "internal_node_id": "0.0-4.0-69.0"}}, {"uniqueid": "w46362498:a53983017", "current_trial": 74, "dateTime": 1664555214783, "trialdata": {"rt": 1126, "stimulus": "<p id='stroop-text' class='stroop-blue'>BOTTLE</p>", "response": "b", "stimulus-type": "unrelated", "word": "BOTTLE", "color": "blue", "correct_response": "b", "trial_id": "stroop-trial-1-unrelated-16", "trial_type": "html-keyboard-response", "trial_index": 74, "time_elapsed": 170139, "internal_node_id": "0.0-4.0-70.0"}}, {"uniqueid": "w46362498:a53983017", "current_trial": 75, "dateTime": 1664555216323, "trialdata": {"rt": 1030, "stimulus": "<p id='stroop-text' class='stroop-green'>SHIP</p>", "response": "g", "stimulus-type": "unrelated", "word": "SHIP", "color": "green", "correct_response": "g", "trial_id": "stroop-trial-1-unrelated-26", "trial_type": "html-keyboard-response", "trial_index": 75, "time_elapsed": 171678, "internal_node_id": "0.0-4.0-71.0"}}, {"uniqueid": "w46362498:a53983017", "current_trial": 76, "dateTime": 1664555218230, "trialdata": {"rt": 1403, "stimulus": "<p id='stroop-text' class='stroop-red'>YELLOW</p>", "response": "r", "stimulus-type": "incongruent", "word": "yellow", "color": "red", "correct_response": "r", "trial_id": "stroop-trial-1-incongruent-7", "trial_type": "html-keyboard-response", "trial_index": 76, "time_elapsed": 173586, "internal_node_id": "0.0-4.0-72.0"}}, {"uniqueid": "w46362498:a53983017", "current_trial": 77, "dateTime": 1664555219916, "trialdata": {"rt": 1180, "stimulus": "<p id='stroop-text' class='stroop-blue'>BLUE</p>", "response": "b", "stimulus-type": "congruent", "word": "blue", "color": "blue", "correct_response": "b", "trial_id": "stroop-trial-1-congruent-9", "trial_type": "html-keyboard-response", "trial_index": 77, "time_elapsed": 175271, "internal_node_id": "0.0-4.0-73.0"}}, {"uniqueid": "w46362498:a53983017", "current_trial": 78, "dateTime": 1664555221444, "trialdata": {"rt": 1023, "stimulus": "<p id='stroop-text' class='stroop-green'>GREEN</p>", "response": "g", "stimulus-type": "congruent", "word": "green", "color": "green", "correct_response": "g", "trial_id": "stroop-trial-1-congruent-16", "trial_type": "html-keyboard-response", "trial_index": 78, "time_elapsed": 176799, "internal_node_id": "0.0-4.0-74.0"}}, {"uniqueid": "w46362498:a53983017", "current_trial": 79, "dateTime": 1664555223498, "trialdata": {"rt": 1549, "stimulus": "<p id='stroop-text' class='stroop-blue'>YELLOW</p>", "response": "b", "stimulus-type": "incongruent", "word": "yellow", "color": "blue", "correct_response": "b", "trial_id": "stroop-trial-1-incongruent-17", "trial_type": "html-keyboard-response", "trial_index": 79, "time_elapsed": 178853, "internal_node_id": "0.0-4.0-75.0"}}, {"uniqueid": "w46362498:a53983017", "current_trial": 80, "dateTime": 1664555225315, "trialdata": {"rt": 1313, "stimulus": "<p id='stroop-text' class='stroop-green'>YELLOW</p>", "response": "g", "stimulus-type": "incongruent", "word": "yellow", "color": "green", "correct_response": "g", "trial_id": "stroop-trial-1-incongruent-12", "trial_type": "html-keyboard-response", "trial_index": 80, "time_elapsed": 180670, "internal_node_id": "0.0-4.0-76.0"}}, {"uniqueid": "w46362498:a53983017", "current_trial": 81, "dateTime": 1664555226910, "trialdata": {"rt": 1089, "stimulus": "<p id='stroop-text' class='stroop-red'>GREEN</p>", "response": "r", "stimulus-type": "incongruent", "word": "green", "color": "red", "correct_response": "r", "trial_id": "stroop-trial-1-incongruent-28", "trial_type": "html-keyboard-response", "trial_index": 81, "time_elapsed": 182265, "internal_node_id": "0.0-4.0-77.0"}}, {"uniqueid": "w46362498:a53983017", "current_trial": 82, "dateTime": 1664555230411, "trialdata": {"rt": 2989, "stimulus": "<p id='stroop-text' class='stroop-blue'>YELLOW</p>", "response": "b", "stimulus-type": "incongruent", "word": "yellow", "color": "blue", "correct_response": "b", "trial_id": "stroop-trial-1-incongruent-16", "trial_type": "html-keyboard-response", "trial_index": 82, "time_elapsed": 185766, "internal_node_id": "0.0-4.0-78.0"}}, {"uniqueid": "w46362498:a53983017", "current_trial": 83, "dateTime": 1664555231906, "trialdata": {"rt": 991, "stimulus": "<p id='stroop-text' class='stroop-red'>RED</p>", "response": "r", "stimulus-type": "congruent", "word": "red", "color": "red", "correct_response": "r", "trial_id": "stroop-trial-1-congruent-27", "trial_type": "html-keyboard-response", "trial_index": 83, "time_elapsed": 187261, "internal_node_id": "0.0-4.0-79.0"}}, {"uniqueid": "w46362498:a53983017", "current_trial": 84, "dateTime": 1664555233634, "trialdata": {"rt": 1222, "stimulus": "<p id='stroop-text' class='stroop-green'>SHIP</p>", "response": "g", "stimulus-type": "unrelated", "word": "SHIP", "color": "green", "correct_response": "g", "trial_id": "stroop-trial-1-unrelated-23", "trial_type": "html-keyboard-response", "trial_index": 84, "time_elapsed": 188990, "internal_node_id": "0.0-4.0-80.0"}}, {"uniqueid": "w46362498:a53983017", "current_trial": 85, "dateTime": 1664555235341, "trialdata": {"rt": 1202, "stimulus": "<p id='stroop-text' class='stroop-yellow'>GREEN</p>", "response": "y", "stimulus-type": "incongruent", "word": "green", "color": "yellow", "correct_response": "y", "trial_id": "stroop-trial-1-incongruent-18", "trial_type": "html-keyboard-response", "trial_index": 85, "time_elapsed": 190696, "internal_node_id": "0.0-4.0-81.0"}}, {"uniqueid": "w46362498:a53983017", "current_trial": 86, "dateTime": 1664555237315, "trialdata": {"rt": 1470, "stimulus": "<p id='stroop-text' class='stroop-green'>GREEN</p>", "response": "g", "stimulus-type": "congruent", "word": "green", "color": "green", "correct_response": "g", "trial_id": "stroop-trial-1-congruent-21", "trial_type": "html-keyboard-response", "trial_index": 86, "time_elapsed": 192671, "internal_node_id": "0.0-4.0-82.0"}}, {"uniqueid": "w46362498:a53983017", "current_trial": 87, "dateTime": 1664555239481, "trialdata": {"rt": 1660, "stimulus": "<p id='stroop-text' class='stroop-blue'>MONKEY</p>", "response": "b", "stimulus-type": "unrelated", "word": "MONKEY", "color": "blue", "correct_response": "b", "trial_id": "stroop-trial-1-unrelated-28", "trial_type": "html-keyboard-response", "trial_index": 87, "time_elapsed": 194836, "internal_node_id": "0.0-4.0-83.0"}}, {"uniqueid": "w46362498:a53983017", "current_trial": 88, "dateTime": 1664555242125, "trialdata": {"rt": 2140, "stimulus": "<p id='stroop-text' class='stroop-green'>CHAIR</p>", "response": "g", "stimulus-type": "unrelated", "word": "CHAIR", "color": "green", "correct_response": "g", "trial_id": "stroop-trial-1-unrelated-22", "trial_type": "html-keyboard-response", "trial_index": 88, "time_elapsed": 197480, "internal_node_id": "0.0-4.0-84.0"}}, {"uniqueid": "w46362498:a53983017", "current_trial": 89, "dateTime": 1664555244279, "trialdata": {"rt": 1650, "stimulus": "<p id='stroop-text' class='stroop-blue'>BLUE</p>", "response": "b", "stimulus-type": "congruent", "word": "blue", "color": "blue", "correct_response": "b", "trial_id": "stroop-trial-1-congruent-19", "trial_type": "html-keyboard-response", "trial_index": 89, "time_elapsed": 199634, "internal_node_id": "0.0-4.0-85.0"}}, {"uniqueid": "w46362498:a53983017", "current_trial": 90, "dateTime": 1664555246721, "trialdata": {"rt": 1936, "stimulus": "<p id='stroop-text' class='stroop-blue'>YELLOW</p>", "response": "b", "stimulus-type": "incongruent", "word": "yellow", "color": "blue", "correct_response": "b", "trial_id": "stroop-trial-1-incongruent-13", "trial_type": "html-keyboard-response", "trial_index": 90, "time_elapsed": 202077, "internal_node_id": "0.0-4.0-86.0"}}, {"uniqueid": "w46362498:a53983017", "current_trial": 91, "dateTime": 1664555248250, "trialdata": {"rt": 1026, "stimulus": "<p id='stroop-text' class='stroop-green'>MONKEY</p>", "response": "g", "stimulus-type": "unrelated", "word": "MONKEY", "color": "green", "correct_response": "g", "trial_id": "stroop-trial-1-unrelated-25", "trial_type": "html-keyboard-response", "trial_index": 91, "time_elapsed": 203606, "internal_node_id": "0.0-4.0-87.0"}}, {"uniqueid": "w46362498:a53983017", "current_trial": 92, "dateTime": 1664555249836, "trialdata": {"rt": 1083, "stimulus": "<p id='stroop-text' class='stroop-red'>RED</p>", "response": "r", "stimulus-type": "congruent", "word": "red", "color": "red", "correct_response": "r", "trial_id": "stroop-trial-1-congruent-15", "trial_type": "html-keyboard-response", "trial_index": 92, "time_elapsed": 205192, "internal_node_id": "0.0-4.0-88.0"}}, {"uniqueid": "w46362498:a53983017", "current_trial": 93, "dateTime": 1664555252145, "trialdata": {"rt": 1806, "stimulus": "<p id='stroop-text' class='stroop-yellow'>YELLOW</p>", "response": "y", "stimulus-type": "congruent", "word": "yellow", "color": "yellow", "correct_response": "y", "trial_id": "stroop-trial-1-congruent-5", "trial_type": "html-keyboard-response", "trial_index": 93, "time_elapsed": 207500, "internal_node_id": "0.0-4.0-89.0"}}, {"uniqueid": "w46362498:a53983017", "current_trial": 94, "dateTime": 1664555280261, "trialdata": {"rt": 27609, "stimulus": "  <h1> End of block! </h1>\n\n  You have reached the end of the block 1/5. If you need a short break, feel free to take one now before moving on.\n\n  <br><br>\n  In the next block, you will complete another 90 rounds of this game.\n\n  <br><br>\n  <div style='text-align: center;'>Press <code>space</code> to begin.</div>\n  <br><br>\n<div style='text-align: center;'>(If the experiment doesn't continue, try clicking on the text and then pressing <code>space</code>.)</div>", "response": " ", "trial_id": "stroop_1_ready_2", "trial_type": "html-keyboard-response", "trial_index": 94, "time_elapsed": 235617, "internal_node_id": "0.0-5.0"}}, {"uniqueid": "w46362498:a53983017", "current_trial": 95, "dateTime": 1664555281581, "trialdata": {"rt": 1318, "stimulus": "<p id='stroop-text' class='stroop-blue'>RED</p>", "response": "b", "stimulus-type": "incongruent", "word": "red", "color": "blue", "correct_response": "b", "trial_id": "stroop-trial-1-incongruent-20", "trial_type": "html-keyboard-response", "trial_index": 95, "time_elapsed": 236936, "internal_node_id": "0.0-6.0-0.0"}}, {"uniqueid": "w46362498:a53983017", "current_trial": 96, "dateTime": 1664555282996, "trialdata": {"rt": 910, "stimulus": "<p id='stroop-text' class='stroop-blue'>GREEN</p>", "response": "b", "stimulus-type": "incongruent", "word": "green", "color": "blue", "correct_response": "b", "trial_id": "stroop-trial-1-incongruent-19", "trial_type": "html-keyboard-response", "trial_index": 96, "time_elapsed": 238351, "internal_node_id": "0.0-6.0-1.0"}}, {"uniqueid": "w46362498:a53983017", "current_trial": 97, "dateTime": 1664555284079, "trialdata": {"rt": 577, "stimulus": "<p id='stroop-text' class='stroop-blue'>RED</p>", "response": "b", "stimulus-type": "incongruent", "word": "red", "color": "blue", "correct_response": "b", "trial_id": "stroop-trial-1-incongruent-28", "trial_type": "html-keyboard-response", "trial_index": 97, "time_elapsed": 239434, "internal_node_id": "0.0-6.0-2.0"}}, {"uniqueid": "w46362498:a53983017", "current_trial": 98, "dateTime": 1664555285630, "trialdata": {"rt": 1047, "stimulus": "<p id='stroop-text' class='stroop-red'>YELLOW</p>", "response": "r", "stimulus-type": "incongruent", "word": "yellow", "color": "red", "correct_response": "r", "trial_id": "stroop-trial-1-incongruent-10", "trial_type": "html-keyboard-response", "trial_index": 98, "time_elapsed": 240986, "internal_node_id": "0.0-6.0-3.0"}}, {"uniqueid": "w46362498:a53983017", "current_trial": 99, "dateTime": 1664555287663, "trialdata": {"rt": 1529, "stimulus": "<p id='stroop-text' class='stroop-yellow'>RED</p>", "response": "y", "stimulus-type": "incongruent", "word": "red", "color": "yellow", "correct_response": "y", "trial_id": "stroop-trial-1-incongruent-5", "trial_type": "html-keyboard-response", "trial_index": 99, "time_elapsed": 243018, "internal_node_id": "0.0-6.0-4.0"}}, {"uniqueid": "w46362498:a53983017", "current_trial": 100, "dateTime": 1664555289300, "trialdata": {"rt": 1134, "stimulus": "<p id='stroop-text' class='stroop-blue'>STONE</p>", "response": "b", "stimulus-type": "unrelated", "word": "STONE", "color": "blue", "correct_response": "b", "trial_id": "stroop-trial-1-unrelated-2", "trial_type": "html-keyboard-response", "trial_index": 100, "time_elapsed": 244656, "internal_node_id": "0.0-6.0-5.0"}}, {"uniqueid": "w46362498:a53983017", "current_trial": 101, "dateTime": 1664555290615, "trialdata": {"rt": 812, "stimulus": "<p id='stroop-text' class='stroop-red'>BRIDGE</p>", "response": "r", "stimulus-type": "unrelated", "word": "BRIDGE", "color": "red", "correct_response": "r", "trial_id": "stroop-trial-1-unrelated-23", "trial_type": "html-keyboard-response", "trial_index": 101, "time_elapsed": 245971, "internal_node_id": "0.0-6.0-6.0"}}, {"uniqueid": "w46362498:a53983017", "current_trial": 102, "dateTime": 1664555292525, "trialdata": {"rt": 1407, "stimulus": "<p id='stroop-text' class='stroop-blue'>GREEN</p>", "response": "b", "stimulus-type": "incongruent", "word": "green", "color": "blue", "correct_response": "b", "trial_id": "stroop-trial-1-incongruent-21", "trial_type": "html-keyboard-response", "trial_index": 102, "time_elapsed": 247881, "internal_node_id": "0.0-6.0-7.0"}}, {"uniqueid": "w46362498:a53983017", "current_trial": 103, "dateTime": 1664555294320, "trialdata": {"rt": 1290, "stimulus": "<p id='stroop-text' class='stroop-green'>FORK</p>", "response": "g", "stimulus-type": "unrelated", "word": "FORK", "color": "green", "correct_response": "g", "trial_id": "stroop-trial-1-unrelated-18", "trial_type": "html-keyboard-response", "trial_index": 103, "time_elapsed": 249675, "internal_node_id": "0.0-6.0-8.0"}}, {"uniqueid": "w46362498:a53983017", "current_trial": 104, "dateTime": 1664555295503, "trialdata": {"rt": 678, "stimulus": "<p id='stroop-text' class='stroop-green'>BOTTLE</p>", "response": "g", "stimulus-type": "unrelated", "word": "BOTTLE", "color": "green", "correct_response": "g", "trial_id": "stroop-trial-1-unrelated-12", "trial_type": "html-keyboard-response", "trial_index": 104, "time_elapsed": 250859, "internal_node_id": "0.0-6.0-9.0"}}, {"uniqueid": "w46362498:a53983017", "current_trial": 105, "dateTime": 1664555297266, "trialdata": {"rt": 1257, "stimulus": "<p id='stroop-text' class='stroop-red'>WINDOW</p>", "response": "r", "stimulus-type": "unrelated", "word": "WINDOW", "color": "red", "correct_response": "r", "trial_id": "stroop-trial-1-unrelated-4", "trial_type": "html-keyboard-response", "trial_index": 105, "time_elapsed": 252622, "internal_node_id": "0.0-6.0-10.0"}}, {"uniqueid": "w46362498:a53983017", "current_trial": 106, "dateTime": 1664555299151, "trialdata": {"rt": 1382, "stimulus": "<p id='stroop-text' class='stroop-yellow'>YELLOW</p>", "response": "y", "stimulus-type": "congruent", "word": "yellow", "color": "yellow", "correct_response": "y", "trial_id": "stroop-trial-1-congruent-7", "trial_type": "html-keyboard-response", "trial_index": 106, "time_elapsed": 254506, "internal_node_id": "0.0-6.0-11.0"}}, {"uniqueid": "w46362498:a53983017", "current_trial": 107, "dateTime": 1664555300735, "trialdata": {"rt": 1079, "stimulus": "<p id='stroop-text' class='stroop-blue'>BLUE</p>", "response": "b", "stimulus-type": "congruent", "word": "blue", "color": "blue", "correct_response": "b", "trial_id": "stroop-trial-1-congruent-3", "trial_type": "html-keyboard-response", "trial_index": 107, "time_elapsed": 256090, "internal_node_id": "0.0-6.0-12.0"}}, {"uniqueid": "w46362498:a53983017", "current_trial": 108, "dateTime": 1664555302441, "trialdata": {"rt": 1201, "stimulus": "<p id='stroop-text' class='stroop-blue'>YELLOW</p>", "response": "b", "stimulus-type": "incongruent", "word": "yellow", "color": "blue", "correct_response": "b", "trial_id": "stroop-trial-1-incongruent-30", "trial_type": "html-keyboard-response", "trial_index": 108, "time_elapsed": 257797, "internal_node_id": "0.0-6.0-13.0"}}, {"uniqueid": "w46362498:a53983017", "current_trial": 109, "dateTime": 1664555304025, "trialdata": {"rt": 1078, "stimulus": "<p id='stroop-text' class='stroop-green'>DOG</p>", "response": "g", "stimulus-type": "unrelated", "word": "DOG", "color": "green", "correct_response": "g", "trial_id": "stroop-trial-1-unrelated-29", "trial_type": "html-keyboard-response", "trial_index": 109, "time_elapsed": 259380, "internal_node_id": "0.0-6.0-14.0"}}, {"uniqueid": "w46362498:a53983017", "current_trial": 110, "dateTime": 1664555305508, "trialdata": {"rt": 979, "stimulus": "<p id='stroop-text' class='stroop-yellow'>YELLOW</p>", "response": "y", "stimulus-type": "congruent", "word": "yellow", "color": "yellow", "correct_response": "y", "trial_id": "stroop-trial-1-congruent-5", "trial_type": "html-keyboard-response", "trial_index": 110, "time_elapsed": 260864, "internal_node_id": "0.0-6.0-15.0"}}, {"uniqueid": "w46362498:a53983017", "current_trial": 111, "dateTime": 1664555307248, "trialdata": {"rt": 1236, "stimulus": "<p id='stroop-text' class='stroop-red'>RED</p>", "response": "r", "stimulus-type": "congruent", "word": "red", "color": "red", "correct_response": "r", "trial_id": "stroop-trial-1-congruent-9", "trial_type": "html-keyboard-response", "trial_index": 111, "time_elapsed": 262603, "internal_node_id": "0.0-6.0-16.0"}}, {"uniqueid": "w46362498:a53983017", "current_trial": 112, "dateTime": 1664555308509, "trialdata": {"rt": 755, "stimulus": "<p id='stroop-text' class='stroop-red'>MONKEY</p>", "response": "r", "stimulus-type": "unrelated", "word": "MONKEY", "color": "red", "correct_response": "r", "trial_id": "stroop-trial-1-unrelated-3", "trial_type": "html-keyboard-response", "trial_index": 112, "time_elapsed": 263864, "internal_node_id": "0.0-6.0-17.0"}}, {"uniqueid": "w46362498:a53983017", "current_trial": 113, "dateTime": 1664555310338, "trialdata": {"rt": 1325, "stimulus": "<p id='stroop-text' class='stroop-green'>BLUE</p>", "response": "g", "stimulus-type": "incongruent", "word": "blue", "color": "green", "correct_response": "g", "trial_id": "stroop-trial-1-incongruent-23", "trial_type": "html-keyboard-response", "trial_index": 113, "time_elapsed": 265694, "internal_node_id": "0.0-6.0-18.0"}}, {"uniqueid": "w46362498:a53983017", "current_trial": 114, "dateTime": 1664555312079, "trialdata": {"rt": 1239, "stimulus": "<p id='stroop-text' class='stroop-yellow'>YELLOW</p>", "response": "y", "stimulus-type": "congruent", "word": "yellow", "color": "yellow", "correct_response": "y", "trial_id": "stroop-trial-1-congruent-4", "trial_type": "html-keyboard-response", "trial_index": 114, "time_elapsed": 267434, "internal_node_id": "0.0-6.0-19.0"}}, {"uniqueid": "w46362498:a53983017", "current_trial": 115, "dateTime": 1664555313518, "trialdata": {"rt": 935, "stimulus": "<p id='stroop-text' class='stroop-blue'>MONKEY</p>", "response": "b", "stimulus-type": "unrelated", "word": "MONKEY", "color": "blue", "correct_response": "b", "trial_id": "stroop-trial-1-unrelated-24", "trial_type": "html-keyboard-response", "trial_index": 115, "time_elapsed": 268874, "internal_node_id": "0.0-6.0-20.0"}}, {"uniqueid": "w46362498:a53983017", "current_trial": 116, "dateTime": 1664555314745, "trialdata": {"rt": 721, "stimulus": "<p id='stroop-text' class='stroop-red'>RED</p>", "response": "r", "stimulus-type": "congruent", "word": "red", "color": "red", "correct_response": "r", "trial_id": "stroop-trial-1-congruent-20", "trial_type": "html-keyboard-response", "trial_index": 116, "time_elapsed": 270101, "internal_node_id": "0.0-6.0-21.0"}}, {"uniqueid": "w46362498:a53983017", "current_trial": 117, "dateTime": 1664555316575, "trialdata": {"rt": 1327, "stimulus": "<p id='stroop-text' class='stroop-blue'>GREEN</p>", "response": "b", "stimulus-type": "incongruent", "word": "green", "color": "blue", "correct_response": "b", "trial_id": "stroop-trial-1-incongruent-8", "trial_type": "html-keyboard-response", "trial_index": 117, "time_elapsed": 271931, "internal_node_id": "0.0-6.0-22.0"}}, {"uniqueid": "w46362498:a53983017", "current_trial": 118, "dateTime": 1664555318493, "trialdata": {"rt": 1412, "stimulus": "<p id='stroop-text' class='stroop-blue'>RED</p>", "response": "b", "stimulus-type": "incongruent", "word": "red", "color": "blue", "correct_response": "b", "trial_id": "stroop-trial-1-incongruent-27", "trial_type": "html-keyboard-response", "trial_index": 118, "time_elapsed": 273849, "internal_node_id": "0.0-6.0-23.0"}}, {"uniqueid": "w46362498:a53983017", "current_trial": 119, "dateTime": 1664555320658, "trialdata": {"rt": 1663, "stimulus": "<p id='stroop-text' class='stroop-green'>RED</p>", "response": "g", "stimulus-type": "incongruent", "word": "red", "color": "green", "correct_response": "g", "trial_id": "stroop-trial-1-incongruent-13", "trial_type": "html-keyboard-response", "trial_index": 119, "time_elapsed": 276014, "internal_node_id": "0.0-6.0-24.0"}}, {"uniqueid": "w46362498:a53983017", "current_trial": 120, "dateTime": 1664555322031, "trialdata": {"rt": 867, "stimulus": "<p id='stroop-text' class='stroop-yellow'>YELLOW</p>", "response": "y", "stimulus-type": "congruent", "word": "yellow", "color": "yellow", "correct_response": "y", "trial_id": "stroop-trial-1-congruent-15", "trial_type": "html-keyboard-response", "trial_index": 120, "time_elapsed": 277386, "internal_node_id": "0.0-6.0-25.0"}}, {"uniqueid": "w46362498:a53983017", "current_trial": 121, "dateTime": 1664555323548, "trialdata": {"rt": 1011, "stimulus": "<p id='stroop-text' class='stroop-green'>RED</p>", "response": "g", "stimulus-type": "incongruent", "word": "red", "color": "green", "correct_response": "g", "trial_id": "stroop-trial-1-incongruent-16", "trial_type": "html-keyboard-response", "trial_index": 121, "time_elapsed": 278903, "internal_node_id": "0.0-6.0-26.0"}}, {"uniqueid": "w46362498:a53983017", "current_trial": 122, "dateTime": 1664555325164, "trialdata": {"rt": 1110, "stimulus": "<p id='stroop-text' class='stroop-red'>STONE</p>", "response": "r", "stimulus-type": "unrelated", "word": "STONE", "color": "red", "correct_response": "r", "trial_id": "stroop-trial-1-unrelated-6", "trial_type": "html-keyboard-response", "trial_index": 122, "time_elapsed": 280519, "internal_node_id": "0.0-6.0-27.0"}}, {"uniqueid": "w46362498:a53983017", "current_trial": 123, "dateTime": 1664555327117, "trialdata": {"rt": 1450, "stimulus": "<p id='stroop-text' class='stroop-blue'>WINDOW</p>", "response": "b", "stimulus-type": "unrelated", "word": "WINDOW", "color": "blue", "correct_response": "b", "trial_id": "stroop-trial-1-unrelated-13", "trial_type": "html-keyboard-response", "trial_index": 123, "time_elapsed": 282473, "internal_node_id": "0.0-6.0-28.0"}}, {"uniqueid": "w46362498:a53983017", "current_trial": 124, "dateTime": 1664555329170, "trialdata": {"rt": 1549, "stimulus": "<p id='stroop-text' class='stroop-green'>BLUE</p>", "response": "b", "stimulus-type": "incongruent", "word": "blue", "color": "green", "correct_response": "g", "trial_id": "stroop-trial-1-incongruent-24", "trial_type": "html-keyboard-response", "trial_index": 124, "time_elapsed": 284525, "internal_node_id": "0.0-6.0-29.0"}}, {"uniqueid": "w46362498:a53983017", "current_trial": 125, "dateTime": 1664555331946, "trialdata": {"rt": 2270, "stimulus": "<p id='stroop-text' class='stroop-red'>YELLOW</p>", "response": "r", "stimulus-type": "incongruent", "word": "yellow", "color": "red", "correct_response": "r", "trial_id": "stroop-trial-1-incongruent-2", "trial_type": "html-keyboard-response", "trial_index": 125, "time_elapsed": 287302, "internal_node_id": "0.0-6.0-30.0"}}, {"uniqueid": "w46362498:a53983017", "current_trial": 126, "dateTime": 1664555333319, "trialdata": {"rt": 867, "stimulus": "<p id='stroop-text' class='stroop-red'>RED</p>", "response": "r", "stimulus-type": "congruent", "word": "red", "color": "red", "correct_response": "r", "trial_id": "stroop-trial-1-congruent-26", "trial_type": "html-keyboard-response", "trial_index": 126, "time_elapsed": 288674, "internal_node_id": "0.0-6.0-31.0"}}, {"uniqueid": "w46362498:a53983017", "current_trial": 127, "dateTime": 1664555335103, "trialdata": {"rt": 1282, "stimulus": "<p id='stroop-text' class='stroop-green'>BRAIN</p>", "response": "g", "stimulus-type": "unrelated", "word": "BRAIN", "color": "green", "correct_response": "g", "trial_id": "stroop-trial-1-unrelated-16", "trial_type": "html-keyboard-response", "trial_index": 127, "time_elapsed": 290459, "internal_node_id": "0.0-6.0-32.0"}}, {"uniqueid": "w46362498:a53983017", "current_trial": 128, "dateTime": 1664555336710, "trialdata": {"rt": 1106, "stimulus": "<p id='stroop-text' class='stroop-red'>BRAIN</p>", "response": "r", "stimulus-type": "unrelated", "word": "BRAIN", "color": "red", "correct_response": "r", "trial_id": "stroop-trial-1-unrelated-8", "trial_type": "html-keyboard-response", "trial_index": 128, "time_elapsed": 292066, "internal_node_id": "0.0-6.0-33.0"}}, {"uniqueid": "w46362498:a53983017", "current_trial": 129, "dateTime": 1664555338752, "trialdata": {"rt": 1540, "stimulus": "<p id='stroop-text' class='stroop-red'>YELLOW</p>", "response": "r", "stimulus-type": "incongruent", "word": "yellow", "color": "red", "correct_response": "r", "trial_id": "stroop-trial-1-incongruent-26", "trial_type": "html-keyboard-response", "trial_index": 129, "time_elapsed": 294108, "internal_node_id": "0.0-6.0-34.0"}}, {"uniqueid": "w46362498:a53983017", "current_trial": 130, "dateTime": 1664555340247, "trialdata": {"rt": 989, "stimulus": "<p id='stroop-text' class='stroop-blue'>BOAT</p>", "response": "b", "stimulus-type": "unrelated", "word": "BOAT", "color": "blue", "correct_response": "b", "trial_id": "stroop-trial-1-unrelated-30", "trial_type": "html-keyboard-response", "trial_index": 130, "time_elapsed": 295603, "internal_node_id": "0.0-6.0-35.0"}}, {"uniqueid": "w46362498:a53983017", "current_trial": 131, "dateTime": 1664555342457, "trialdata": {"rt": 1706, "stimulus": "<p id='stroop-text' class='stroop-green'>BLUE</p>", "response": "g", "stimulus-type": "incongruent", "word": "blue", "color": "green", "correct_response": "g", "trial_id": "stroop-trial-1-incongruent-7", "trial_type": "html-keyboard-response", "trial_index": 131, "time_elapsed": 297812, "internal_node_id": "0.0-6.0-36.0"}}, {"uniqueid": "w46362498:a53983017", "current_trial": 132, "dateTime": 1664555343982, "trialdata": {"rt": 1020, "stimulus": "<p id='stroop-text' class='stroop-red'>RED</p>", "response": "r", "stimulus-type": "congruent", "word": "red", "color": "red", "correct_response": "r", "trial_id": "stroop-trial-1-congruent-1", "trial_type": "html-keyboard-response", "trial_index": 132, "time_elapsed": 299338, "internal_node_id": "0.0-6.0-37.0"}}, {"uniqueid": "w46362498:a53983017", "current_trial": 133, "dateTime": 1664555345905, "trialdata": {"rt": 1419, "stimulus": "<p id='stroop-text' class='stroop-blue'>YELLOW</p>", "response": "b", "stimulus-type": "incongruent", "word": "yellow", "color": "blue", "correct_response": "b", "trial_id": "stroop-trial-1-incongruent-22", "trial_type": "html-keyboard-response", "trial_index": 133, "time_elapsed": 301260, "internal_node_id": "0.0-6.0-38.0"}}, {"uniqueid": "w46362498:a53983017", "current_trial": 134, "dateTime": 1664555347701, "trialdata": {"rt": 1291, "stimulus": "<p id='stroop-text' class='stroop-green'>RED</p>", "response": "g", "stimulus-type": "incongruent", "word": "red", "color": "green", "correct_response": "g", "trial_id": "stroop-trial-1-incongruent-6", "trial_type": "html-keyboard-response", "trial_index": 134, "time_elapsed": 303056, "internal_node_id": "0.0-6.0-39.0"}}, {"uniqueid": "w46362498:a53983017", "current_trial": 135, "dateTime": 1664555349272, "trialdata": {"rt": 1067, "stimulus": "<p id='stroop-text' class='stroop-blue'>BRAIN</p>", "response": "b", "stimulus-type": "unrelated", "word": "BRAIN", "color": "blue", "correct_response": "b", "trial_id": "stroop-trial-1-unrelated-20", "trial_type": "html-keyboard-response", "trial_index": 135, "time_elapsed": 304628, "internal_node_id": "0.0-6.0-40.0"}}, {"uniqueid": "w46362498:a53983017", "current_trial": 136, "dateTime": 1664555350744, "trialdata": {"rt": 950, "stimulus": "<p id='stroop-text' class='stroop-yellow'>BOAT</p>", "response": "y", "stimulus-type": "unrelated", "word": "BOAT", "color": "yellow", "correct_response": "y", "trial_id": "stroop-trial-1-unrelated-14", "trial_type": "html-keyboard-response", "trial_index": 136, "time_elapsed": 306100, "internal_node_id": "0.0-6.0-41.0"}}, {"uniqueid": "w46362498:a53983017", "current_trial": 137, "dateTime": 1664555352530, "trialdata": {"rt": 1280, "stimulus": "<p id='stroop-text' class='stroop-red'>BOAT</p>", "response": "r", "stimulus-type": "unrelated", "word": "BOAT", "color": "red", "correct_response": "r", "trial_id": "stroop-trial-1-unrelated-25", "trial_type": "html-keyboard-response", "trial_index": 137, "time_elapsed": 307885, "internal_node_id": "0.0-6.0-42.0"}}, {"uniqueid": "w46362498:a53983017", "current_trial": 138, "dateTime": 1664555353957, "trialdata": {"rt": 922, "stimulus": "<p id='stroop-text' class='stroop-yellow'>YELLOW</p>", "response": "y", "stimulus-type": "congruent", "word": "yellow", "color": "yellow", "correct_response": "y", "trial_id": "stroop-trial-1-congruent-11", "trial_type": "html-keyboard-response", "trial_index": 138, "time_elapsed": 309313, "internal_node_id": "0.0-6.0-43.0"}}, {"uniqueid": "w46362498:a53983017", "current_trial": 139, "dateTime": 1664555355239, "trialdata": {"rt": 779, "stimulus": "<p id='stroop-text' class='stroop-yellow'>YELLOW</p>", "response": "y", "stimulus-type": "congruent", "word": "yellow", "color": "yellow", "correct_response": "y", "trial_id": "stroop-trial-1-congruent-27", "trial_type": "html-keyboard-response", "trial_index": 139, "time_elapsed": 310594, "internal_node_id": "0.0-6.0-44.0"}}, {"uniqueid": "w46362498:a53983017", "current_trial": 140, "dateTime": 1664555356468, "trialdata": {"rt": 727, "stimulus": "<p id='stroop-text' class='stroop-yellow'>YELLOW</p>", "response": "y", "stimulus-type": "congruent", "word": "yellow", "color": "yellow", "correct_response": "y", "trial_id": "stroop-trial-1-congruent-2", "trial_type": "html-keyboard-response", "trial_index": 140, "time_elapsed": 311824, "internal_node_id": "0.0-6.0-45.0"}}, {"uniqueid": "w46362498:a53983017", "current_trial": 141, "dateTime": 1664555357751, "trialdata": {"rt": 778, "stimulus": "<p id='stroop-text' class='stroop-red'>RED</p>", "response": "r", "stimulus-type": "congruent", "word": "red", "color": "red", "correct_response": "r", "trial_id": "stroop-trial-1-congruent-19", "trial_type": "html-keyboard-response", "trial_index": 141, "time_elapsed": 313107, "internal_node_id": "0.0-6.0-46.0"}}, {"uniqueid": "w46362498:a53983017", "current_trial": 142, "dateTime": 1664555358934, "trialdata": {"rt": 680, "stimulus": "<p id='stroop-text' class='stroop-red'>RED</p>", "response": "r", "stimulus-type": "congruent", "word": "red", "color": "red", "correct_response": "r", "trial_id": "stroop-trial-1-congruent-14", "trial_type": "html-keyboard-response", "trial_index": 142, "time_elapsed": 314289, "internal_node_id": "0.0-6.0-47.0"}}, {"uniqueid": "w46362498:a53983017", "current_trial": 143, "dateTime": 1664555360126, "trialdata": {"rt": 687, "stimulus": "<p id='stroop-text' class='stroop-green'>GREEN</p>", "response": "g", "stimulus-type": "congruent", "word": "green", "color": "green", "correct_response": "g", "trial_id": "stroop-trial-1-congruent-29", "trial_type": "html-keyboard-response", "trial_index": 143, "time_elapsed": 315481, "internal_node_id": "0.0-6.0-48.0"}}, {"uniqueid": "w46362498:a53983017", "current_trial": 144, "dateTime": 1664555361456, "trialdata": {"rt": 827, "stimulus": "<p id='stroop-text' class='stroop-green'>BRIDGE</p>", "response": "g", "stimulus-type": "unrelated", "word": "BRIDGE", "color": "green", "correct_response": "g", "trial_id": "stroop-trial-1-unrelated-10", "trial_type": "html-keyboard-response", "trial_index": 144, "time_elapsed": 316812, "internal_node_id": "0.0-6.0-49.0"}}, {"uniqueid": "w46362498:a53983017", "current_trial": 145, "dateTime": 1664555362896, "trialdata": {"rt": 937, "stimulus": "<p id='stroop-text' class='stroop-red'>BOTTLE</p>", "response": "r", "stimulus-type": "unrelated", "word": "BOTTLE", "color": "red", "correct_response": "r", "trial_id": "stroop-trial-1-unrelated-21", "trial_type": "html-keyboard-response", "trial_index": 145, "time_elapsed": 318252, "internal_node_id": "0.0-6.0-50.0"}}, {"uniqueid": "w46362498:a53983017", "current_trial": 146, "dateTime": 1664555364122, "trialdata": {"rt": 718, "stimulus": "<p id='stroop-text' class='stroop-green'>BRIDGE</p>", "response": "g", "stimulus-type": "unrelated", "word": "BRIDGE", "color": "green", "correct_response": "g", "trial_id": "stroop-trial-1-unrelated-9", "trial_type": "html-keyboard-response", "trial_index": 146, "time_elapsed": 319478, "internal_node_id": "0.0-6.0-51.0"}}, {"uniqueid": "w46362498:a53983017", "current_trial": 147, "dateTime": 1664555365307, "trialdata": {"rt": 682, "stimulus": "<p id='stroop-text' class='stroop-green'>GREEN</p>", "response": "g", "stimulus-type": "congruent", "word": "green", "color": "green", "correct_response": "g", "trial_id": "stroop-trial-1-congruent-16", "trial_type": "html-keyboard-response", "trial_index": 147, "time_elapsed": 320663, "internal_node_id": "0.0-6.0-52.0"}}, {"uniqueid": "w46362498:a53983017", "current_trial": 148, "dateTime": 1664555366401, "trialdata": {"rt": 592, "stimulus": "<p id='stroop-text' class='stroop-red'>RED</p>", "response": "r", "stimulus-type": "congruent", "word": "red", "color": "red", "correct_response": "r", "trial_id": "stroop-trial-1-congruent-30", "trial_type": "html-keyboard-response", "trial_index": 148, "time_elapsed": 321757, "internal_node_id": "0.0-6.0-53.0"}}, {"uniqueid": "w46362498:a53983017", "current_trial": 149, "dateTime": 1664555368020, "trialdata": {"rt": 1114, "stimulus": "<p id='stroop-text' class='stroop-blue'>WINDOW</p>", "response": "b", "stimulus-type": "unrelated", "word": "WINDOW", "color": "blue", "correct_response": "b", "trial_id": "stroop-trial-1-unrelated-22", "trial_type": "html-keyboard-response", "trial_index": 149, "time_elapsed": 323376, "internal_node_id": "0.0-6.0-54.0"}}, {"uniqueid": "w46362498:a53983017", "current_trial": 150, "dateTime": 1664555369515, "trialdata": {"rt": 992, "stimulus": "<p id='stroop-text' class='stroop-yellow'>YELLOW</p>", "response": "y", "stimulus-type": "congruent", "word": "yellow", "color": "yellow", "correct_response": "y", "trial_id": "stroop-trial-1-congruent-21", "trial_type": "html-keyboard-response", "trial_index": 150, "time_elapsed": 324870, "internal_node_id": "0.0-6.0-55.0"}}, {"uniqueid": "w46362498:a53983017", "current_trial": 151, "dateTime": 1664555370722, "trialdata": {"rt": 702, "stimulus": "<p id='stroop-text' class='stroop-red'>RED</p>", "response": "r", "stimulus-type": "congruent", "word": "red", "color": "red", "correct_response": "r", "trial_id": "stroop-trial-1-congruent-10", "trial_type": "html-keyboard-response", "trial_index": 151, "time_elapsed": 326077, "internal_node_id": "0.0-6.0-56.0"}}, {"uniqueid": "w46362498:a53983017", "current_trial": 152, "dateTime": 1664555372618, "trialdata": {"rt": 1390, "stimulus": "<p id='stroop-text' class='stroop-red'>YELLOW</p>", "response": "r", "stimulus-type": "incongruent", "word": "yellow", "color": "red", "correct_response": "r", "trial_id": "stroop-trial-1-incongruent-1", "trial_type": "html-keyboard-response", "trial_index": 152, "time_elapsed": 327974, "internal_node_id": "0.0-6.0-57.0"}}, {"uniqueid": "w46362498:a53983017", "current_trial": 153, "dateTime": 1664555374325, "trialdata": {"rt": 1200, "stimulus": "<p id='stroop-text' class='stroop-red'>BOAT</p>", "response": "r", "stimulus-type": "unrelated", "word": "BOAT", "color": "red", "correct_response": "r", "trial_id": "stroop-trial-1-unrelated-15", "trial_type": "html-keyboard-response", "trial_index": 153, "time_elapsed": 329680, "internal_node_id": "0.0-6.0-58.0"}}, {"uniqueid": "w46362498:a53983017", "current_trial": 154, "dateTime": 1664555376490, "trialdata": {"rt": 1660, "stimulus": "<p id='stroop-text' class='stroop-yellow'>RED</p>", "response": "y", "stimulus-type": "incongruent", "word": "red", "color": "yellow", "correct_response": "y", "trial_id": "stroop-trial-1-incongruent-18", "trial_type": "html-keyboard-response", "trial_index": 154, "time_elapsed": 331845, "internal_node_id": "0.0-6.0-59.0"}}, {"uniqueid": "w46362498:a53983017", "current_trial": 155, "dateTime": 1664555378722, "trialdata": {"rt": 1725, "stimulus": "<p id='stroop-text' class='stroop-yellow'>YELLOW</p>", "response": "y", "stimulus-type": "congruent", "word": "yellow", "color": "yellow", "correct_response": "y", "trial_id": "stroop-trial-1-congruent-12", "trial_type": "html-keyboard-response", "trial_index": 155, "time_elapsed": 334077, "internal_node_id": "0.0-6.0-60.0"}}, {"uniqueid": "w46362498:a53983017", "current_trial": 156, "dateTime": 1664555380093, "trialdata": {"rt": 866, "stimulus": "<p id='stroop-text' class='stroop-red'>RED</p>", "response": "r", "stimulus-type": "congruent", "word": "red", "color": "red", "correct_response": "r", "trial_id": "stroop-trial-1-congruent-24", "trial_type": "html-keyboard-response", "trial_index": 156, "time_elapsed": 335449, "internal_node_id": "0.0-6.0-61.0"}}, {"uniqueid": "w46362498:a53983017", "current_trial": 157, "dateTime": 1664555381687, "trialdata": {"rt": 1088, "stimulus": "<p id='stroop-text' class='stroop-green'>BLUE</p>", "response": "g", "stimulus-type": "incongruent", "word": "blue", "color": "green", "correct_response": "g", "trial_id": "stroop-trial-1-incongruent-3", "trial_type": "html-keyboard-response", "trial_index": 157, "time_elapsed": 337043, "internal_node_id": "0.0-6.0-62.0"}}, {"uniqueid": "w46362498:a53983017", "current_trial": 158, "dateTime": 1664555383551, "trialdata": {"rt": 1361, "stimulus": "<p id='stroop-text' class='stroop-yellow'>BLUE</p>", "response": "y", "stimulus-type": "incongruent", "word": "blue", "color": "yellow", "correct_response": "y", "trial_id": "stroop-trial-1-incongruent-29", "trial_type": "html-keyboard-response", "trial_index": 158, "time_elapsed": 338907, "internal_node_id": "0.0-6.0-63.0"}}, {"uniqueid": "w46362498:a53983017", "current_trial": 159, "dateTime": 1664555384667, "trialdata": {"rt": 610, "stimulus": "<p id='stroop-text' class='stroop-yellow'>YELLOW</p>", "response": "y", "stimulus-type": "congruent", "word": "yellow", "color": "yellow", "correct_response": "y", "trial_id": "stroop-trial-1-congruent-22", "trial_type": "html-keyboard-response", "trial_index": 159, "time_elapsed": 340023, "internal_node_id": "0.0-6.0-64.0"}}, {"uniqueid": "w46362498:a53983017", "current_trial": 160, "dateTime": 1664555386296, "trialdata": {"rt": 1125, "stimulus": "<p id='stroop-text' class='stroop-green'>YELLOW</p>", "response": "g", "stimulus-type": "incongruent", "word": "yellow", "color": "green", "correct_response": "g", "trial_id": "stroop-trial-1-incongruent-4", "trial_type": "html-keyboard-response", "trial_index": 160, "time_elapsed": 341652, "internal_node_id": "0.0-6.0-65.0"}}, {"uniqueid": "w46362498:a53983017", "current_trial": 161, "dateTime": 1664555388179, "trialdata": {"rt": 1371, "stimulus": "<p id='stroop-text' class='stroop-yellow'>YELLOW</p>", "response": "y", "stimulus-type": "congruent", "word": "yellow", "color": "yellow", "correct_response": "y", "trial_id": "stroop-trial-1-congruent-28", "trial_type": "html-keyboard-response", "trial_index": 161, "time_elapsed": 343535, "internal_node_id": "0.0-6.0-66.0"}}, {"uniqueid": "w46362498:a53983017", "current_trial": 162, "dateTime": 1664555389732, "trialdata": {"rt": 1050, "stimulus": "<p id='stroop-text' class='stroop-red'>RED</p>", "response": "r", "stimulus-type": "congruent", "word": "red", "color": "red", "correct_response": "r", "trial_id": "stroop-trial-1-congruent-17", "trial_type": "html-keyboard-response", "trial_index": 162, "time_elapsed": 345087, "internal_node_id": "0.0-6.0-67.0"}}, {"uniqueid": "w46362498:a53983017", "current_trial": 163, "dateTime": 1664555391796, "trialdata": {"rt": 1563, "stimulus": "<p id='stroop-text' class='stroop-yellow'>GREEN</p>", "response": "y", "stimulus-type": "incongruent", "word": "green", "color": "yellow", "correct_response": "y", "trial_id": "stroop-trial-1-incongruent-17", "trial_type": "html-keyboard-response", "trial_index": 163, "time_elapsed": 347152, "internal_node_id": "0.0-6.0-68.0"}}, {"uniqueid": "w46362498:a53983017", "current_trial": 164, "dateTime": 1664555393770, "trialdata": {"rt": 1472, "stimulus": "<p id='stroop-text' class='stroop-blue'>BLUE</p>", "response": "b", "stimulus-type": "congruent", "word": "blue", "color": "blue", "correct_response": "b", "trial_id": "stroop-trial-1-congruent-25", "trial_type": "html-keyboard-response", "trial_index": 164, "time_elapsed": 349125, "internal_node_id": "0.0-6.0-69.0"}}, {"uniqueid": "w46362498:a53983017", "current_trial": 165, "dateTime": 1664555395143, "trialdata": {"rt": 868, "stimulus": "<p id='stroop-text' class='stroop-blue'>BOTTLE</p>", "response": "b", "stimulus-type": "unrelated", "word": "BOTTLE", "color": "blue", "correct_response": "b", "trial_id": "stroop-trial-1-unrelated-17", "trial_type": "html-keyboard-response", "trial_index": 165, "time_elapsed": 350499, "internal_node_id": "0.0-6.0-70.0"}}, {"uniqueid": "w46362498:a53983017", "current_trial": 166, "dateTime": 1664555396638, "trialdata": {"rt": 989, "stimulus": "<p id='stroop-text' class='stroop-red'>RED</p>", "response": "r", "stimulus-type": "congruent", "word": "red", "color": "red", "correct_response": "r", "trial_id": "stroop-trial-1-congruent-13", "trial_type": "html-keyboard-response", "trial_index": 166, "time_elapsed": 351994, "internal_node_id": "0.0-6.0-71.0"}}, {"uniqueid": "w46362498:a53983017", "current_trial": 167, "dateTime": 1664555398555, "trialdata": {"rt": 1412, "stimulus": "<p id='stroop-text' class='stroop-blue'>FORK</p>", "response": "b", "stimulus-type": "unrelated", "word": "FORK", "color": "blue", "correct_response": "b", "trial_id": "stroop-trial-1-unrelated-1", "trial_type": "html-keyboard-response", "trial_index": 167, "time_elapsed": 353911, "internal_node_id": "0.0-6.0-72.0"}}, {"uniqueid": "w46362498:a53983017", "current_trial": 168, "dateTime": 1664555399682, "trialdata": {"rt": 624, "stimulus": "<p id='stroop-text' class='stroop-blue'>STONE</p>", "response": "b", "stimulus-type": "unrelated", "word": "STONE", "color": "blue", "correct_response": "b", "trial_id": "stroop-trial-1-unrelated-7", "trial_type": "html-keyboard-response", "trial_index": 168, "time_elapsed": 355038, "internal_node_id": "0.0-6.0-73.0"}}, {"uniqueid": "w46362498:a53983017", "current_trial": 169, "dateTime": 1664555401145, "trialdata": {"rt": 959, "stimulus": "<p id='stroop-text' class='stroop-yellow'>STONE</p>", "response": "y", "stimulus-type": "unrelated", "word": "STONE", "color": "yellow", "correct_response": "y", "trial_id": "stroop-trial-1-unrelated-19", "trial_type": "html-keyboard-response", "trial_index": 169, "time_elapsed": 356501, "internal_node_id": "0.0-6.0-74.0"}}, {"uniqueid": "w46362498:a53983017", "current_trial": 170, "dateTime": 1664555402136, "trialdata": {"rt": 484, "stimulus": "<p id='stroop-text' class='stroop-yellow'>YELLOW</p>", "response": "y", "stimulus-type": "congruent", "word": "yellow", "color": "yellow", "correct_response": "y", "trial_id": "stroop-trial-1-congruent-8", "trial_type": "html-keyboard-response", "trial_index": 170, "time_elapsed": 357492, "internal_node_id": "0.0-6.0-75.0"}}, {"uniqueid": "w46362498:a53983017", "current_trial": 171, "dateTime": 1664555404102, "trialdata": {"rt": 1463, "stimulus": "<p id='stroop-text' class='stroop-red'>BLUE</p>", "response": "r", "stimulus-type": "incongruent", "word": "blue", "color": "red", "correct_response": "r", "trial_id": "stroop-trial-1-incongruent-25", "trial_type": "html-keyboard-response", "trial_index": 171, "time_elapsed": 359458, "internal_node_id": "0.0-6.0-76.0"}}, {"uniqueid": "w46362498:a53983017", "current_trial": 172, "dateTime": 1664555405497, "trialdata": {"rt": 889, "stimulus": "<p id='stroop-text' class='stroop-yellow'>BOAT</p>", "response": "y", "stimulus-type": "unrelated", "word": "BOAT", "color": "yellow", "correct_response": "y", "trial_id": "stroop-trial-1-unrelated-11", "trial_type": "html-keyboard-response", "trial_index": 172, "time_elapsed": 360852, "internal_node_id": "0.0-6.0-77.0"}}, {"uniqueid": "w46362498:a53983017", "current_trial": 173, "dateTime": 1664555406590, "trialdata": {"rt": 588, "stimulus": "<p id='stroop-text' class='stroop-yellow'>WINDOW</p>", "response": "y", "stimulus-type": "unrelated", "word": "WINDOW", "color": "yellow", "correct_response": "y", "trial_id": "stroop-trial-1-unrelated-26", "trial_type": "html-keyboard-response", "trial_index": 173, "time_elapsed": 361945, "internal_node_id": "0.0-6.0-78.0"}}, {"uniqueid": "w46362498:a53983017", "current_trial": 174, "dateTime": 1664555408162, "trialdata": {"rt": 1068, "stimulus": "<p id='stroop-text' class='stroop-red'>WINDOW</p>", "response": "r", "stimulus-type": "unrelated", "word": "WINDOW", "color": "red", "correct_response": "r", "trial_id": "stroop-trial-1-unrelated-27", "trial_type": "html-keyboard-response", "trial_index": 174, "time_elapsed": 363518, "internal_node_id": "0.0-6.0-79.0"}}, {"uniqueid": "w46362498:a53983017", "current_trial": 175, "dateTime": 1664555409446, "trialdata": {"rt": 774, "stimulus": "<p id='stroop-text' class='stroop-green'>GREEN</p>", "response": "g", "stimulus-type": "congruent", "word": "green", "color": "green", "correct_response": "g", "trial_id": "stroop-trial-1-congruent-18", "trial_type": "html-keyboard-response", "trial_index": 175, "time_elapsed": 364802, "internal_node_id": "0.0-6.0-80.0"}}, {"uniqueid": "w46362498:a53983017", "current_trial": 176, "dateTime": 1664555411309, "trialdata": {"rt": 1358, "stimulus": "<p id='stroop-text' class='stroop-blue'>RED</p>", "response": "b", "stimulus-type": "incongruent", "word": "red", "color": "blue", "correct_response": "b", "trial_id": "stroop-trial-1-incongruent-9", "trial_type": "html-keyboard-response", "trial_index": 176, "time_elapsed": 366665, "internal_node_id": "0.0-6.0-81.0"}}, {"uniqueid": "w46362498:a53983017", "current_trial": 177, "dateTime": 1664555412982, "trialdata": {"rt": 1167, "stimulus": "<p id='stroop-text' class='stroop-red'>BRAIN</p>", "response": "r", "stimulus-type": "unrelated", "word": "BRAIN", "color": "red", "correct_response": "r", "trial_id": "stroop-trial-1-unrelated-5", "trial_type": "html-keyboard-response", "trial_index": 177, "time_elapsed": 368338, "internal_node_id": "0.0-6.0-82.0"}}, {"uniqueid": "w46362498:a53983017", "current_trial": 178, "dateTime": 1664555414366, "trialdata": {"rt": 880, "stimulus": "<p id='stroop-text' class='stroop-red'>BLUE</p>", "response": "r", "stimulus-type": "incongruent", "word": "blue", "color": "red", "correct_response": "r", "trial_id": "stroop-trial-1-incongruent-14", "trial_type": "html-keyboard-response", "trial_index": 178, "time_elapsed": 369721, "internal_node_id": "0.0-6.0-83.0"}}, {"uniqueid": "w46362498:a53983017", "current_trial": 179, "dateTime": 1664555416540, "trialdata": {"rt": 1672, "stimulus": "<p id='stroop-text' class='stroop-blue'>BLUE</p>", "response": "b", "stimulus-type": "congruent", "word": "blue", "color": "blue", "correct_response": "b", "trial_id": "stroop-trial-1-congruent-23", "trial_type": "html-keyboard-response", "trial_index": 179, "time_elapsed": 371896, "internal_node_id": "0.0-6.0-84.0"}}, {"uniqueid": "w46362498:a53983017", "current_trial": 180, "dateTime": 1664555418191, "trialdata": {"rt": 1146, "stimulus": "<p id='stroop-text' class='stroop-green'>YELLOW</p>", "response": "g", "stimulus-type": "incongruent", "word": "yellow", "color": "green", "correct_response": "g", "trial_id": "stroop-trial-1-incongruent-15", "trial_type": "html-keyboard-response", "trial_index": 180, "time_elapsed": 373547, "internal_node_id": "0.0-6.0-85.0"}}, {"uniqueid": "w46362498:a53983017", "current_trial": 181, "dateTime": 1664555419684, "trialdata": {"rt": 990, "stimulus": "<p id='stroop-text' class='stroop-yellow'>STONE</p>", "response": "y", "stimulus-type": "unrelated", "word": "STONE", "color": "yellow", "correct_response": "y", "trial_id": "stroop-trial-1-unrelated-28", "trial_type": "html-keyboard-response", "trial_index": 181, "time_elapsed": 375040, "internal_node_id": "0.0-6.0-86.0"}}, {"uniqueid": "w46362498:a53983017", "current_trial": 182, "dateTime": 1664555421741, "trialdata": {"rt": 1553, "stimulus": "<p id='stroop-text' class='stroop-blue'>RED</p>", "response": "b", "stimulus-type": "incongruent", "word": "red", "color": "blue", "correct_response": "b", "trial_id": "stroop-trial-1-incongruent-12", "trial_type": "html-keyboard-response", "trial_index": 182, "time_elapsed": 377096, "internal_node_id": "0.0-6.0-87.0"}}, {"uniqueid": "w46362498:a53983017", "current_trial": 183, "dateTime": 1664555423302, "trialdata": {"rt": 1058, "stimulus": "<p id='stroop-text' class='stroop-yellow'>BLUE</p>", "response": "y", "stimulus-type": "incongruent", "word": "blue", "color": "yellow", "correct_response": "y", "trial_id": "stroop-trial-1-incongruent-11", "trial_type": "html-keyboard-response", "trial_index": 183, "time_elapsed": 378657, "internal_node_id": "0.0-6.0-88.0"}}, {"uniqueid": "w46362498:a53983017", "current_trial": 184, "dateTime": 1664555425143, "trialdata": {"rt": 1335, "stimulus": "<p id='stroop-text' class='stroop-green'>GREEN</p>", "response": "g", "stimulus-type": "congruent", "word": "green", "color": "green", "correct_response": "g", "trial_id": "stroop-trial-1-congruent-6", "trial_type": "html-keyboard-response", "trial_index": 184, "time_elapsed": 380499, "internal_node_id": "0.0-6.0-89.0"}}, {"uniqueid": "w46362498:a53983017", "current_trial": 185, "dateTime": 1664555436356, "trialdata": {"rt": 10706, "stimulus": "  <h1> End of block! </h1>\n\n  You have reached the end of the block 2/5. If you need a short break, feel free to take one now before moving on.\n\n  <br><br>\n  In the next block, you will complete another 90 rounds of this game.\n\n  <br><br>\n  <div style='text-align: center;'>Press <code>space</code> to begin.</div>\n  <br><br>\n<div style='text-align: center;'>(If the experiment doesn't continue, try clicking on the text and then pressing <code>space</code>.)</div>", "response": " ", "trial_id": "stroop_1_ready_3", "trial_type": "html-keyboard-response", "trial_index": 185, "time_elapsed": 391712, "internal_node_id": "0.0-7.0"}}, {"uniqueid": "w46362498:a53983017", "current_trial": 186, "dateTime": 1664555437485, "trialdata": {"rt": 1126, "stimulus": "<p id='stroop-text' class='stroop-yellow'>GREEN</p>", "response": "y", "stimulus-type": "incongruent", "word": "green", "color": "yellow", "correct_response": "y", "trial_id": "stroop-trial-1-incongruent-5", "trial_type": "html-keyboard-response", "trial_index": 186, "time_elapsed": 392840, "internal_node_id": "0.0-8.0-0.0"}}, {"uniqueid": "w46362498:a53983017", "current_trial": 187, "dateTime": 1664555438945, "trialdata": {"rt": 955, "stimulus": "<p id='stroop-text' class='stroop-blue'>BRAIN</p>", "response": "b", "stimulus-type": "unrelated", "word": "BRAIN", "color": "blue", "correct_response": "b", "trial_id": "stroop-trial-1-unrelated-16", "trial_type": "html-keyboard-response", "trial_index": 187, "time_elapsed": 394301, "internal_node_id": "0.0-8.0-1.0"}}, {"uniqueid": "w46362498:a53983017", "current_trial": 188, "dateTime": 1664555440475, "trialdata": {"rt": 1026, "stimulus": "<p id='stroop-text' class='stroop-yellow'>BLUE</p>", "response": "y", "stimulus-type": "incongruent", "word": "blue", "color": "yellow", "correct_response": "y", "trial_id": "stroop-trial-1-incongruent-21", "trial_type": "html-keyboard-response", "trial_index": 188, "time_elapsed": 395831, "internal_node_id": "0.0-8.0-2.0"}}, {"uniqueid": "w46362498:a53983017", "current_trial": 189, "dateTime": 1664555441860, "trialdata": {"rt": 881, "stimulus": "<p id='stroop-text' class='stroop-yellow'>SHIP</p>", "response": "y", "stimulus-type": "unrelated", "word": "SHIP", "color": "yellow", "correct_response": "y", "trial_id": "stroop-trial-1-unrelated-14", "trial_type": "html-keyboard-response", "trial_index": 189, "time_elapsed": 397215, "internal_node_id": "0.0-8.0-3.0"}}, {"uniqueid": "w46362498:a53983017", "current_trial": 190, "dateTime": 1664555443422, "trialdata": {"rt": 1059, "stimulus": "<p id='stroop-text' class='stroop-green'>MONKEY</p>", "response": "g", "stimulus-type": "unrelated", "word": "MONKEY", "color": "green", "correct_response": "g", "trial_id": "stroop-trial-1-unrelated-4", "trial_type": "html-keyboard-response", "trial_index": 190, "time_elapsed": 398778, "internal_node_id": "0.0-8.0-4.0"}}, {"uniqueid": "w46362498:a53983017", "current_trial": 191, "dateTime": 1664555444736, "trialdata": {"rt": 811, "stimulus": "<p id='stroop-text' class='stroop-yellow'>BRAIN</p>", "response": "y", "stimulus-type": "unrelated", "word": "BRAIN", "color": "yellow", "correct_response": "y", "trial_id": "stroop-trial-1-unrelated-3", "trial_type": "html-keyboard-response", "trial_index": 191, "time_elapsed": 400092, "internal_node_id": "0.0-8.0-5.0"}}, {"uniqueid": "w46362498:a53983017", "current_trial": 192, "dateTime": 1664555446089, "trialdata": {"rt": 850, "stimulus": "<p id='stroop-text' class='stroop-yellow'>FORK</p>", "response": "y", "stimulus-type": "unrelated", "word": "FORK", "color": "yellow", "correct_response": "y", "trial_id": "stroop-trial-1-unrelated-22", "trial_type": "html-keyboard-response", "trial_index": 192, "time_elapsed": 401444, "internal_node_id": "0.0-8.0-6.0"}}, {"uniqueid": "w46362498:a53983017", "current_trial": 193, "dateTime": 1664555448042, "trialdata": {"rt": 1447, "stimulus": "<p id='stroop-text' class='stroop-blue'>YELLOW</p>", "response": "b", "stimulus-type": "incongruent", "word": "yellow", "color": "blue", "correct_response": "b", "trial_id": "stroop-trial-1-incongruent-8", "trial_type": "html-keyboard-response", "trial_index": 193, "time_elapsed": 403397, "internal_node_id": "0.0-8.0-7.0"}}, {"uniqueid": "w46362498:a53983017", "current_trial": 194, "dateTime": 1664555449793, "trialdata": {"rt": 1246, "stimulus": "<p id='stroop-text' class='stroop-yellow'>WINDOW</p>", "response": "y", "stimulus-type": "unrelated", "word": "WINDOW", "color": "yellow", "correct_response": "y", "trial_id": "stroop-trial-1-unrelated-5", "trial_type": "html-keyboard-response", "trial_index": 194, "time_elapsed": 405148, "internal_node_id": "0.0-8.0-8.0"}}, {"uniqueid": "w46362498:a53983017", "current_trial": 195, "dateTime": 1664555450875, "trialdata": {"rt": 570, "stimulus": "<p id='stroop-text' class='stroop-yellow'>BRAIN</p>", "response": "y", "stimulus-type": "unrelated", "word": "BRAIN", "color": "yellow", "correct_response": "y", "trial_id": "stroop-trial-1-unrelated-7", "trial_type": "html-keyboard-response", "trial_index": 195, "time_elapsed": 406230, "internal_node_id": "0.0-8.0-9.0"}}, {"uniqueid": "w46362498:a53983017", "current_trial": 196, "dateTime": 1664555452382, "trialdata": {"rt": 1001, "stimulus": "<p id='stroop-text' class='stroop-green'>YELLOW</p>", "response": "g", "stimulus-type": "incongruent", "word": "yellow", "color": "green", "correct_response": "g", "trial_id": "stroop-trial-1-incongruent-6", "trial_type": "html-keyboard-response", "trial_index": 196, "time_elapsed": 407737, "internal_node_id": "0.0-8.0-10.0"}}, {"uniqueid": "w46362498:a53983017", "current_trial": 197, "dateTime": 1664555453732, "trialdata": {"rt": 844, "stimulus": "<p id='stroop-text' class='stroop-blue'>BLUE</p>", "response": "b", "stimulus-type": "congruent", "word": "blue", "color": "blue", "correct_response": "b", "trial_id": "stroop-trial-1-congruent-11", "trial_type": "html-keyboard-response", "trial_index": 197, "time_elapsed": 409087, "internal_node_id": "0.0-8.0-11.0"}}, {"uniqueid": "w46362498:a53983017", "current_trial": 198, "dateTime": 1664555455371, "trialdata": {"rt": 1133, "stimulus": "<p id='stroop-text' class='stroop-blue'>WINDOW</p>", "response": "b", "stimulus-type": "unrelated", "word": "WINDOW", "color": "blue", "correct_response": "b", "trial_id": "stroop-trial-1-unrelated-19", "trial_type": "html-keyboard-response", "trial_index": 198, "time_elapsed": 410727, "internal_node_id": "0.0-8.0-12.0"}}, {"uniqueid": "w46362498:a53983017", "current_trial": 199, "dateTime": 1664555456332, "trialdata": {"rt": 457, "stimulus": "<p id='stroop-text' class='stroop-blue'>BLUE</p>", "response": "b", "stimulus-type": "congruent", "word": "blue", "color": "blue", "correct_response": "b", "trial_id": "stroop-trial-1-congruent-10", "trial_type": "html-keyboard-response", "trial_index": 199, "time_elapsed": 411687, "internal_node_id": "0.0-8.0-13.0"}}, {"uniqueid": "w46362498:a53983017", "current_trial": 200, "dateTime": 1664555457828, "trialdata": {"rt": 990, "stimulus": "<p id='stroop-text' class='stroop-yellow'>BRAIN</p>", "response": "y", "stimulus-type": "unrelated", "word": "BRAIN", "color": "yellow", "correct_response": "y", "trial_id": "stroop-trial-1-unrelated-8", "trial_type": "html-keyboard-response", "trial_index": 200, "time_elapsed": 413183, "internal_node_id": "0.0-8.0-14.0"}}, {"uniqueid": "w46362498:a53983017", "current_trial": 201, "dateTime": 1664555459593, "trialdata": {"rt": 1259, "stimulus": "<p id='stroop-text' class='stroop-red'>RED</p>", "response": "r", "stimulus-type": "congruent", "word": "red", "color": "red", "correct_response": "r", "trial_id": "stroop-trial-1-congruent-15", "trial_type": "html-keyboard-response", "trial_index": 201, "time_elapsed": 414948, "internal_node_id": "0.0-8.0-15.0"}}, {"uniqueid": "w46362498:a53983017", "current_trial": 202, "dateTime": 1664555461365, "trialdata": {"rt": 1267, "stimulus": "<p id='stroop-text' class='stroop-blue'>BLUE</p>", "response": "b", "stimulus-type": "congruent", "word": "blue", "color": "blue", "correct_response": "b", "trial_id": "stroop-trial-1-congruent-7", "trial_type": "html-keyboard-response", "trial_index": 202, "time_elapsed": 416720, "internal_node_id": "0.0-8.0-16.0"}}, {"uniqueid": "w46362498:a53983017", "current_trial": 203, "dateTime": 1664555462594, "trialdata": {"rt": 726, "stimulus": "<p id='stroop-text' class='stroop-blue'>WINDOW</p>", "response": "b", "stimulus-type": "unrelated", "word": "WINDOW", "color": "blue", "correct_response": "b", "trial_id": "stroop-trial-1-unrelated-26", "trial_type": "html-keyboard-response", "trial_index": 203, "time_elapsed": 417949, "internal_node_id": "0.0-8.0-17.0"}}, {"uniqueid": "w46362498:a53983017", "current_trial": 204, "dateTime": 1664555464078, "trialdata": {"rt": 978, "stimulus": "<p id='stroop-text' class='stroop-green'>YELLOW</p>", "response": "g", "stimulus-type": "incongruent", "word": "yellow", "color": "green", "correct_response": "g", "trial_id": "stroop-trial-1-incongruent-29", "trial_type": "html-keyboard-response", "trial_index": 204, "time_elapsed": 419434, "internal_node_id": "0.0-8.0-18.0"}}, {"uniqueid": "w46362498:a53983017", "current_trial": 205, "dateTime": 1664555465450, "trialdata": {"rt": 867, "stimulus": "<p id='stroop-text' class='stroop-blue'>BLUE</p>", "response": "b", "stimulus-type": "congruent", "word": "blue", "color": "blue", "correct_response": "b", "trial_id": "stroop-trial-1-congruent-3", "trial_type": "html-keyboard-response", "trial_index": 205, "time_elapsed": 420806, "internal_node_id": "0.0-8.0-19.0"}}, {"uniqueid": "w46362498:a53983017", "current_trial": 206, "dateTime": 1664555466769, "trialdata": {"rt": 815, "stimulus": "<p id='stroop-text' class='stroop-blue'>RED</p>", "response": "b", "stimulus-type": "incongruent", "word": "red", "color": "blue", "correct_response": "b", "trial_id": "stroop-trial-1-incongruent-28", "trial_type": "html-keyboard-response", "trial_index": 206, "time_elapsed": 422124, "internal_node_id": "0.0-8.0-20.0"}}, {"uniqueid": "w46362498:a53983017", "current_trial": 207, "dateTime": 1664555468331, "trialdata": {"rt": 1056, "stimulus": "<p id='stroop-text' class='stroop-green'>CHAIR</p>", "response": "g", "stimulus-type": "unrelated", "word": "CHAIR", "color": "green", "correct_response": "g", "trial_id": "stroop-trial-1-unrelated-29", "trial_type": "html-keyboard-response", "trial_index": 207, "time_elapsed": 423686, "internal_node_id": "0.0-8.0-21.0"}}, {"uniqueid": "w46362498:a53983017", "current_trial": 208, "dateTime": 1664555469891, "trialdata": {"rt": 1054, "stimulus": "<p id='stroop-text' class='stroop-yellow'>BOTTLE</p>", "response": "y", "stimulus-type": "unrelated", "word": "BOTTLE", "color": "yellow", "correct_response": "y", "trial_id": "stroop-trial-1-unrelated-21", "trial_type": "html-keyboard-response", "trial_index": 208, "time_elapsed": 425247, "internal_node_id": "0.0-8.0-22.0"}}, {"uniqueid": "w46362498:a53983017", "current_trial": 209, "dateTime": 1664555471444, "trialdata": {"rt": 1049, "stimulus": "<p id='stroop-text' class='stroop-red'>BLUE</p>", "response": "r", "stimulus-type": "incongruent", "word": "blue", "color": "red", "correct_response": "r", "trial_id": "stroop-trial-1-incongruent-10", "trial_type": "html-keyboard-response", "trial_index": 209, "time_elapsed": 426799, "internal_node_id": "0.0-8.0-23.0"}}, {"uniqueid": "w46362498:a53983017", "current_trial": 210, "dateTime": 1664555473854, "trialdata": {"rt": 1904, "stimulus": "<p id='stroop-text' class='stroop-green'>RED</p>", "response": "g", "stimulus-type": "incongruent", "word": "red", "color": "green", "correct_response": "g", "trial_id": "stroop-trial-1-incongruent-18", "trial_type": "html-keyboard-response", "trial_index": 210, "time_elapsed": 429209, "internal_node_id": "0.0-8.0-24.0"}}, {"uniqueid": "w46362498:a53983017", "current_trial": 211, "dateTime": 1664555476701, "trialdata": {"rt": 2340, "stimulus": "<p id='stroop-text' class='stroop-blue'>YELLOW</p>", "response": "b", "stimulus-type": "incongruent", "word": "yellow", "color": "blue", "correct_response": "b", "trial_id": "stroop-trial-1-incongruent-12", "trial_type": "html-keyboard-response", "trial_index": 211, "time_elapsed": 432056, "internal_node_id": "0.0-8.0-25.0"}}, {"uniqueid": "w46362498:a53983017", "current_trial": 212, "dateTime": 1664555478027, "trialdata": {"rt": 821, "stimulus": "<p id='stroop-text' class='stroop-red'>GREEN</p>", "response": "r", "stimulus-type": "incongruent", "word": "green", "color": "red", "correct_response": "r", "trial_id": "stroop-trial-1-incongruent-22", "trial_type": "html-keyboard-response", "trial_index": 212, "time_elapsed": 433383, "internal_node_id": "0.0-8.0-26.0"}}, {"uniqueid": "w46362498:a53983017", "current_trial": 213, "dateTime": 1664555479546, "trialdata": {"rt": 1013, "stimulus": "<p id='stroop-text' class='stroop-yellow'>STONE</p>", "response": "y", "stimulus-type": "unrelated", "word": "STONE", "color": "yellow", "correct_response": "y", "trial_id": "stroop-trial-1-unrelated-11", "trial_type": "html-keyboard-response", "trial_index": 213, "time_elapsed": 434901, "internal_node_id": "0.0-8.0-27.0"}}, {"uniqueid": "w46362498:a53983017", "current_trial": 214, "dateTime": 1664555480807, "trialdata": {"rt": 756, "stimulus": "<p id='stroop-text' class='stroop-yellow'>YELLOW</p>", "response": "y", "stimulus-type": "congruent", "word": "yellow", "color": "yellow", "correct_response": "y", "trial_id": "stroop-trial-1-congruent-8", "trial_type": "html-keyboard-response", "trial_index": 214, "time_elapsed": 436163, "internal_node_id": "0.0-8.0-28.0"}}, {"uniqueid": "w46362498:a53983017", "current_trial": 215, "dateTime": 1664555483127, "trialdata": {"rt": 1813, "stimulus": "<p id='stroop-text' class='stroop-blue'>RED</p>", "response": "b", "stimulus-type": "incongruent", "word": "red", "color": "blue", "correct_response": "b", "trial_id": "stroop-trial-1-incongruent-7", "trial_type": "html-keyboard-response", "trial_index": 215, "time_elapsed": 438483, "internal_node_id": "0.0-8.0-29.0"}}, {"uniqueid": "w46362498:a53983017", "current_trial": 216, "dateTime": 1664555484602, "trialdata": {"rt": 973, "stimulus": "<p id='stroop-text' class='stroop-green'>RED</p>", "response": "g", "stimulus-type": "incongruent", "word": "red", "color": "green", "correct_response": "g", "trial_id": "stroop-trial-1-incongruent-3", "trial_type": "html-keyboard-response", "trial_index": 216, "time_elapsed": 439957, "internal_node_id": "0.0-8.0-30.0"}}, {"uniqueid": "w46362498:a53983017", "current_trial": 217, "dateTime": 1664555485952, "trialdata": {"rt": 838, "stimulus": "<p id='stroop-text' class='stroop-blue'>CHAIR</p>", "response": "b", "stimulus-type": "unrelated", "word": "CHAIR", "color": "blue", "correct_response": "b", "trial_id": "stroop-trial-1-unrelated-1", "trial_type": "html-keyboard-response", "trial_index": 217, "time_elapsed": 441308, "internal_node_id": "0.0-8.0-31.0"}}, {"uniqueid": "w46362498:a53983017", "current_trial": 218, "dateTime": 1664555487501, "trialdata": {"rt": 1043, "stimulus": "<p id='stroop-text' class='stroop-yellow'>YELLOW</p>", "response": "y", "stimulus-type": "congruent", "word": "yellow", "color": "yellow", "correct_response": "y", "trial_id": "stroop-trial-1-congruent-18", "trial_type": "html-keyboard-response", "trial_index": 218, "time_elapsed": 442856, "internal_node_id": "0.0-8.0-32.0"}}, {"uniqueid": "w46362498:a53983017", "current_trial": 219, "dateTime": 1664555488686, "trialdata": {"rt": 681, "stimulus": "<p id='stroop-text' class='stroop-red'>BLUE</p>", "response": "r", "stimulus-type": "incongruent", "word": "blue", "color": "red", "correct_response": "r", "trial_id": "stroop-trial-1-incongruent-16", "trial_type": "html-keyboard-response", "trial_index": 219, "time_elapsed": 444041, "internal_node_id": "0.0-8.0-33.0"}}, {"uniqueid": "w46362498:a53983017", "current_trial": 220, "dateTime": 1664555490203, "trialdata": {"rt": 1012, "stimulus": "<p id='stroop-text' class='stroop-blue'>BLUE</p>", "response": "b", "stimulus-type": "congruent", "word": "blue", "color": "blue", "correct_response": "b", "trial_id": "stroop-trial-1-congruent-12", "trial_type": "html-keyboard-response", "trial_index": 220, "time_elapsed": 445559, "internal_node_id": "0.0-8.0-34.0"}}, {"uniqueid": "w46362498:a53983017", "current_trial": 221, "dateTime": 1664555491633, "trialdata": {"rt": 927, "stimulus": "<p id='stroop-text' class='stroop-green'>RED</p>", "response": "g", "stimulus-type": "incongruent", "word": "red", "color": "green", "correct_response": "g", "trial_id": "stroop-trial-1-incongruent-17", "trial_type": "html-keyboard-response", "trial_index": 221, "time_elapsed": 446989, "internal_node_id": "0.0-8.0-35.0"}}, {"uniqueid": "w46362498:a53983017", "current_trial": 222, "dateTime": 1664555493283, "trialdata": {"rt": 1142, "stimulus": "<p id='stroop-text' class='stroop-blue'>BLUE</p>", "response": "b", "stimulus-type": "congruent", "word": "blue", "color": "blue", "correct_