{"condition": 0, "counterbalance": 0, "assignmentId": "a37454990", "workerId": "w24869720", "hitId": "h34577938", "currenttrial": 971, "bonus": 0, "data": [{"uniqueid": "w24869720:a37454990", "current_trial": 0, "dateTime": 1664463429293, "trialdata": {"success": true, "trial_type": "fullscreen", "trial_index": 0, "time_elapsed": 48729, "internal_node_id": "0.0-0.0"}}, {"uniqueid": "w24869720:a37454990", "current_trial": 1, "dateTime": 1664463477162, "trialdata": {"view_history": [{"page_index": 0, "viewing_time": 47840}], "rt": 47842, "trial_id": "exp_instructions_distractor", "trial_type": "instructions", "trial_index": 1, "time_elapsed": 96599, "internal_node_id": "0.0-1.0"}}, {"uniqueid": "w24869720:a37454990", "current_trial": 2, "dateTime": 1664463525724, "trialdata": {"view_history": [{"page_index": 0, "viewing_time": 48555}], "rt": 48557, "trial_id": "color_game_instructions", "trial_type": "instructions", "trial_index": 2, "time_elapsed": 145161, "internal_node_id": "0.0-2.0"}}, {"uniqueid": "w24869720:a37454990", "current_trial": 3, "dateTime": 1664463545097, "trialdata": {"rt": 19357, "stimulus": "<h1> Get ready to start the game! </h1>\n\nThank you for reading the instructions. Get ready start with the first of 5 block(s) of this game.\n<br><br>\nIn this first block, you will complete 90 rounds of this game before moving on.\n<br><br>\nRemember, the better you perform, the bigger your bonus will be!\n<br><br>\n<div style='text-align: center;'>Press <code>space</code> to begin.</div>", "response": " ", "trial_id": "stroop_1_ready_1", "trial_type": "html-keyboard-response", "trial_index": 3, "time_elapsed": 164533, "internal_node_id": "0.0-3.0"}}, {"uniqueid": "w24869720:a37454990", "current_trial": 4, "dateTime": 1664463549217, "trialdata": {"rt": 4086, "stimulus": "<p id='stroop-text' class='stroop-yellow'>GREEN</p>", "response": "y", "stimulus-type": "incongruent", "word": "green", "color": "yellow", "correct_response": "y", "trial_id": "stroop-trial-1-incongruent-5", "trial_type": "html-keyboard-response", "trial_index": 4, "time_elapsed": 168651, "internal_node_id": "0.0-4.0-0.0"}}, {"uniqueid": "w24869720:a37454990", "current_trial": 5, "dateTime": 1664463550951, "trialdata": {"rt": 1226, "stimulus": "<p id='stroop-text' class='stroop-blue'>GREEN</p>", "response": "b", "stimulus-type": "incongruent", "word": "green", "color": "blue", "correct_response": "b", "trial_id": "stroop-trial-1-incongruent-8", "trial_type": "html-keyboard-response", "trial_index": 5, "time_elapsed": 170387, "internal_node_id": "0.0-4.0-1.0"}}, {"uniqueid": "w24869720:a37454990", "current_trial": 6, "dateTime": 1664463552322, "trialdata": {"rt": 865, "stimulus": "<p id='stroop-text' class='stroop-blue'>BLUE</p>", "response": "b", "stimulus-type": "congruent", "word": "blue", "color": "blue", "correct_response": "b", "trial_id": "stroop-trial-1-congruent-17", "trial_type": "html-keyboard-response", "trial_index": 6, "time_elapsed": 171758, "internal_node_id": "0.0-4.0-2.0"}}, {"uniqueid": "w24869720:a37454990", "current_trial": 7, "dateTime": 1664463553951, "trialdata": {"rt": 1122, "stimulus": "<p id='stroop-text' class='stroop-red'>RED</p>", "response": "r", "stimulus-type": "congruent", "word": "red", "color": "red", "correct_response": "r", "trial_id": "stroop-trial-1-congruent-6", "trial_type": "html-keyboard-response", "trial_index": 7, "time_elapsed": 173387, "internal_node_id": "0.0-4.0-3.0"}}, {"uniqueid": "w24869720:a37454990", "current_trial": 8, "dateTime": 1664463556071, "trialdata": {"rt": 1616, "stimulus": "<p id='stroop-text' class='stroop-yellow'>GREEN</p>", "response": "y", "stimulus-type": "incongruent", "word": "green", "color": "yellow", "correct_response": "y", "trial_id": "stroop-trial-1-incongruent-30", "trial_type": "html-keyboard-response", "trial_index": 8, "time_elapsed": 175507, "internal_node_id": "0.0-4.0-4.0"}}, {"uniqueid": "w24869720:a37454990", "current_trial": 9, "dateTime": 1664463557678, "trialdata": {"rt": 1066, "stimulus": "<p id='stroop-text' class='stroop-red'>STONE</p>", "response": "r", "stimulus-type": "unrelated", "word": "STONE", "color": "red", "correct_response": "r", "trial_id": "stroop-trial-1-unrelated-14", "trial_type": "html-keyboard-response", "trial_index": 9, "time_elapsed": 177115, "internal_node_id": "0.0-4.0-5.0"}}, {"uniqueid": "w24869720:a37454990", "current_trial": 10, "dateTime": 1664463559043, "trialdata": {"rt": 844, "stimulus": "<p id='stroop-text' class='stroop-red'>GREEN</p>", "response": "r", "stimulus-type": "incongruent", "word": "green", "color": "red", "correct_response": "r", "trial_id": "stroop-trial-1-incongruent-24", "trial_type": "html-keyboard-response", "trial_index": 10, "time_elapsed": 178479, "internal_node_id": "0.0-4.0-6.0"}}, {"uniqueid": "w24869720:a37454990", "current_trial": 11, "dateTime": 1664463560686, "trialdata": {"rt": 1137, "stimulus": "<p id='stroop-text' class='stroop-green'>YELLOW</p>", "response": "g", "stimulus-type": "incongruent", "word": "yellow", "color": "green", "correct_response": "g", "trial_id": "stroop-trial-1-incongruent-23", "trial_type": "html-keyboard-response", "trial_index": 11, "time_elapsed": 180122, "internal_node_id": "0.0-4.0-7.0"}}, {"uniqueid": "w24869720:a37454990", "current_trial": 12, "dateTime": 1664463561958, "trialdata": {"rt": 765, "stimulus": "<p id='stroop-text' class='stroop-blue'>GREEN</p>", "response": "b", "stimulus-type": "incongruent", "word": "green", "color": "blue", "correct_response": "b", "trial_id": "stroop-trial-1-incongruent-28", "trial_type": "html-keyboard-response", "trial_index": 12, "time_elapsed": 181394, "internal_node_id": "0.0-4.0-8.0"}}, {"uniqueid": "w24869720:a37454990", "current_trial": 13, "dateTime": 1664463563534, "trialdata": {"rt": 1070, "stimulus": "<p id='stroop-text' class='stroop-red'>RED</p>", "response": "r", "stimulus-type": "congruent", "word": "red", "color": "red", "correct_response": "r", "trial_id": "stroop-trial-1-congruent-4", "trial_type": "html-keyboard-response", "trial_index": 13, "time_elapsed": 182970, "internal_node_id": "0.0-4.0-9.0"}}, {"uniqueid": "w24869720:a37454990", "current_trial": 14, "dateTime": 1664463565245, "trialdata": {"rt": 1205, "stimulus": "<p id='stroop-text' class='stroop-blue'>DOG</p>", "response": "b", "stimulus-type": "unrelated", "word": "DOG", "color": "blue", "correct_response": "b", "trial_id": "stroop-trial-1-unrelated-30", "trial_type": "html-keyboard-response", "trial_index": 14, "time_elapsed": 184681, "internal_node_id": "0.0-4.0-10.0"}}, {"uniqueid": "w24869720:a37454990", "current_trial": 15, "dateTime": 1664463566978, "trialdata": {"rt": 1223, "stimulus": "<p id='stroop-text' class='stroop-green'>YELLOW</p>", "response": "g", "stimulus-type": "incongruent", "word": "yellow", "color": "green", "correct_response": "g", "trial_id": "stroop-trial-1-incongruent-7", "trial_type": "html-keyboard-response", "trial_index": 15, "time_elapsed": 186414, "internal_node_id": "0.0-4.0-11.0"}}, {"uniqueid": "w24869720:a37454990", "current_trial": 16, "dateTime": 1664463569049, "trialdata": {"rt": 1562, "stimulus": "<p id='stroop-text' class='stroop-yellow'>BRIDGE</p>", "response": "y", "stimulus-type": "unrelated", "word": "BRIDGE", "color": "yellow", "correct_response": "y", "trial_id": "stroop-trial-1-unrelated-20", "trial_type": "html-keyboard-response", "trial_index": 16, "time_elapsed": 188485, "internal_node_id": "0.0-4.0-12.0"}}, {"uniqueid": "w24869720:a37454990", "current_trial": 17, "dateTime": 1664463571085, "trialdata": {"rt": 1527, "stimulus": "<p id='stroop-text' class='stroop-green'>GREEN</p>", "response": "g", "stimulus-type": "congruent", "word": "green", "color": "green", "correct_response": "g", "trial_id": "stroop-trial-1-congruent-29", "trial_type": "html-keyboard-response", "trial_index": 17, "time_elapsed": 190521, "internal_node_id": "0.0-4.0-13.0"}}, {"uniqueid": "w24869720:a37454990", "current_trial": 18, "dateTime": 1664463573218, "trialdata": {"rt": 1619, "stimulus": "<p id='stroop-text' class='stroop-blue'>SHIP</p>", "response": "b", "stimulus-type": "unrelated", "word": "SHIP", "color": "blue", "correct_response": "b", "trial_id": "stroop-trial-1-unrelated-2", "trial_type": "html-keyboard-response", "trial_index": 18, "time_elapsed": 192654, "internal_node_id": "0.0-4.0-14.0"}}, {"uniqueid": "w24869720:a37454990", "current_trial": 19, "dateTime": 1664463574873, "trialdata": {"rt": 1148, "stimulus": "<p id='stroop-text' class='stroop-red'>YELLOW</p>", "response": "r", "stimulus-type": "incongruent", "word": "yellow", "color": "red", "correct_response": "r", "trial_id": "stroop-trial-1-incongruent-9", "trial_type": "html-keyboard-response", "trial_index": 19, "time_elapsed": 194309, "internal_node_id": "0.0-4.0-15.0"}}, {"uniqueid": "w24869720:a37454990", "current_trial": 20, "dateTime": 1664463576069, "trialdata": {"rt": 689, "stimulus": "<p id='stroop-text' class='stroop-red'>BLUE</p>", "response": "r", "stimulus-type": "incongruent", "word": "blue", "color": "red", "correct_response": "r", "trial_id": "stroop-trial-1-incongruent-1", "trial_type": "html-keyboard-response", "trial_index": 20, "time_elapsed": 195505, "internal_node_id": "0.0-4.0-16.0"}}, {"uniqueid": "w24869720:a37454990", "current_trial": 21, "dateTime": 1664463577119, "trialdata": {"rt": 538, "stimulus": "<p id='stroop-text' class='stroop-red'>RED</p>", "response": "r", "stimulus-type": "congruent", "word": "red", "color": "red", "correct_response": "r", "trial_id": "stroop-trial-1-congruent-16", "trial_type": "html-keyboard-response", "trial_index": 21, "time_elapsed": 196556, "internal_node_id": "0.0-4.0-17.0"}}, {"uniqueid": "w24869720:a37454990", "current_trial": 22, "dateTime": 1664463578111, "trialdata": {"rt": 483, "stimulus": "<p id='stroop-text' class='stroop-blue'>BLUE</p>", "response": "b", "stimulus-type": "congruent", "word": "blue", "color": "blue", "correct_response": "b", "trial_id": "stroop-trial-1-congruent-15", "trial_type": "html-keyboard-response", "trial_index": 22, "time_elapsed": 197547, "internal_node_id": "0.0-4.0-18.0"}}, {"uniqueid": "w24869720:a37454990", "current_trial": 23, "dateTime": 1664463579434, "trialdata": {"rt": 809, "stimulus": "<p id='stroop-text' class='stroop-red'>BLUE</p>", "response": "r", "stimulus-type": "incongruent", "word": "blue", "color": "red", "correct_response": "r", "trial_id": "stroop-trial-1-incongruent-6", "trial_type": "html-keyboard-response", "trial_index": 23, "time_elapsed": 198870, "internal_node_id": "0.0-4.0-19.0"}}, {"uniqueid": "w24869720:a37454990", "current_trial": 24, "dateTime": 1664463581066, "trialdata": {"rt": 1124, "stimulus": "<p id='stroop-text' class='stroop-red'>SHIP</p>", "response": "r", "stimulus-type": "unrelated", "word": "SHIP", "color": "red", "correct_response": "r", "trial_id": "stroop-trial-1-unrelated-11", "trial_type": "html-keyboard-response", "trial_index": 24, "time_elapsed": 200503, "internal_node_id": "0.0-4.0-20.0"}}, {"uniqueid": "w24869720:a37454990", "current_trial": 25, "dateTime": 1664463582221, "trialdata": {"rt": 646, "stimulus": "<p id='stroop-text' class='stroop-blue'>BLUE</p>", "response": "b", "stimulus-type": "congruent", "word": "blue", "color": "blue", "correct_response": "b", "trial_id": "stroop-trial-1-congruent-24", "trial_type": "html-keyboard-response", "trial_index": 25, "time_elapsed": 201657, "internal_node_id": "0.0-4.0-21.0"}}, {"uniqueid": "w24869720:a37454990", "current_trial": 26, "dateTime": 1664463583674, "trialdata": {"rt": 947, "stimulus": "<p id='stroop-text' class='stroop-red'>FORK</p>", "response": "r", "stimulus-type": "unrelated", "word": "FORK", "color": "red", "correct_response": "r", "trial_id": "stroop-trial-1-unrelated-28", "trial_type": "html-keyboard-response", "trial_index": 26, "time_elapsed": 203110, "internal_node_id": "0.0-4.0-22.0"}}, {"uniqueid": "w24869720:a37454990", "current_trial": 27, "dateTime": 1664463584927, "trialdata": {"rt": 746, "stimulus": "<p id='stroop-text' class='stroop-yellow'>BOAT</p>", "response": "y", "stimulus-type": "unrelated", "word": "BOAT", "color": "yellow", "correct_response": "y", "trial_id": "stroop-trial-1-unrelated-3", "trial_type": "html-keyboard-response", "trial_index": 27, "time_elapsed": 204363, "internal_node_id": "0.0-4.0-23.0"}}, {"uniqueid": "w24869720:a37454990", "current_trial": 28, "dateTime": 1664463586601, "trialdata": {"rt": 1163, "stimulus": "<p id='stroop-text' class='stroop-green'>STONE</p>", "response": "g", "stimulus-type": "unrelated", "word": "STONE", "color": "green", "correct_response": "g", "trial_id": "stroop-trial-1-unrelated-25", "trial_type": "html-keyboard-response", "trial_index": 28, "time_elapsed": 206037, "internal_node_id": "0.0-4.0-24.0"}}, {"uniqueid": "w24869720:a37454990", "current_trial": 29, "dateTime": 1664463587821, "trialdata": {"rt": 712, "stimulus": "<p id='stroop-text' class='stroop-blue'>YELLOW</p>", "response": "b", "stimulus-type": "incongruent", "word": "yellow", "color": "blue", "correct_response": "b", "trial_id": "stroop-trial-1-incongruent-21", "trial_type": "html-keyboard-response", "trial_index": 29, "time_elapsed": 207257, "internal_node_id": "0.0-4.0-25.0"}}, {"uniqueid": "w24869720:a37454990", "current_trial": 30, "dateTime": 1664463589268, "trialdata": {"rt": 939, "stimulus": "<p id='stroop-text' class='stroop-green'>BLUE</p>", "response": "g", "stimulus-type": "incongruent", "word": "blue", "color": "green", "correct_response": "g", "trial_id": "stroop-trial-1-incongruent-20", "trial_type": "html-keyboard-response", "trial_index": 30, "time_elapsed": 208704, "internal_node_id": "0.0-4.0-26.0"}}, {"uniqueid": "w24869720:a37454990", "current_trial": 31, "dateTime": 1664463590507, "trialdata": {"rt": 728, "stimulus": "<p id='stroop-text' class='stroop-red'>RED</p>", "response": "r", "stimulus-type": "congruent", "word": "red", "color": "red", "correct_response": "r", "trial_id": "stroop-trial-1-congruent-7", "trial_type": "html-keyboard-response", "trial_index": 31, "time_elapsed": 209943, "internal_node_id": "0.0-4.0-27.0"}}, {"uniqueid": "w24869720:a37454990", "current_trial": 32, "dateTime": 1664463591923, "trialdata": {"rt": 908, "stimulus": "<p id='stroop-text' class='stroop-green'>BLUE</p>", "response": "g", "stimulus-type": "incongruent", "word": "blue", "color": "green", "correct_response": "g", "trial_id": "stroop-trial-1-incongruent-19", "trial_type": "html-keyboard-response", "trial_index": 32, "time_elapsed": 211359, "internal_node_id": "0.0-4.0-28.0"}}, {"uniqueid": "w24869720:a37454990", "current_trial": 33, "dateTime": 1664463592997, "trialdata": {"rt": 567, "stimulus": "<p id='stroop-text' class='stroop-red'>RED</p>", "response": "r", "stimulus-type": "congruent", "word": "red", "color": "red", "correct_response": "r", "trial_id": "stroop-trial-1-congruent-20", "trial_type": "html-keyboard-response", "trial_index": 33, "time_elapsed": 212433, "internal_node_id": "0.0-4.0-29.0"}}, {"uniqueid": "w24869720:a37454990", "current_trial": 34, "dateTime": 1664463594211, "trialdata": {"rt": 707, "stimulus": "<p id='stroop-text' class='stroop-blue'>YELLOW</p>", "response": "b", "stimulus-type": "incongruent", "word": "yellow", "color": "blue", "correct_response": "b", "trial_id": "stroop-trial-1-incongruent-12", "trial_type": "html-keyboard-response", "trial_index": 34, "time_elapsed": 213647, "internal_node_id": "0.0-4.0-30.0"}}, {"uniqueid": "w24869720:a37454990", "current_trial": 35, "dateTime": 1664463595195, "trialdata": {"rt": 476, "stimulus": "<p id='stroop-text' class='stroop-blue'>WINDOW</p>", "response": "b", "stimulus-type": "unrelated", "word": "WINDOW", "color": "blue", "correct_response": "b", "trial_id": "stroop-trial-1-unrelated-18", "trial_type": "html-keyboard-response", "trial_index": 35, "time_elapsed": 214631, "internal_node_id": "0.0-4.0-31.0"}}, {"uniqueid": "w24869720:a37454990", "current_trial": 36, "dateTime": 1664463596315, "trialdata": {"rt": 612, "stimulus": "<p id='stroop-text' class='stroop-red'>SHIP</p>", "response": "r", "stimulus-type": "unrelated", "word": "SHIP", "color": "red", "correct_response": "r", "trial_id": "stroop-trial-1-unrelated-8", "trial_type": "html-keyboard-response", "trial_index": 36, "time_elapsed": 215751, "internal_node_id": "0.0-4.0-32.0"}}, {"uniqueid": "w24869720:a37454990", "current_trial": 37, "dateTime": 1664463597395, "trialdata": {"rt": 569, "stimulus": "<p id='stroop-text' class='stroop-yellow'>YELLOW</p>", "response": "y", "stimulus-type": "congruent", "word": "yellow", "color": "yellow", "correct_response": "y", "trial_id": "stroop-trial-1-congruent-30", "trial_type": "html-keyboard-response", "trial_index": 37, "time_elapsed": 216831, "internal_node_id": "0.0-4.0-33.0"}}, {"uniqueid": "w24869720:a37454990", "current_trial": 38, "dateTime": 1664463598409, "trialdata": {"rt": 502, "stimulus": "<p id='stroop-text' class='stroop-yellow'>YELLOW</p>", "response": "y", "stimulus-type": "congruent", "word": "yellow", "color": "yellow", "correct_response": "y", "trial_id": "stroop-trial-1-congruent-14", "trial_type": "html-keyboard-response", "trial_index": 38, "time_elapsed": 217845, "internal_node_id": "0.0-4.0-34.0"}}, {"uniqueid": "w24869720:a37454990", "current_trial": 39, "dateTime": 1664463599435, "trialdata": {"rt": 516, "stimulus": "<p id='stroop-text' class='stroop-blue'>BLUE</p>", "response": "b", "stimulus-type": "congruent", "word": "blue", "color": "blue", "correct_response": "b", "trial_id": "stroop-trial-1-congruent-5", "trial_type": "html-keyboard-response", "trial_index": 39, "time_elapsed": 218871, "internal_node_id": "0.0-4.0-35.0"}}, {"uniqueid": "w24869720:a37454990", "current_trial": 40, "dateTime": 1664463601025, "trialdata": {"rt": 1078, "stimulus": "<p id='stroop-text' class='stroop-yellow'>GREEN</p>", "response": "y", "stimulus-type": "incongruent", "word": "green", "color": "yellow", "correct_response": "y", "trial_id": "stroop-trial-1-incongruent-14", "trial_type": "html-keyboard-response", "trial_index": 40, "time_elapsed": 220461, "internal_node_id": "0.0-4.0-36.0"}}, {"uniqueid": "w24869720:a37454990", "current_trial": 41, "dateTime": 1664463602633, "trialdata": {"rt": 1100, "stimulus": "<p id='stroop-text' class='stroop-red'>YELLOW</p>", "response": "r", "stimulus-type": "incongruent", "word": "yellow", "color": "red", "correct_response": "r", "trial_id": "stroop-trial-1-incongruent-17", "trial_type": "html-keyboard-response", "trial_index": 41, "time_elapsed": 222069, "internal_node_id": "0.0-4.0-37.0"}}, {"uniqueid": "w24869720:a37454990", "current_trial": 42, "dateTime": 1664463605696, "trialdata": {"rt": 2555, "stimulus": "<p id='stroop-text' class='stroop-red'>GREEN</p>", "response": "r", "stimulus-type": "incongruent", "word": "green", "color": "red", "correct_response": "r", "trial_id": "stroop-trial-1-incongruent-4", "trial_type": "html-keyboard-response", "trial_index": 42, "time_elapsed": 225133, "internal_node_id": "0.0-4.0-38.0"}}, {"uniqueid": "w24869720:a37454990", "current_trial": 43, "dateTime": 1664463607205, "trialdata": {"rt": 1003, "stimulus": "<p id='stroop-text' class='stroop-yellow'>WINDOW</p>", "response": "y", "stimulus-type": "unrelated", "word": "WINDOW", "color": "yellow", "correct_response": "y", "trial_id": "stroop-trial-1-unrelated-6", "trial_type": "html-keyboard-response", "trial_index": 43, "time_elapsed": 226641, "internal_node_id": "0.0-4.0-39.0"}}, {"uniqueid": "w24869720:a37454990", "current_trial": 44, "dateTime": 1664463608184, "trialdata": {"rt": 473, "stimulus": "<p id='stroop-text' class='stroop-blue'>RED</p>", "response": "b", "stimulus-type": "incongruent", "word": "red", "color": "blue", "correct_response": "b", "trial_id": "stroop-trial-1-incongruent-25", "trial_type": "html-keyboard-response", "trial_index": 44, "time_elapsed": 227621, "internal_node_id": "0.0-4.0-40.0"}}, {"uniqueid": "w24869720:a37454990", "current_trial": 45, "dateTime": 1664463609303, "trialdata": {"rt": 610, "stimulus": "<p id='stroop-text' class='stroop-blue'>BLUE</p>", "response": "b", "stimulus-type": "congruent", "word": "blue", "color": "blue", "correct_response": "b", "trial_id": "stroop-trial-1-congruent-13", "trial_type": "html-keyboard-response", "trial_index": 45, "time_elapsed": 228739, "internal_node_id": "0.0-4.0-41.0"}}, {"uniqueid": "w24869720:a37454990", "current_trial": 46, "dateTime": 1664463610591, "trialdata": {"rt": 781, "stimulus": "<p id='stroop-text' class='stroop-red'>STONE</p>", "response": "r", "stimulus-type": "unrelated", "word": "STONE", "color": "red", "correct_response": "r", "trial_id": "stroop-trial-1-unrelated-29", "trial_type": "html-keyboard-response", "trial_index": 46, "time_elapsed": 230027, "internal_node_id": "0.0-4.0-42.0"}}, {"uniqueid": "w24869720:a37454990", "current_trial": 47, "dateTime": 1664463612908, "trialdata": {"rt": 1809, "stimulus": "<p id='stroop-text' class='stroop-yellow'>BLUE</p>", "response": "y", "stimulus-type": "incongruent", "word": "blue", "color": "yellow", "correct_response": "y", "trial_id": "stroop-trial-1-incongruent-27", "trial_type": "html-keyboard-response", "trial_index": 47, "time_elapsed": 232344, "internal_node_id": "0.0-4.0-43.0"}}, {"uniqueid": "w24869720:a37454990", "current_trial": 48, "dateTime": 1664463614988, "trialdata": {"rt": 1568, "stimulus": "<p id='stroop-text' class='stroop-green'>CHAIR</p>", "response": "g", "stimulus-type": "unrelated", "word": "CHAIR", "color": "green", "correct_response": "g", "trial_id": "stroop-trial-1-unrelated-22", "trial_type": "html-keyboard-response", "trial_index": 48, "time_elapsed": 234424, "internal_node_id": "0.0-4.0-44.0"}}, {"uniqueid": "w24869720:a37454990", "current_trial": 49, "dateTime": 1664463617597, "trialdata": {"rt": 2101, "stimulus": "<p id='stroop-text' class='stroop-yellow'>FORK</p>", "response": "y", "stimulus-type": "unrelated", "word": "FORK", "color": "yellow", "correct_response": "y", "trial_id": "stroop-trial-1-unrelated-7", "trial_type": "html-keyboard-response", "trial_index": 49, "time_elapsed": 237033, "internal_node_id": "0.0-4.0-45.0"}}, {"uniqueid": "w24869720:a37454990", "current_trial": 50, "dateTime": 1664463619525, "trialdata": {"rt": 1418, "stimulus": "<p id='stroop-text' class='stroop-green'>GREEN</p>", "response": "g", "stimulus-type": "congruent", "word": "green", "color": "green", "correct_response": "g", "trial_id": "stroop-trial-1-congruent-3", "trial_type": "html-keyboard-response", "trial_index": 50, "time_elapsed": 238961, "internal_node_id": "0.0-4.0-46.0"}}, {"uniqueid": "w24869720:a37454990", "current_trial": 51, "dateTime": 1664463621513, "trialdata": {"rt": 1484, "stimulus": "<p id='stroop-text' class='stroop-blue'>BLUE</p>", "response": "b", "stimulus-type": "congruent", "word": "blue", "color": "blue", "correct_response": "b", "trial_id": "stroop-trial-1-congruent-10", "trial_type": "html-keyboard-response", "trial_index": 51, "time_elapsed": 240949, "internal_node_id": "0.0-4.0-47.0"}}, {"uniqueid": "w24869720:a37454990", "current_trial": 52, "dateTime": 1664463623524, "trialdata": {"rt": 1505, "stimulus": "<p id='stroop-text' class='stroop-yellow'>YELLOW</p>", "response": "y", "stimulus-type": "congruent", "word": "yellow", "color": "yellow", "correct_response": "y", "trial_id": "stroop-trial-1-congruent-21", "trial_type": "html-keyboard-response", "trial_index": 52, "time_elapsed": 242961, "internal_node_id": "0.0-4.0-48.0"}}, {"uniqueid": "w24869720:a37454990", "current_trial": 53, "dateTime": 1664463625944, "trialdata": {"rt": 1857, "stimulus": "<p id='stroop-text' class='stroop-green'>GREEN</p>", "response": "g", "stimulus-type": "congruent", "word": "green", "color": "green", "correct_response": "g", "trial_id": "stroop-trial-1-congruent-19", "trial_type": "html-keyboard-response", "trial_index": 53, "time_elapsed": 245379, "internal_node_id": "0.0-4.0-49.0"}}, {"uniqueid": "w24869720:a37454990", "current_trial": 54, "dateTime": 1664463627722, "trialdata": {"rt": 1271, "stimulus": "<p id='stroop-text' class='stroop-red'>RED</p>", "response": "r", "stimulus-type": "congruent", "word": "red", "color": "red", "correct_response": "r", "trial_id": "stroop-trial-1-congruent-25", "trial_type": "html-keyboard-response", "trial_index": 54, "time_elapsed": 247158, "internal_node_id": "0.0-4.0-50.0"}}, {"uniqueid": "w24869720:a37454990", "current_trial": 55, "dateTime": 1664463629746, "trialdata": {"rt": 1517, "stimulus": "<p id='stroop-text' class='stroop-green'>FORK</p>", "response": "g", "stimulus-type": "unrelated", "word": "FORK", "color": "green", "correct_response": "g", "trial_id": "stroop-trial-1-unrelated-21", "trial_type": "html-keyboard-response", "trial_index": 55, "time_elapsed": 249183, "internal_node_id": "0.0-4.0-51.0"}}, {"uniqueid": "w24869720:a37454990", "current_trial": 56, "dateTime": 1664463631309, "trialdata": {"rt": 1057, "stimulus": "<p id='stroop-text' class='stroop-red'>BOAT</p>", "response": "r", "stimulus-type": "unrelated", "word": "BOAT", "color": "red", "correct_response": "r", "trial_id": "stroop-trial-1-unrelated-27", "trial_type": "html-keyboard-response", "trial_index": 56, "time_elapsed": 250746, "internal_node_id": "0.0-4.0-52.0"}}, {"uniqueid": "w24869720:a37454990", "current_trial": 57, "dateTime": 1664463632421, "trialdata": {"rt": 597, "stimulus": "<p id='stroop-text' class='stroop-red'>RED</p>", "response": "r", "stimulus-type": "congruent", "word": "red", "color": "red", "correct_response": "r", "trial_id": "stroop-trial-1-congruent-23", "trial_type": "html-keyboard-response", "trial_index": 57, "time_elapsed": 251857, "internal_node_id": "0.0-4.0-53.0"}}, {"uniqueid": "w24869720:a37454990", "current_trial": 58, "dateTime": 1664463633618, "trialdata": {"rt": 690, "stimulus": "<p id='stroop-text' class='stroop-blue'>YELLOW</p>", "response": "b", "stimulus-type": "incongruent", "word": "yellow", "color": "blue", "correct_response": "b", "trial_id": "stroop-trial-1-incongruent-11", "trial_type": "html-keyboard-response", "trial_index": 58, "time_elapsed": 253055, "internal_node_id": "0.0-4.0-54.0"}}, {"uniqueid": "w24869720:a37454990", "current_trial": 59, "dateTime": 1664463635799, "trialdata": {"rt": 1645, "stimulus": "<p id='stroop-text' class='stroop-yellow'>STONE</p>", "response": "y", "stimulus-type": "unrelated", "word": "STONE", "color": "yellow", "correct_response": "y", "trial_id": "stroop-trial-1-unrelated-26", "trial_type": "html-keyboard-response", "trial_index": 59, "time_elapsed": 255235, "internal_node_id": "0.0-4.0-55.0"}}, {"uniqueid": "w24869720:a37454990", "current_trial": 60, "dateTime": 1664463636974, "trialdata": {"rt": 666, "stimulus": "<p id='stroop-text' class='stroop-red'>RED</p>", "response": "r", "stimulus-type": "congruent", "word": "red", "color": "red", "correct_response": "r", "trial_id": "stroop-trial-1-congruent-18", "trial_type": "html-keyboard-response", "trial_index": 60, "time_elapsed": 256410, "internal_node_id": "0.0-4.0-56.0"}}, {"uniqueid": "w24869720:a37454990", "current_trial": 61, "dateTime": 1664463638411, "trialdata": {"rt": 928, "stimulus": "<p id='stroop-text' class='stroop-red'>BRAIN</p>", "response": "r", "stimulus-type": "unrelated", "word": "BRAIN", "color": "red", "correct_response": "r", "trial_id": "stroop-trial-1-unrelated-19", "trial_type": "html-keyboard-response", "trial_index": 61, "time_elapsed": 257848, "internal_node_id": "0.0-4.0-57.0"}}, {"uniqueid": "w24869720:a37454990", "current_trial": 62, "dateTime": 1664463639614, "trialdata": {"rt": 683, "stimulus": "<p id='stroop-text' class='stroop-green'>GREEN</p>", "response": "g", "stimulus-type": "congruent", "word": "green", "color": "green", "correct_response": "g", "trial_id": "stroop-trial-1-congruent-28", "trial_type": "html-keyboard-response", "trial_index": 62, "time_elapsed": 259051, "internal_node_id": "0.0-4.0-58.0"}}, {"uniqueid": "w24869720:a37454990", "current_trial": 63, "dateTime": 1664463640808, "trialdata": {"rt": 681, "stimulus": "<p id='stroop-text' class='stroop-green'>CHAIR</p>", "response": "g", "stimulus-type": "unrelated", "word": "CHAIR", "color": "green", "correct_response": "g", "trial_id": "stroop-trial-1-unrelated-23", "trial_type": "html-keyboard-response", "trial_index": 63, "time_elapsed": 260244, "internal_node_id": "0.0-4.0-59.0"}}, {"uniqueid": "w24869720:a37454990", "current_trial": 64, "dateTime": 1664463641768, "trialdata": {"rt": 452, "stimulus": "<p id='stroop-text' class='stroop-yellow'>FORK</p>", "response": "y", "stimulus-type": "unrelated", "word": "FORK", "color": "yellow", "correct_response": "y", "trial_id": "stroop-trial-1-unrelated-5", "trial_type": "html-keyboard-response", "trial_index": 64, "time_elapsed": 261204, "internal_node_id": "0.0-4.0-60.0"}}, {"uniqueid": "w24869720:a37454990", "current_trial": 65, "dateTime": 1664463642936, "trialdata": {"rt": 655, "stimulus": "<p id='stroop-text' class='stroop-blue'>SHIP</p>", "response": "b", "stimulus-type": "unrelated", "word": "SHIP", "color": "blue", "correct_response": "b", "trial_id": "stroop-trial-1-unrelated-24", "trial_type": "html-keyboard-response", "trial_index": 65, "time_elapsed": 262372, "internal_node_id": "0.0-4.0-61.0"}}, {"uniqueid": "w24869720:a37454990", "current_trial": 66, "dateTime": 1664463644164, "trialdata": {"rt": 717, "stimulus": "<p id='stroop-text' class='stroop-yellow'>BOAT</p>", "response": "y", "stimulus-type": "unrelated", "word": "BOAT", "color": "yellow", "correct_response": "y", "trial_id": "stroop-trial-1-unrelated-9", "trial_type": "html-keyboard-response", "trial_index": 66, "time_elapsed": 263600, "internal_node_id": "0.0-4.0-62.0"}}, {"uniqueid": "w24869720:a37454990", "current_trial": 67, "dateTime": 1664463645409, "trialdata": {"rt": 734, "stimulus": "<p id='stroop-text' class='stroop-green'>YELLOW</p>", "response": "g", "stimulus-type": "incongruent", "word": "yellow", "color": "green", "correct_response": "g", "trial_id": "stroop-trial-1-incongruent-29", "trial_type": "html-keyboard-response", "trial_index": 67, "time_elapsed": 264844, "internal_node_id": "0.0-4.0-63.0"}}, {"uniqueid": "w24869720:a37454990", "current_trial": 68, "dateTime": 1664463646356, "trialdata": {"rt": 433, "stimulus": "<p id='stroop-text' class='stroop-green'>GREEN</p>", "response": "g", "stimulus-type": "congruent", "word": "green", "color": "green", "correct_response": "g", "trial_id": "stroop-trial-1-congruent-26", "trial_type": "html-keyboard-response", "trial_index": 68, "time_elapsed": 265792, "internal_node_id": "0.0-4.0-64.0"}}, {"uniqueid": "w24869720:a37454990", "current_trial": 69, "dateTime": 1664463647357, "trialdata": {"rt": 495, "stimulus": "<p id='stroop-text' class='stroop-blue'>BRAIN</p>", "response": "b", "stimulus-type": "unrelated", "word": "BRAIN", "color": "blue", "correct_response": "b", "trial_id": "stroop-trial-1-unrelated-10", "trial_type": "html-keyboard-response", "trial_index": 69, "time_elapsed": 266793, "internal_node_id": "0.0-4.0-65.0"}}, {"uniqueid": "w24869720:a37454990", "current_trial": 70, "dateTime": 1664463648288, "trialdata": {"rt": 421, "stimulus": "<p id='stroop-text' class='stroop-blue'>BLUE</p>", "response": "b", "stimulus-type": "congruent", "word": "blue", "color": "blue", "correct_response": "b", "trial_id": "stroop-trial-1-congruent-11", "trial_type": "html-keyboard-response", "trial_index": 70, "time_elapsed": 267724, "internal_node_id": "0.0-4.0-66.0"}}, {"uniqueid": "w24869720:a37454990", "current_trial": 71, "dateTime": 1664463649195, "trialdata": {"rt": 395, "stimulus": "<p id='stroop-text' class='stroop-green'>RED</p>", "response": "y", "stimulus-type": "incongruent", "word": "red", "color": "green", "correct_response": "g", "trial_id": "stroop-trial-1-incongruent-2", "trial_type": "html-keyboard-response", "trial_index": 71, "time_elapsed": 268631, "internal_node_id": "0.0-4.0-67.0"}}, {"uniqueid": "w24869720:a37454990", "current_trial": 72, "dateTime": 1664463650518, "trialdata": {"rt": 813, "stimulus": "<p id='stroop-text' class='stroop-green'>GREEN</p>", "response": "g", "stimulus-type": "congruent", "word": "green", "color": "green", "correct_response": "g", "trial_id": "stroop-trial-1-congruent-2", "trial_type": "html-keyboard-response", "trial_index": 72, "time_elapsed": 269954, "internal_node_id": "0.0-4.0-68.0"}}, {"uniqueid": "w24869720:a37454990", "current_trial": 73, "dateTime": 1664463651451, "trialdata": {"rt": 425, "stimulus": "<p id='stroop-text' class='stroop-green'>GREEN</p>", "response": "g", "stimulus-type": "congruent", "word": "green", "color": "green", "correct_response": "g", "trial_id": "stroop-trial-1-congruent-22", "trial_type": "html-keyboard-response", "trial_index": 73, "time_elapsed": 270887, "internal_node_id": "0.0-4.0-69.0"}}, {"uniqueid": "w24869720:a37454990", "current_trial": 74, "dateTime": 1664463652446, "trialdata": {"rt": 483, "stimulus": "<p id='stroop-text' class='stroop-green'>BOTTLE</p>", "response": "g", "stimulus-type": "unrelated", "word": "BOTTLE", "color": "green", "correct_response": "g", "trial_id": "stroop-trial-1-unrelated-12", "trial_type": "html-keyboard-response", "trial_index": 74, "time_elapsed": 271882, "internal_node_id": "0.0-4.0-70.0"}}, {"uniqueid": "w24869720:a37454990", "current_trial": 75, "dateTime": 1664463653442, "trialdata": {"rt": 486, "stimulus": "<p id='stroop-text' class='stroop-red'>RED</p>", "response": "r", "stimulus-type": "congruent", "word": "red", "color": "red", "correct_response": "r", "trial_id": "stroop-trial-1-congruent-27", "trial_type": "html-keyboard-response", "trial_index": 75, "time_elapsed": 272879, "internal_node_id": "0.0-4.0-71.0"}}, {"uniqueid": "w24869720:a37454990", "current_trial": 76, "dateTime": 1664463654666, "trialdata": {"rt": 715, "stimulus": "<p id='stroop-text' class='stroop-yellow'>MONKEY</p>", "response": "y", "stimulus-type": "unrelated", "word": "MONKEY", "color": "yellow", "correct_response": "y", "trial_id": "stroop-trial-1-unrelated-4", "trial_type": "html-keyboard-response", "trial_index": 76, "time_elapsed": 274102, "internal_node_id": "0.0-4.0-72.0"}}, {"uniqueid": "w24869720:a37454990", "current_trial": 77, "dateTime": 1664463655871, "trialdata": {"rt": 694, "stimulus": "<p id='stroop-text' class='stroop-red'>RED</p>", "response": "r", "stimulus-type": "congruent", "word": "red", "color": "red", "correct_response": "r", "trial_id": "stroop-trial-1-congruent-12", "trial_type": "html-keyboard-response", "trial_index": 77, "time_elapsed": 275308, "internal_node_id": "0.0-4.0-73.0"}}, {"uniqueid": "w24869720:a37454990", "current_trial": 78, "dateTime": 1664463657801, "trialdata": {"rt": 1421, "stimulus": "<p id='stroop-text' class='stroop-green'>YELLOW</p>", "response": "g", "stimulus-type": "incongruent", "word": "yellow", "color": "green", "correct_response": "g", "trial_id": "stroop-trial-1-incongruent-3", "trial_type": "html-keyboard-response", "trial_index": 78, "time_elapsed": 277237, "internal_node_id": "0.0-4.0-74.0"}}, {"uniqueid": "w24869720:a37454990", "current_trial": 79, "dateTime": 1664463659016, "trialdata": {"rt": 707, "stimulus": "<p id='stroop-text' class='stroop-blue'>RED</p>", "response": "b", "stimulus-type": "incongruent", "word": "red", "color": "blue", "correct_response": "b", "trial_id": "stroop-trial-1-incongruent-18", "trial_type": "html-keyboard-response", "trial_index": 79, "time_elapsed": 278452, "internal_node_id": "0.0-4.0-75.0"}}, {"uniqueid": "w24869720:a37454990", "current_trial": 80, "dateTime": 1664463660354, "trialdata": {"rt": 829, "stimulus": "<p id='stroop-text' class='stroop-yellow'>GREEN</p>", "response": "y", "stimulus-type": "incongruent", "word": "green", "color": "yellow", "correct_response": "y", "trial_id": "stroop-trial-1-incongruent-15", "trial_type": "html-keyboard-response", "trial_index": 80, "time_elapsed": 279790, "internal_node_id": "0.0-4.0-76.0"}}, {"uniqueid": "w24869720:a37454990", "current_trial": 81, "dateTime": 1664463661738, "trialdata": {"rt": 875, "stimulus": "<p id='stroop-text' class='stroop-blue'>FORK</p>", "response": "b", "stimulus-type": "unrelated", "word": "FORK", "color": "blue", "correct_response": "b", "trial_id": "stroop-trial-1-unrelated-17", "trial_type": "html-keyboard-response", "trial_index": 81, "time_elapsed": 281174, "internal_node_id": "0.0-4.0-77.0"}}, {"uniqueid": "w24869720:a37454990", "current_trial": 82, "dateTime": 1664463663059, "trialdata": {"rt": 812, "stimulus": "<p id='stroop-text' class='stroop-yellow'>STONE</p>", "response": "y", "stimulus-type": "unrelated", "word": "STONE", "color": "yellow", "correct_response": "y", "trial_id": "stroop-trial-1-unrelated-15", "trial_type": "html-keyboard-response", "trial_index": 82, "time_elapsed": 282495, "internal_node_id": "0.0-4.0-78.0"}}, {"uniqueid": "w24869720:a37454990", "current_trial": 83, "dateTime": 1664463664198, "trialdata": {"rt": 630, "stimulus": "<p id='stroop-text' class='stroop-red'>RED</p>", "response": "r", "stimulus-type": "congruent", "word": "red", "color": "red", "correct_response": "r", "trial_id": "stroop-trial-1-congruent-9", "trial_type": "html-keyboard-response", "trial_index": 83, "time_elapsed": 283634, "internal_node_id": "0.0-4.0-79.0"}}, {"uniqueid": "w24869720:a37454990", "current_trial": 84, "dateTime": 1664463665488, "trialdata": {"rt": 782, "stimulus": "<p id='stroop-text' class='stroop-green'>DOG</p>", "response": "g", "stimulus-type": "unrelated", "word": "DOG", "color": "green", "correct_response": "g", "trial_id": "stroop-trial-1-unrelated-13", "trial_type": "html-keyboard-response", "trial_index": 84, "time_elapsed": 284924, "internal_node_id": "0.0-4.0-80.0"}}, {"uniqueid": "w24869720:a37454990", "current_trial": 85, "dateTime": 1664463666920, "trialdata": {"rt": 923, "stimulus": "<p id='stroop-text' class='stroop-red'>YELLOW</p>", "response": "r", "stimulus-type": "incongruent", "word": "yellow", "color": "red", "correct_response": "r", "trial_id": "stroop-trial-1-incongruent-26", "trial_type": "html-keyboard-response", "trial_index": 85, "time_elapsed": 286356, "internal_node_id": "0.0-4.0-81.0"}}, {"uniqueid": "w24869720:a37454990", "current_trial": 86, "dateTime": 1664463668707, "trialdata": {"rt": 1266, "stimulus": "<p id='stroop-text' class='stroop-green'>YELLOW</p>", "response": "g", "stimulus-type": "incongruent", "word": "yellow", "color": "green", "correct_response": "g", "trial_id": "stroop-trial-1-incongruent-16", "trial_type": "html-keyboard-response", "trial_index": 86, "time_elapsed": 288143, "internal_node_id": "0.0-4.0-82.0"}}, {"uniqueid": "w24869720:a37454990", "current_trial": 87, "dateTime": 1664463670484, "trialdata": {"rt": 1268, "stimulus": "<p id='stroop-text' class='stroop-yellow'>CHAIR</p>", "response": "y", "stimulus-type": "unrelated", "word": "CHAIR", "color": "yellow", "correct_response": "y", "trial_id": "stroop-trial-1-unrelated-16", "trial_type": "html-keyboard-response", "trial_index": 87, "time_elapsed": 289921, "internal_node_id": "0.0-4.0-83.0"}}, {"uniqueid": "w24869720:a37454990", "current_trial": 88, "dateTime": 1664463673963, "trialdata": {"rt": 2970, "stimulus": "<p id='stroop-text' class='stroop-green'>YELLOW</p>", "response": "g", "stimulus-type": "incongruent", "word": "yellow", "color": "green", "correct_response": "g", "trial_id": "stroop-trial-1-incongruent-10", "trial_type": "html-keyboard-response", "trial_index": 88, "time_elapsed": 293399, "internal_node_id": "0.0-4.0-84.0"}}, {"uniqueid": "w24869720:a37454990", "current_trial": 89, "dateTime": 1664463677101, "trialdata": {"rt": 2631, "stimulus": "<p id='stroop-text' class='stroop-red'>SHIP</p>", "response": "r", "stimulus-type": "unrelated", "word": "SHIP", "color": "red", "correct_response": "r", "trial_id": "stroop-trial-1-unrelated-1", "trial_type": "html-keyboard-response", "trial_index": 89, "time_elapsed": 296538, "internal_node_id": "0.0-4.0-85.0"}}, {"uniqueid": "w24869720:a37454990", "current_trial": 90, "dateTime": 1664463678489, "trialdata": {"rt": 878, "stimulus": "<p id='stroop-text' class='stroop-green'>GREEN</p>", "response": "g", "stimulus-type": "congruent", "word": "green", "color": "green", "correct_response": "g", "trial_id": "stroop-trial-1-congruent-1", "trial_type": "html-keyboard-response", "trial_index": 90, "time_elapsed": 297925, "internal_node_id": "0.0-4.0-86.0"}}, {"uniqueid": "w24869720:a37454990", "current_trial": 91, "dateTime": 1664463680736, "trialdata": {"rt": 1739, "stimulus": "<p id='stroop-text' class='stroop-blue'>GREEN</p>", "response": "b", "stimulus-type": "incongruent", "word": "green", "color": "blue", "correct_response": "b", "trial_id": "stroop-trial-1-incongruent-13", "trial_type": "html-keyboard-response", "trial_index": 91, "time_elapsed": 300172, "internal_node_id": "0.0-4.0-87.0"}}, {"uniqueid": "w24869720:a37454990", "current_trial": 92, "dateTime": 1664463682725, "trialdata": {"rt": 1479, "stimulus": "<p id='stroop-text' class='stroop-green'>GREEN</p>", "response": "g", "stimulus-type": "congruent", "word": "green", "color": "green", "correct_response": "g", "trial_id": "stroop-trial-1-congruent-8", "trial_type": "html-keyboard-response", "trial_index": 92, "time_elapsed": 302161, "internal_node_id": "0.0-4.0-88.0"}}, {"uniqueid": "w24869720:a37454990", "current_trial": 93, "dateTime": 1664463684150, "trialdata": {"rt": 913, "stimulus": "<p id='stroop-text' class='stroop-blue'>GREEN</p>", "response": "b", "stimulus-type": "incongruent", "word": "green", "color": "blue", "correct_response": "b", "trial_id": "stroop-trial-1-incongruent-22", "trial_type": "html-keyboard-response", "trial_index": 93, "time_elapsed": 303586, "internal_node_id": "0.0-4.0-89.0"}}, {"uniqueid": "w24869720:a37454990", "current_trial": 94, "dateTime": 1664463707734, "trialdata": {"rt": 23067, "stimulus": "  <h1> End of block! </h1>\n\n  You have reached the end of the block 1/5. If you need a short break, feel free to take one now before moving on.\n\n  <br><br>\n  In the next block, you will complete another 90 rounds of this game.\n\n  <br><br>\n  <div style='text-align: center;'>Press <code>space</code> to begin.</div>\n  <br><br>\n<div style='text-align: center;'>(If the experiment doesn't continue, try clicking on the text and then pressing <code>space</code>.)</div>", "response": " ", "trial_id": "stroop_1_ready_2", "trial_type": "html-keyboard-response", "trial_index": 94, "time_elapsed": 327171, "internal_node_id": "0.0-5.0"}}, {"uniqueid": "w24869720:a37454990", "current_trial": 95, "dateTime": 1664463708744, "trialdata": {"rt": 1004, "stimulus": "<p id='stroop-text' class='stroop-red'>RED</p>", "response": "r", "stimulus-type": "congruent", "word": "red", "color": "red", "correct_response": "r", "trial_id": "stroop-trial-1-congruent-12", "trial_type": "html-keyboard-response", "trial_index": 95, "time_elapsed": 328180, "internal_node_id": "0.0-6.0-0.0"}}, {"uniqueid": "w24869720:a37454990", "current_trial": 96, "dateTime": 1664463709978, "trialdata": {"rt": 725, "stimulus": "<p id='stroop-text' class='stroop-blue'>RED</p>", "response": "r", "stimulus-type": "incongruent", "word": "red", "color": "blue", "correct_response": "b", "trial_id": "stroop-trial-1-incongruent-1", "trial_type": "html-keyboard-response", "trial_index": 96, "time_elapsed": 329414, "internal_node_id": "0.0-6.0-1.0"}}, {"uniqueid": "w24869720:a37454990", "current_trial": 97, "dateTime": 1664463712182, "trialdata": {"rt": 1691, "stimulus": "<p id='stroop-text' class='stroop-yellow'>GREEN</p>", "response": "y", "stimulus-type": "incongruent", "word": "green", "color": "yellow", "correct_response": "y", "trial_id": "stroop-trial-1-incongruent-10", "trial_type": "html-keyboard-response", "trial_index": 97, "time_elapsed": 331619, "internal_node_id": "0.0-6.0-2.0"}}, {"uniqueid": "w24869720:a37454990", "current_trial": 98, "dateTime": 1664463713622, "trialdata": {"rt": 932, "stimulus": "<p id='stroop-text' class='stroop-red'>BOTTLE</p>", "response": "r", "stimulus-type": "unrelated", "word": "BOTTLE", "color": "red", "correct_response": "r", "trial_id": "stroop-trial-1-unrelated-18", "trial_type": "html-keyboard-response", "trial_index": 98, "time_elapsed": 333058, "internal_node_id": "0.0-6.0-3.0"}}, {"uniqueid": "w24869720:a37454990", "current_trial": 99, "dateTime": 1664463715353, "trialdata": {"rt": 1224, "stimulus": "<p id='stroop-text' class='stroop-red'>GREEN</p>", "response": "r", "stimulus-type": "incongruent", "word": "green", "color": "red", "correct_response": "r", "trial_id": "stroop-trial-1-incongruent-11", "trial_type": "html-keyboard-response", "trial_index": 99, "time_elapsed": 334789, "internal_node_id": "0.0-6.0-4.0"}}, {"uniqueid": "w24869720:a37454990", "current_trial": 100, "dateTime": 1664463716469, "trialdata": {"rt": 611, "stimulus": "<p id='stroop-text' class='stroop-yellow'>WINDOW</p>", "response": "y", "stimulus-type": "unrelated", "word": "WINDOW", "color": "yellow", "correct_response": "y", "trial_id": "stroop-trial-1-unrelated-13", "trial_type": "html-keyboard-response", "trial_index": 100, "time_elapsed": 335905, "internal_node_id": "0.0-6.0-5.0"}}, {"uniqueid": "w24869720:a37454990", "current_trial": 101, "dateTime": 1664463717583, "trialdata": {"rt": 588, "stimulus": "<p id='stroop-text' class='stroop-red'>SHIP</p>", "response": "r", "stimulus-type": "unrelated", "word": "SHIP", "color": "red", "correct_response": "r", "trial_id": "stroop-trial-1-unrelated-7", "trial_type": "html-keyboard-response", "trial_index": 101, "time_elapsed": 337019, "internal_node_id": "0.0-6.0-6.0"}}, {"uniqueid": "w24869720:a37454990", "current_trial": 102, "dateTime": 1664463718877, "trialdata": {"rt": 789, "stimulus": "<p id='stroop-text' class='stroop-red'>RED</p>", "response": "r", "stimulus-type": "congruent", "word": "red", "color": "red", "correct_response": "r", "trial_id": "stroop-trial-1-congruent-8", "trial_type": "html-keyboard-response", "trial_index": 102, "time_elapsed": 338313, "internal_node_id": "0.0-6.0-7.0"}}, {"uniqueid": "w24869720:a37454990", "current_trial": 103, "dateTime": 1664463719913, "trialdata": {"rt": 528, "stimulus": "<p id='stroop-text' class='stroop-red'>GREEN</p>", "response": "r", "stimulus-type": "incongruent", "word": "green", "color": "red", "correct_response": "r", "trial_id": "stroop-trial-1-incongruent-23", "trial_type": "html-keyboard-response", "trial_index": 103, "time_elapsed": 339349, "internal_node_id": "0.0-6.0-8.0"}}, {"uniqueid": "w24869720:a37454990", "current_trial": 104, "dateTime": 1664463721143, "trialdata": {"rt": 718, "stimulus": "<p id='stroop-text' class='stroop-green'>GREEN</p>", "response": "g", "stimulus-type": "congruent", "word": "green", "color": "green", "correct_response": "g", "trial_id": "stroop-trial-1-congruent-26", "trial_type": "html-keyboard-response", "trial_index": 104, "time_elapsed": 340579, "internal_node_id": "0.0-6.0-9.0"}}, {"uniqueid": "w24869720:a37454990", "current_trial": 105, "dateTime": 1664463722144, "trialdata": {"rt": 492, "stimulus": "<p id='stroop-text' class='stroop-red'>GREEN</p>", "response": "g", "stimulus-type": "incongruent", "word": "green", "color": "red", "correct_response": "r", "trial_id": "stroop-trial-1-incongruent-12", "trial_type": "html-keyboard-response", "trial_index": 105, "time_elapsed": 341580, "internal_node_id": "0.0-6.0-10.0"}}, {"uniqueid": "w24869720:a37454990", "current_trial": 106, "dateTime": 1664463725604, "trialdata": {"rt": 2951, "stimulus": "<p id='stroop-text' class='stroop-green'>RED</p>", "response": "g", "stimulus-type": "incongruent", "word": "red", "color": "green", "correct_response": "g", "trial_id": "stroop-trial-1-incongruent-14", "trial_type": "html-keyboard-response", "trial_index": 106, "time_elapsed": 345040, "internal_node_id": "0.0-6.0-11.0"}}, {"uniqueid": "w24869720:a37454990", "current_trial": 107, "dateTime": 1664463727144, "trialdata": {"rt": 1030, "stimulus": "<p id='stroop-text' class='stroop-blue'>FORK</p>", "response": "b", "stimulus-type": "unrelated", "word": "FORK", "color": "blue", "correct_response": "b", "trial_id": "stroop-trial-1-unrelated-16", "trial_type": "html-keyboard-response", "trial_index": 107, "time_elapsed": 346580, "internal_node_id": "0.0-6.0-12.0"}}, {"uniqueid": "w24869720:a37454990", "current_trial": 108, "dateTime": 1664463729635, "trialdata": {"rt": 1982, "stimulus": "<p id='stroop-text' class='stroop-yellow'>RED</p>", "response": "y", "stimulus-type": "incongruent", "word": "red", "color": "yellow", "correct_response": "y", "trial_id": "stroop-trial-1-incongruent-27", "trial_type": "html-keyboard-response", "trial_index": 108, "time_elapsed": 349072, "internal_node_id": "0.0-6.0-13.0"}}, {"uniqueid": "w24869720:a37454990", "current_trial": 109, "dateTime": 1664463731509, "trialdata": {"rt": 1365, "stimulus": "<p id='stroop-text' class='stroop-red'>GREEN</p>", "response": "r", "stimulus-type": "incongruent", "word": "green", "color": "red", "correct_response": "r", "trial_id": "stroop-trial-1-incongruent-22", "trial_type": "html-keyboard-response", "trial_index": 109, "time_elapsed": 350945, "internal_node_id": "0.0-6.0-14.0"}}, {"uniqueid": "w24869720:a37454990", "current_trial": 110, "dateTime": 1664463739248, "trialdata": {"rt": 7226, "stimulus": "<p id='stroop-text' class='stroop-blue'>RED</p>", "response": "b", "stimulus-type": "incongruent", "word": "red", "color": "blue", "correct_response": "b", "trial_id": "stroop-trial-1-incongruent-29", "trial_type": "html-keyboard-response", "trial_index": 110, "time_elapsed": 358684, "internal_node_id": "0.0-6.0-15.0"}}, {"uniqueid": "w24869720:a37454990", "current_trial": 111, "dateTime": 1664463744998, "trialdata": {"rt": 5163, "stimulus": "<p id='stroop-text' class='stroop-green'>RED</p>", "response": "g", "stimulus-type": "incongruent", "word": "red", "color": "green", "correct_response": "g", "trial_id": "stroop-trial-1-incongruent-21", "trial_type": "html-keyboard-response", "trial_index": 111, "time_elapsed": 364434, "internal_node_id": "0.0-6.0-16.0"}}, {"uniqueid": "w24869720:a37454990", "current_trial": 112, "dateTime": 1664463746631, "trialdata": {"rt": 1124, "stimulus": "<p id='stroop-text' class='stroop-yellow'>BRAIN</p>", "response": "y", "stimulus-type": "unrelated", "word": "BRAIN", "color": "yellow", "correct_response": "y", "trial_id": "stroop-trial-1-unrelated-9", "trial_type": "html-keyboard-response", "trial_index": 112, "time_elapsed": 366068, "internal_node_id": "0.0-6.0-17.0"}}, {"uniqueid": "w24869720:a37454990", "current_trial": 113, "dateTime": 1664463748585, "trialdata": {"rt": 1439, "stimulus": "<p id='stroop-text' class='stroop-red'>BRAIN</p>", "response": "r", "stimulus-type": "unrelated", "word": "BRAIN", "color": "red", "correct_response": "r", "trial_id": "stroop-trial-1-unrelated-24", "trial_type": "html-keyboard-response", "trial_index": 113, "time_elapsed": 368021, "internal_node_id": "0.0-6.0-18.0"}}, {"uniqueid": "w24869720:a37454990", "current_trial": 114, "dateTime": 1664463750200, "trialdata": {"rt": 1103, "stimulus": "<p id='stroop-text' class='stroop-blue'>STONE</p>", "response": "b", "stimulus-type": "unrelated", "word": "STONE", "color": "blue", "correct_response": "b", "trial_id": "stroop-trial-1-unrelated-11", "trial_type": "html-keyboard-response", "trial_index": 114, "time_elapsed": 369636, "internal_node_id": "0.0-6.0-19.0"}}, {"uniqueid": "w24869720:a37454990", "current_trial": 115, "dateTime": 1664463751486, "trialdata": {"rt": 780, "stimulus": "<p id='stroop-text' class='stroop-blue'>CHAIR</p>", "response": "b", "stimulus-type": "unrelated", "word": "CHAIR", "color": "blue", "correct_response": "b", "trial_id": "stroop-trial-1-unrelated-8", "trial_type": "html-keyboard-response", "trial_index": 115, "time_elapsed": 370923, "internal_node_id": "0.0-6.0-20.0"}}, {"uniqueid": "w24869720:a37454990", "current_trial": 116, "dateTime": 1664463753173, "trialdata": {"rt": 1114, "stimulus": "<p id='stroop-text' class='stroop-blue'>BLUE</p>", "response": "b", "stimulus-type": "congruent", "word": "blue", "color": "blue", "correct_response": "b", "trial_id": "stroop-trial-1-congruent-17", "trial_type": "html-keyboard-response", "trial_index": 116, "time_elapsed": 372610, "internal_node_id": "0.0-6.0-21.0"}}, {"uniqueid": "w24869720:a37454990", "current_trial": 117, "dateTime": 1664463754916, "trialdata": {"rt": 1222, "stimulus": "<p id='stroop-text' class='stroop-yellow'>BLUE</p>", "response": "y", "stimulus-type": "incongruent", "word": "blue", "color": "yellow", "correct_response": "y", "trial_id": "stroop-trial-1-incongruent-9", "trial_type": "html-keyboard-response", "trial_index": 117, "time_elapsed": 374353, "internal_node_id": "0.0-6.0-22.0"}}, {"uniqueid": "w24869720:a37454990", "current_trial": 118, "dateTime": 1664463756620, "trialdata": {"rt": 1200, "stimulus": "<p id='stroop-text' class='stroop-yellow'>FORK</p>", "response": "y", "stimulus-type": "unrelated", "word": "FORK", "color": "yellow", "correct_response": "y", "trial_id": "stroop-trial-1-unrelated-23", "trial_type": "html-keyboard-response", "trial_index": 118, "time_elapsed": 376057, "internal_node_id": "0.0-6.0-23.0"}}, {"uniqueid": "w24869720:a37454990", "current_trial": 119, "dateTime": 1664463758577, "trialdata": {"rt": 1449, "stimulus": "<p id='stroop-text' class='stroop-green'>BOAT</p>", "response": "g", "stimulus-type": "unrelated", "word": "BOAT", "color": "green", "correct_response": "g", "trial_id": "stroop-trial-1-unrelated-15", "trial_type": "html-keyboard-response", "trial_index": 119, "time_elapsed": 378013, "internal_node_id": "0.0-6.0-24.0"}}, {"uniqueid": "w24869720:a37454990", "current_trial": 120, "dateTime": 1664463759735, "trialdata": {"rt": 637, "stimulus": "<p id='stroop-text' class='stroop-green'>STONE</p>", "response": "g", "stimulus-type": "unrelated", "word": "STONE", "color": "green", "correct_response": "g", "trial_id": "stroop-trial-1-unrelated-5", "trial_type": "html-keyboard-response", "trial_index": 120, "time_elapsed": 379171, "internal_node_id": "0.0-6.0-25.0"}}, {"uniqueid": "w24869720:a37454990", "current_trial": 121, "dateTime": 1664463760811, "trialdata": {"rt": 565, "stimulus": "<p id='stroop-text' class='stroop-green'>MONKEY</p>", "response": "g", "stimulus-type": "unrelated", "word": "MONKEY", "color": "green", "correct_response": "g", "trial_id": "stroop-trial-1-unrelated-19", "trial_type": "html-keyboard-response", "trial_index": 121, "time_elapsed": 380247, "internal_node_id": "0.0-6.0-26.0"}}, {"uniqueid": "w24869720:a37454990", "current_trial": 122, "dateTime": 1664463762010, "trialdata": {"rt": 690, "stimulus": "<p id='stroop-text' class='stroop-red'>SHIP</p>", "response": "r", "stimulus-type": "unrelated", "word": "SHIP", "color": "red", "correct_response": "r", "trial_id": "stroop-trial-1-unrelated-20", "trial_type": "html-keyboard-response", "trial_index": 122, "time_elapsed": 381446, "internal_node_id": "0.0-6.0-27.0"}}, {"uniqueid": "w24869720:a37454990", "current_trial": 123, "dateTime": 1664463763256, "trialdata": {"rt": 737, "stimulus": "<p id='stroop-text' class='stroop-yellow'>GREEN</p>", "response": "y", "stimulus-type": "incongruent", "word": "green", "color": "yellow", "correct_response": "y", "trial_id": "stroop-trial-1-incongruent-5", "trial_type": "html-keyboard-response", "trial_index": 123, "time_elapsed": 382692, "internal_node_id": "0.0-6.0-28.0"}}, {"uniqueid": "w24869720:a37454990", "current_trial": 124, "dateTime": 1664463764535, "trialdata": {"rt": 747, "stimulus": "<p id='stroop-text' class='stroop-yellow'>YELLOW</p>", "response": "y", "stimulus-type": "congruent", "word": "yellow", "color": "yellow", "correct_response": "y", "trial_id": "stroop-trial-1-congruent-13", "trial_type": "html-keyboard-response", "trial_index": 124, "time_elapsed": 383971, "internal_node_id": "0.0-6.0-29.0"}}, {"uniqueid": "w24869720:a37454990", "current_trial": 125, "dateTime": 1664463765730, "trialdata": {"rt": 686, "stimulus": "<p id='stroop-text' class='stroop-blue'>CHAIR</p>", "response": "b", "stimulus-type": "unrelated", "word": "CHAIR", "color": "blue", "correct_response": "b", "trial_id": "stroop-trial-1-unrelated-17", "trial_type": "html-keyboard-response", "trial_index": 125, "time_elapsed": 385166, "internal_node_id": "0.0-6.0-30.0"}}, {"uniqueid": "w24869720:a37454990", "current_trial": 126, "dateTime": 1664463766847, "trialdata": {"rt": 608, "stimulus": "<p id='stroop-text' class='stroop-red'>SHIP</p>", "response": "r", "stimulus-type": "unrelated", "word": "SHIP", "color": "red", "correct_response": "r", "trial_id": "stroop-trial-1-unrelated-30", "trial_type": "html-keyboard-response", "trial_index": 126, "time_elapsed": 386284, "internal_node_id": "0.0-6.0-31.0"}}, {"uniqueid": "w24869720:a37454990", "current_trial": 127, "dateTime": 1664463768171, "trialdata": {"rt": 805, "stimulus": "<p id='stroop-text' class='stroop-yellow'>BLUE</p>", "response": "y", "stimulus-type": "incongruent", "word": "blue", "color": "yellow", "correct_response": "y", "trial_id": "stroop-trial-1-incongruent-16", "trial_type": "html-keyboard-response", "trial_index": 127, "time_elapsed": 387607, "internal_node_id": "0.0-6.0-32.0"}}, {"uniqueid": "w24869720:a37454990", "current_trial": 128, "dateTime": 1664463769631, "trialdata": {"rt": 945, "stimulus": "<p id='stroop-text' class='stroop-red'>RED</p>", "response": "r", "stimulus-type": "congruent", "word": "red", "color": "red", "correct_response": "r", "trial_id": "stroop-trial-1-congruent-10", "trial_type": "html-keyboard-response", "trial_index": 128, "time_elapsed": 389068, "internal_node_id": "0.0-6.0-33.0"}}, {"uniqueid": "w24869720:a37454990", "current_trial": 129, "dateTime": 1664463770813, "trialdata": {"rt": 673, "stimulus": "<p id='stroop-text' class='stroop-blue'>BLUE</p>", "response": "b", "stimulus-type": "congruent", "word": "blue", "color": "blue", "correct_response": "b", "trial_id": "stroop-trial-1-congruent-30", "trial_type": "html-keyboard-response", "trial_index": 129, "time_elapsed": 390249, "internal_node_id": "0.0-6.0-34.0"}}, {"uniqueid": "w24869720:a37454990", "current_trial": 130, "dateTime": 1664463772113, "trialdata": {"rt": 792, "stimulus": "<p id='stroop-text' class='stroop-yellow'>FORK</p>", "response": "y", "stimulus-type": "unrelated", "word": "FORK", "color": "yellow", "correct_response": "y", "trial_id": "stroop-trial-1-unrelated-10", "trial_type": "html-keyboard-response", "trial_index": 130, "time_elapsed": 391549, "internal_node_id": "0.0-6.0-35.0"}}, {"uniqueid": "w24869720:a37454990", "current_trial": 131, "dateTime": 1664463773382, "trialdata": {"rt": 760, "stimulus": "<p id='stroop-text' class='stroop-red'>BOAT</p>", "response": "r", "stimulus-type": "unrelated", "word": "BOAT", "color": "red", "correct_response": "r", "trial_id": "stroop-trial-1-unrelated-12", "trial_type": "html-keyboard-response", "trial_index": 131, "time_elapsed": 392818, "internal_node_id": "0.0-6.0-36.0"}}, {"uniqueid": "w24869720:a37454990", "current_trial": 132, "dateTime": 1664463775116, "trialdata": {"rt": 1222, "stimulus": "<p id='stroop-text' class='stroop-yellow'>RED</p>", "response": "y", "stimulus-type": "incongruent", "word": "red", "color": "yellow", "correct_response": "y", "trial_id": "stroop-trial-1-incongruent-26", "trial_type": "html-keyboard-response", "trial_index": 132, "time_elapsed": 394552, "internal_node_id": "0.0-6.0-37.0"}}, {"uniqueid": "w24869720:a37454990", "current_trial": 133, "dateTime": 1664463777229, "trialdata": {"rt": 1606, "stimulus": "<p id='stroop-text' class='stroop-red'>RED</p>", "response": "r", "stimulus-type": "congruent", "word": "red", "color": "red", "correct_response": "r", "trial_id": "stroop-trial-1-congruent-20", "trial_type": "html-keyboard-response", "trial_index": 133, "time_elapsed": 396665, "internal_node_id": "0.0-6.0-38.0"}}, {"uniqueid": "w24869720:a37454990", "current_trial": 134, "dateTime": 1664463778307, "trialdata": {"rt": 568, "stimulus": "<p id='stroop-text' class='stroop-red'>BLUE</p>", "response": "r", "stimulus-type": "incongruent", "word": "blue", "color": "red", "correct_response": "r", "trial_id": "stroop-trial-1-incongruent-6", "trial_type": "html-keyboard-response", "trial_index": 134, "time_elapsed": 397743, "internal_node_id": "0.0-6.0-39.0"}}, {"uniqueid": "w24869720:a37454990", "current_trial": 135, "dateTime": 1664463779474, "trialdata": {"rt": 656, "stimulus": "<p id='stroop-text' class='stroop-blue'>BLUE</p>", "response": "b", "stimulus-type": "congruent", "word": "blue", "color": "blue", "correct_response": "b", "trial_id": "stroop-trial-1-congruent-7", "trial_type": "html-keyboard-response", "trial_index": 135, "time_elapsed": 398911, "internal_node_id": "0.0-6.0-40.0"}}, {"uniqueid": "w24869720:a37454990", "current_trial": 136, "dateTime": 1664463780777, "trialdata": {"rt": 792, "stimulus": "<p id='stroop-text' class='stroop-green'>BLUE</p>", "response": "g", "stimulus-type": "incongruent", "word": "blue", "color": "green", "correct_response": "g", "trial_id": "stroop-trial-1-incongruent-24", "trial_type": "html-keyboard-response", "trial_index": 136, "time_elapsed": 400214, "internal_node_id": "0.0-6.0-41.0"}}, {"uniqueid": "w24869720:a37454990", "current_trial": 137, "dateTime": 1664463781826, "trialdata": {"rt": 543, "stimulus": "<p id='stroop-text' class='stroop-yellow'>YELLOW</p>", "response": "y", "stimulus-type": "congruent", "word": "yellow", "color": "yellow", "correct_response": "y", "trial_id": "stroop-trial-1-congruent-4", "trial_type": "html-keyboard-response", "trial_index": 137, "time_elapsed": 401262, "internal_node_id": "0.0-6.0-42.0"}}, {"uniqueid": "w24869720:a37454990", "current_trial": 138, "dateTime": 1664463783024, "trialdata": {"rt": 687, "stimulus": "<p id='stroop-text' class='stroop-green'>GREEN</p>", "response": "g", "stimulus-type": "congruent", "word": "green", "color": "green", "correct_response": "g", "trial_id": "stroop-trial-1-congruent-25", "trial_type": "html-keyboard-response", "trial_index": 138, "time_elapsed": 402460, "internal_node_id": "0.0-6.0-43.0"}}, {"uniqueid": "w24869720:a37454990", "current_trial": 139, "dateTime": 1664463784250, "trialdata": {"rt": 715, "stimulus": "<p id='stroop-text' class='stroop-green'>BRIDGE</p>", "response": "g", "stimulus-type": "unrelated", "word": "BRIDGE", "color": "green", "correct_response": "g", "trial_id": "stroop-trial-1-unrelated-3", "trial_type": "html-keyboard-response", "trial_index": 139, "time_elapsed": 403686, "internal_node_id": "0.0-6.0-44.0"}}, {"uniqueid": "w24869720:a37454990", "current_trial": 140, "dateTime": 1664463785612, "trialdata": {"rt": 853, "stimulus": "<p id='stroop-text' class='stroop-green'>GREEN</p>", "response": "g", "stimulus-type": "congruent", "word": "green", "color": "green", "correct_response": "g", "trial_id": "stroop-trial-1-congruent-3", "trial_type": "html-keyboard-response", "trial_index": 140, "time_elapsed": 405049, "internal_node_id": "0.0-6.0-45.0"}}, {"uniqueid": "w24869720:a37454990", "current_trial": 141, "dateTime": 1664463786565, "trialdata": {"rt": 443, "stimulus": "<p id='stroop-text' class='stroop-green'>RED</p>", "response": "g", "stimulus-type": "incongruent", "word": "red", "color": "green", "correct_response": "g", "trial_id": "stroop-trial-1-incongruent-19", "trial_type": "html-keyboard-response", "trial_index": 141, "time_elapsed": 406001, "internal_node_id": "0.0-6.0-46.0"}}, {"uniqueid": "w24869720:a37454990", "current_trial": 142, "dateTime": 1664463787625, "trialdata": {"rt": 547, "stimulus": "<p id='stroop-text' class='stroop-yellow'>CHAIR</p>", "response": "y", "stimulus-type": "unrelated", "word": "CHAIR", "color": "yellow", "correct_response": "y", "trial_id": "stroop-trial-1-unrelated-6", "trial_type": "html-keyboard-response", "trial_index": 142, "time_elapsed": 407061, "internal_node_id": "0.0-6.0-47.0"}}, {"uniqueid": "w24869720:a37454990", "current_trial": 143, "dateTime": 1664463788894, "trialdata": {"rt": 757, "stimulus": "<p id='stroop-text' class='stroop-green'>GREEN</p>", "response": "g", "stimulus-type": "congruent", "word": "green", "color": "green", "correct_response": "g", "trial_id": "stroop-trial-1-congruent-11", "trial_type": "html-keyboard-response", "trial_index": 143, "time_elapsed": 408330, "internal_node_id": "0.0-6.0-48.0"}}, {"uniqueid": "w24869720:a37454990", "current_trial": 144, "dateTime": 1664463790751, "trialdata": {"rt": 1345, "stimulus": "<p id='stroop-text' class='stroop-green'>GREEN</p>", "response": "g", "stimulus-type": "congruent", "word": "green", "color": "green", "correct_response": "g", "trial_id": "stroop-trial-1-congruent-22", "trial_type": "html-keyboard-response", "trial_index": 144, "time_elapsed": 410188, "internal_node_id": "0.0-6.0-49.0"}}, {"uniqueid": "w24869720:a37454990", "current_trial": 145, "dateTime": 1664463792140, "trialdata": {"rt": 872, "stimulus": "<p id='stroop-text' class='stroop-blue'>RED</p>", "response": "b", "stimulus-type": "incongruent", "word": "red", "color": "blue", "correct_response": "b", "trial_id": "stroop-trial-1-incongruent-8", "trial_type": "html-keyboard-response", "trial_index": 145, "time_elapsed": 411576, "internal_node_id": "0.0-6.0-50.0"}}, {"uniqueid": "w24869720:a37454990", "current_trial": 146, "dateTime": 1664463793373, "trialdata": {"rt": 721, "stimulus": "<p id='stroop-text' class='stroop-yellow'>WINDOW</p>", "response": "y", "stimulus-type": "unrelated", "word": "WINDOW", "color": "yellow", "correct_response": "y", "trial_id": "stroop-trial-1-unrelated-21", "trial_type": "html-keyboard-response", "trial_index": 146, "time_elapsed": 412809, "internal_node_id": "0.0-6.0-51.0"}}, {"uniqueid": "w24869720:a37454990", "current_trial": 147, "dateTime": 1664463794384, "trialdata": {"rt": 499, "stimulus": "<p id='stroop-text' class='stroop-red'>RED</p>", "response": "r", "stimulus-type": "congruent", "word": "red", "color": "red", "correct_response": "r", "trial_id": "stroop-trial-1-congruent-6", "trial_type": "html-keyboard-response", "trial_index": 147, "time_elapsed": 413820, "internal_node_id": "0.0-6.0-52.0"}}, {"uniqueid": "w24869720:a37454990", "current_trial": 148, "dateTime": 1664463795527, "trialdata": {"rt": 632, "stimulus": "<p id='stroop-text' class='stroop-green'>GREEN</p>", "response": "g", "stimulus-type": "congruent", "word": "green", "color": "green", "correct_response": "g", "trial_id": "stroop-trial-1-congruent-18", "trial_type": "html-keyboard-response", "trial_index": 148, "time_elapsed": 414963, "internal_node_id": "0.0-6.0-53.0"}}, {"uniqueid": "w24869720:a37454990", "current_trial": 149, "dateTime": 1664463796669, "trialdata": {"rt": 633, "stimulus": "<p id='stroop-text' class='stroop-blue'>BRIDGE</p>", "response": "b", "stimulus-type": "unrelated", "word": "BRIDGE", "color": "blue", "correct_response": "b", "trial_id": "stroop-trial-1-unrelated-4", "trial_type": "html-keyboard-response", "trial_index": 149, "time_elapsed": 416105, "internal_node_id": "0.0-6.0-54.0"}}, {"uniqueid": "w24869720:a37454990", "current_trial": 150, "dateTime": 1664463797747, "trialdata": {"rt": 564, "stimulus": "<p id='stroop-text' class='stroop-blue'>BLUE</p>", "response": "b", "stimulus-type": "congruent", "word": "blue", "color": "blue", "correct_response": "b", "trial_id": "stroop-trial-1-congruent-14", "trial_type": "html-keyboard-response", "trial_index": 150, "time_elapsed": 417183, "internal_node_id": "0.0-6.0-55.0"}}, {"uniqueid": "w24869720:a37454990", "current_trial": 151, "dateTime": 1664463798792, "trialdata": {"rt": 535, "stimulus": "<p id='stroop-text' class='stroop-blue'>BLUE</p>", "response": "b", "stimulus-type": "congruent", "word": "blue", "color": "blue", "correct_response": "b", "trial_id": "stroop-trial-1-congruent-21", "trial_type": "html-keyboard-response", "trial_index": 151, "time_elapsed": 418228, "internal_node_id": "0.0-6.0-56.0"}}, {"uniqueid": "w24869720:a37454990", "current_trial": 152, "dateTime": 1664463799816, "trialdata": {"rt": 510, "stimulus": "<p id='stroop-text' class='stroop-blue'>BLUE</p>", "response": "b", "stimulus-type": "congruent", "word": "blue", "color": "blue", "correct_response": "b", "trial_id": "stroop-trial-1-congruent-5", "trial_type": "html-keyboard-response", "trial_index": 152, "time_elapsed": 419252, "internal_node_id": "0.0-6.0-57.0"}}, {"uniqueid": "w24869720:a37454990", "current_trial": 153, "dateTime": 1664463800850, "trialdata": {"rt": 523, "stimulus": "<p id='stroop-text' class='stroop-yellow'>YELLOW</p>", "response": "y", "stimulus-type": "congruent", "word": "yellow", "color": "yellow", "correct_response": "y", "trial_id": "stroop-trial-1-congruent-1", "trial_type": "html-keyboard-response", "trial_index": 153, "time_elapsed": 420286, "internal_node_id": "0.0-6.0-58.0"}}, {"uniqueid": "w24869720:a37454990", "current_trial": 154, "dateTime": 1664463801883, "trialdata": {"rt": 521, "stimulus": "<p id='stroop-text' class='stroop-green'>GREEN</p>", "response": "g", "stimulus-type": "congruent", "word": "green", "color": "green", "correct_response": "g", "trial_id": "stroop-trial-1-congruent-15", "trial_type": "html-keyboard-response", "trial_index": 154, "time_elapsed": 421319, "internal_node_id": "0.0-6.0-59.0"}}, {"uniqueid": "w24869720:a37454990", "current_trial": 155, "dateTime": 1664463803073, "trialdata": {"rt": 670, "stimulus": "<p id='stroop-text' class='stroop-blue'>BOTTLE</p>", "response": "b", "stimulus-type": "unrelated", "word": "BOTTLE", "color": "blue", "correct_response": "b", "trial_id": "stroop-trial-1-unrelated-14", "trial_type": "html-keyboard-response", "trial_index": 155, "time_elapsed": 422509, "internal_node_id": "0.0-6.0-60.0"}}, {"uniqueid": "w24869720:a37454990", "current_trial": 156, "dateTime": 1664463804142, "trialdata": {"rt": 557, "stimulus": "<p id='stroop-text' class='stroop-red'>RED</p>", "response": "r", "stimulus-type": "congruent", "word": "red", "color": "red", "correct_response": "r", "trial_id": "stroop-trial-1-congruent-27", "trial_type": "html-keyboard-response", "trial_index": 156, "time_elapsed": 423579, "internal_node_id": "0.0-6.0-61.0"}}, {"uniqueid": "w24869720:a37454990", "current_trial": 157, "dateTime": 1664463805335, "trialdata": {"rt": 680, "stimulus": "<p id='stroop-text' class='stroop-green'>BRIDGE</p>", "response": "g", "stimulus-type": "unrelated", "word": "BRIDGE", "color": "green", "correct_response": "g", "trial_id": "stroop-trial-1-unrelated-27", "trial_type": "html-keyboard-response", "trial_index": 157, "time_elapsed": 424771, "internal_node_id": "0.0-6.0-62.0"}}, {"uniqueid": "w24869720:a37454990", "current_trial": 158, "dateTime": 1664463806923, "trialdata": {"rt": 1074, "stimulus": "<p id='stroop-text' class='stroop-red'>BLUE</p>", "response": "r", "stimulus-type": "incongruent", "word": "blue", "color": "red", "correct_response": "r", "trial_id": "stroop-trial-1-incongruent-18", "trial_type": "html-keyboard-response", "trial_index": 158, "time_elapsed": 426359, "internal_node_id": "0.0-6.0-63.0"}}, {"uniqueid": "w24869720:a37454990", "current_trial": 159, "dateTime": 1664463808048, "trialdata": {"rt": 612, "stimulus": "<p id='stroop-text' class='stroop-blue'>BLUE</p>", "response": "b", "stimulus-type": "congruent", "word": "blue", "color": "blue", "correct_response": "b", "trial_id": "stroop-trial-1-congruent-29", "trial_type": "html-keyboard-response", "trial_index": 159, "time_elapsed": 427484, "internal_node_id": "0.0-6.0-64.0"}}, {"uniqueid": "w24869720:a37454990", "current_trial": 160, "dateTime": 1664463809515, "trialdata": {"rt": 955, "stimulus": "<p id='stroop-text' class='stroop-red'>YELLOW</p>", "response": "r", "stimulus-type": "incongruent", "word": "yellow", "color": "red", "correct_response": "r", "trial_id": "stroop-trial-1-incongruent-4", "trial_type": "html-keyboard-response", "trial_index": 160, "time_elapsed": 428951, "internal_node_id": "0.0-6.0-65.0"}}, {"uniqueid": "w24869720:a37454990", "current_trial": 161, "dateTime": 1664463810853, "trialdata": {"rt": 822, "stimulus": "<p id='stroop-text' class='stroop-green'>BOAT</p>", "response": "g", "stimulus-type": "unrelated", "word": "BOAT", "color": "green", "correct_response": "g", "trial_id": "stroop-trial-1-unrelated-2", "trial_type": "html-keyboard-response", "trial_index": 161, "time_elapsed": 430289, "internal_node_id": "0.0-6.0-66.0"}}, {"uniqueid": "w24869720:a37454990", "current_trial": 162, "dateTime": 1664463812110, "trialdata": {"rt": 744, "stimulus": "<p id='stroop-text' class='stroop-red'>RED</p>", "response": "r", "stimulus-type": "congruent", "word": "red", "color": "red", "correct_response": "r", "trial_id": "stroop-trial-1-congruent-24", "trial_type": "html-keyboard-response", "trial_index": 162, "time_elapsed": 431546, "internal_node_id": "0.0-6.0-67.0"}}, {"uniqueid": "w24869720:a37454990", "current_trial": 163, "dateTime": 1664463813376, "trialdata": {"rt": 755, "stimulus": "<p id='stroop-text' class='stroop-green'>RED</p>", "response": "g", "stimulus-type": "incongruent", "word": "red", "color": "green", "correct_response": "g", "trial_id": "stroop-trial-1-incongruent-3", "trial_type": "html-keyboard-response", "trial_index": 163, "time_elapsed": 432812, "internal_node_id": "0.0-6.0-68.0"}}, {"uniqueid": "w24869720:a37454990", "current_trial": 164, "dateTime": 1664463814461, "trialdata": {"rt": 570, "stimulus": "<p id='stroop-text' class='stroop-red'>SHIP</p>", "response": "r", "stimulus-type": "unrelated", "word": "SHIP", "color": "red", "correct_response": "r", "trial_id": "stroop-trial-1-unrelated-26", "trial_type": "html-keyboard-response", "trial_index": 164, "time_elapsed": 433898, "internal_node_id": "0.0-6.0-69.0"}}, {"uniqueid": "w24869720:a37454990", "current_trial": 165, "dateTime": 1664463815658, "trialdata": {"rt": 686, "stimulus": "<p id='stroop-text' class='stroop-blue'>YELLOW</p>", "response": "b", "stimulus-type": "incongruent", "word": "yellow", "color": "blue", "correct_response": "b", "trial_id": "stroop-trial-1-incongruent-7", "trial_type": "html-keyboard-response", "trial_index": 165, "time_elapsed": 435094, "internal_node_id": "0.0-6.0-70.0"}}, {"uniqueid": "w24869720:a37454990", "current_trial": 166, "dateTime": 1664463816919, "trialdata": {"rt": 749, "stimulus": "<p id='stroop-text' class='stroop-green'>FORK</p>", "response": "g", "stimulus-type": "unrelated", "word": "FORK", "color": "green", "correct_response": "g", "trial_id": "stroop-trial-1-unrelated-22", "trial_type": "html-keyboard-response", "trial_index": 166, "time_elapsed": 436355, "internal_node_id": "0.0-6.0-71.0"}}, {"uniqueid": "w24869720:a37454990", "current_trial": 167, "dateTime": 1664463818079, "trialdata": {"rt": 651, "stimulus": "<p id='stroop-text' class='stroop-green'>GREEN</p>", "response": "g", "stimulus-type": "congruent", "word": "green", "color": "green", "correct_response": "g", "trial_id": "stroop-trial-1-congruent-16", "trial_type": "html-keyboard-response", "trial_index": 167, "time_elapsed": 437515, "internal_node_id": "0.0-6.0-72.0"}}, {"uniqueid": "w24869720:a37454990", "current_trial": 168, "dateTime": 1664463819080, "trialdata": {"rt": 491, "stimulus": "<p id='stroop-text' class='stroop-green'>GREEN</p>", "response": "g", "stimulus-type": "congruent", "word": "green", "color": "green", "correct_response": "g", "trial_id": "stroop-trial-1-congruent-19", "trial_type": "html-keyboard-response", "trial_index": 168, "time_elapsed": 438516, "internal_node_id": "0.0-6.0-73.0"}}, {"uniqueid": "w24869720:a37454990", "current_trial": 169, "dateTime": 1664463820280, "trialdata": {"rt": 693, "stimulus": "<p id='stroop-text' class='stroop-yellow'>RED</p>", "response": "y", "stimulus-type": "incongruent", "word": "red", "color": "yellow", "correct_response": "y", "trial_id": "stroop-trial-1-incongruent-15", "trial_type": "html-keyboard-response", "trial_index": 169, "time_elapsed": 439716, "internal_node_id": "0.0-6.0-74.0"}}, {"uniqueid": "w24869720:a37454990", "current_trial": 170, "dateTime": 1664463821698, "trialdata": {"rt": 907, "stimulus": "<p id='stroop-text' class='stroop-green'>YELLOW</p>", "response": "g", "stimulus-type": "incongruent", "word": "yellow", "color": "green", "correct_response": "g", "trial_id": "stroop-trial-1-incongruent-2", "trial_type": "html-keyboard-response", "trial_index": 170, "time_elapsed": 441134, "internal_node_id": "0.0-6.0-75.0"}}, {"uniqueid": "w24869720:a37454990", "current_trial": 171, "dateTime": 1664463823011, "trialdata": {"rt": 808, "stimulus": "<p id='stroop-text' class='stroop-yellow'>YELLOW</p>", "response": "y", "stimulus-type": "congruent", "word": "yellow", "color": "yellow", "correct_response": "y", "trial_id": "stroop-trial-1-congruent-9", "trial_type": "html-keyboard-response", "trial_index": 171, "time_elapsed": 442447, "internal_node_id": "0.0-6.0-76.0"}}, {"uniqueid": "w24869720:a37454990", "current_trial": 172, "dateTime": 1664463824169, "trialdata": {"rt": 652, "stimulus": "<p id='stroop-text' class='stroop-red'>YELLOW</p>", "response": "r", "stimulus-type": "incongruent", "word": "yellow", "color": "red", "correct_response": "r", "trial_id": "stroop-trial-1-incongruent-17", "trial_type": "html-keyboard-response", "trial_index": 172, "time_elapsed": 443606, "internal_node_id": "0.0-6.0-77.0"}}, {"uniqueid": "w24869720:a37454990", "current_trial": 173, "dateTime": 1664463825836, "trialdata": {"rt": 1129, "stimulus": "<p id='stroop-text' class='stroop-green'>YELLOW</p>", "response": "g", "stimulus-type": "incongruent", "word": "yellow", "color": "green", "correct_response": "g", "trial_id": "stroop-trial-1-incongruent-13", "trial_type": "html-keyboard-response", "trial_index": 173, "time_elapsed": 445273, "internal_node_id": "0.0-6.0-78.0"}}, {"uniqueid": "w24869720:a37454990", "current_trial": 174, "dateTime": 1664463827487, "trialdata": {"rt": 1145, "stimulus": "<p id='stroop-text' class='stroop-green'>FORK</p>", "response": "g", "stimulus-type": "unrelated", "word": "FORK", "color": "green", "correct_response": "g", "trial_id": "stroop-trial-1-unrelated-25", "trial_type": "html-keyboard-response", "trial_index": 174, "time_elapsed": 446924, "internal_node_id": "0.0-6.0-79.0"}}, {"uniqueid": "w24869720:a37454990", "current_trial": 175, "dateTime": 1664463829419, "trialdata": {"rt": 1424, "stimulus": "<p id='stroop-text' class='stroop-blue'>FORK</p>", "response": "b", "stimulus-type": "unrelated", "word": "FORK", "color": "blue", "correct_response": "b", "trial_id": "stroop-trial-1-unrelated-28", "trial_type": "html-keyboard-response", "trial_index": 175, "time_elapsed": 448855, "internal_node_id": "0.0-6.0-80.0"}}, {"uniqueid": "w24869720:a37454990", "current_trial": 176, "dateTime": 1664463831132, "trialdata": {"rt": 1199, "stimulus": "<p id='stroop-text' class='stroop-green'>GREEN</p>", "response": "g", "stimulus-type": "congruent", "word": "green", "color": "green", "correct_response": "g", "trial_id": "stroop-trial-1-congruent-23", "trial_type": "html-keyboard-response", "trial_index": 176, "time_elapsed": 450569, "internal_node_id": "0.0-6.0-81.0"}}, {"uniqueid": "w24869720:a37454990", "current_trial": 177, "dateTime": 1664463833578, "trialdata": {"rt": 1933, "stimulus": "<p id='stroop-text' class='stroop-blue'>BLUE</p>", "response": "b", "stimulus-type": "congruent", "word": "blue", "color": "blue", "correct_response": "b", "trial_id": "stroop-trial-1-congruent-28", "trial_type": "html-keyboard-response", "trial_index": 177, "time_elapsed": 453014, "internal_node_id": "0.0-6.0-82.0"}}, {"uniqueid": "w24869720:a37454990", "current_trial": 178, "dateTime": 1664463835029, "trialdata": {"rt": 936, "stimulus": "<p id='stroop-text' class='stroop-red'>GREEN</p>", "response": "r", "stimulus-type": "incongruent", "word": "green", "color": "red", "correct_response": "r", "trial_id": "stroop-trial-1-incongruent-28", "trial_type": "html-keyboard-response", "trial_index": 178, "time_elapsed": 454466, "internal_node_id": "0.0-6.0-83.0"}}, {"uniqueid": "w24869720:a37454990", "current_trial": 179, "dateTime": 1664463836327, "trialdata": {"rt": 784, "stimulus": "<p id='stroop-text' class='stroop-yellow'>BLUE</p>", "response": "y", "stimulus-type": "incongruent", "word": "blue", "color": "yellow", "correct_response": "y", "trial_id": "stroop-trial-1-incongruent-25", "trial_type": "html-keyboard-response", "trial_index": 179, "time_elapsed": 455763, "internal_node_id": "0.0-6.0-84.0"}}, {"uniqueid": "w24869720:a37454990", "current_trial": 180, "dateTime": 1664463837792, "trialdata": {"rt": 953, "stimulus": "<p id='stroop-text' class='stroop-blue'>YELLOW</p>", "response": "b", "stimulus-type": "incongruent", "word": "yellow", "color": "blue", "correct_response": "b", "trial_id": "stroop-trial-1-incongruent-20", "trial_type": "html-keyboard-response", "trial_index": 180, "time_elapsed": 457228, "internal_node_id": "0.0-6.0-85.0"}}, {"uniqueid": "w24869720:a37454990", "current_trial": 181, "dateTime": 1664463839268, "trialdata": {"rt": 962, "stimulus": "<p id='stroop-text' class='stroop-blue'>BLUE</p>", "response": "b", "stimulus-type": "congruent", "word": "blue", "color": "blue", "correct_response": "b", "trial_id": "stroop-trial-1-congruent-2", "trial_type": "html-keyboard-response", "trial_index": 181, "time_elapsed": 458705, "internal_node_id": "0.0-6.0-86.0"}}, {"uniqueid": "w24869720:a37454990", "current_trial": 182, "dateTime": 1664463841693, "trialdata": {"rt": 1912, "stimulus": "<p id='stroop-text' class='stroop-red'>DOG</p>", "response": "r", "stimulus-type": "unrelated", "word": "DOG", "color": "red", "correct_response": "r", "trial_id": "stroop-trial-1-unrelated-29", "trial_type": "html-keyboard-response", "trial_index": 182, "time_elapsed": 461129, "internal_node_id": "0.0-6.0-87.0"}}, {"uniqueid": "w24869720:a37454990", "current_trial": 183, "dateTime": 1664463843322, "trialdata": {"rt": 1116, "stimulus": "<p id='stroop-text' class='stroop-red'>DOG</p>", "response": "r", "stimulus-type": "unrelated", "word": "DOG", "color": "red", "correct_response": "r", "trial_id": "stroop-trial-1-unrelated-1", "trial_type": "html-keyboard-response", "trial_index": 183, "time_elapsed": 462758, "internal_node_id": "0.0-6.0-88.0"}}, {"uniqueid": "w24869720:a37454990", "current_trial": 184, "dateTime": 1664463844445, "trialdata": {"rt": 608, "stimulus": "<p id='stroop-text' class='stroop-blue'>YELLOW</p>", "response": "b", "stimulus-type": "incongruent", "word": "yellow", "color": "blue", "correct_response": "b", "trial_id": "stroop-trial-1-incongruent-30", "trial_type": "html-keyboard-response", "trial_index": 184, "time_elapsed": 463881, "internal_node_id": "0.0-6.0-89.0"}}, {"uniqueid": "w24869720:a37454990", "current_trial": 185, "dateTime": 1664463874476, "trialdata": {"rt": 29516, "stimulus": "  <h1> End of block! </h1>\n\n  You have reached the end of the block 2/5. If you need a short break, feel free to take one now before moving on.\n\n  <br><br>\n  In the next block, you will complete another 90 rounds of this game.\n\n  <br><br>\n  <div style='text-align: center;'>Press <code>space</code> to begin.</div>\n  <br><br>\n<div style='text-align: center;'>(If the experiment doesn't continue, try clicking on the text and then pressing <code>space</code>.)</div>", "response": " ", "trial_id": "stroop_1_ready_3", "trial_type": "html-keyboard-response", "trial_index": 185, "time_elapsed": 493913, "internal_node_id": "0.0-7.0"}}, {"uniqueid": "w24869720:a37454990", "current_trial": 186, "dateTime": 1664463879476, "trialdata": {"rt": 4985, "stimulus": "<p id='stroop-text' class='stroop-red'>BRAIN</p>", "response": "r", "stimulus-type": "unrelated", "word": "BRAIN", "color": "red", "correct_response": "r", "trial_id": "stroop-trial-1-unrelated-2", "trial_type": "html-keyboard-response", "trial_index": 186, "time_elapsed": 498912, "internal_node_id": "0.0-8.0-0.0"}}, {"uniqueid": "w24869720:a37454990", "current_trial": 187, "dateTime": 1664463880794, "trialdata": {"rt": 805, "stimulus": "<p id='stroop-text' class='stroop-red'>CHAIR</p>", "response": "r", "stimulus-type": "unrelated", "word": "CHAIR", "color": "red", "correct_response": "r", "trial_id": "stroop-trial-1-unrelated-25", "trial_type": "html-keyboard-response", "trial_index": 187, "time_elapsed": 500230, "internal_node_id": "0.0-8.0-1.0"}}, {"uniqueid": "w24869720:a37454990", "current_trial": 188, "dateTime": 1664463883703, "trialdata": {"rt": 2397, "stimulus": "<p id='stroop-text' class='stroop-red'>BLUE</p>", "response": "r", "stimulus-type": "incongruent", "word": "blue", "color": "red", "correct_response": "r", "trial_id": "stroop-trial-1-incongruent-16", "trial_type": "html-keyboard-response", "trial_index": 188, "time_elapsed": 503139, "internal_node_id": "0.0-8.0-2.0"}}, {"uniqueid": "w24869720:a37454990", "current_trial": 189, "dateTime": 1664463886244, "trialdata": {"rt": 2034, "stimulus": "<p id='stroop-text' class='stroop-yellow'>STONE</p>", "response": "y", "stimulus-type": "unrelated", "word": "STONE", "color": "yellow", "correct_response": "y", "trial_id": "stroop-trial-1-unrelated-4", "trial_type": "html-keyboard-response", "trial_index": 189, "time_elapsed": 505680, "internal_node_id": "0.0-8.0-3.0"}}, {"uniqueid": "w24869720:a37454990", "current_trial": 190, "dateTime": 1664463887320, "trialdata": {"rt": 546, "stimulus": "<p id='stroop-text' class='stroop-blue'>BLUE</p>", "response": "b", "stimulus-type": "congruent", "word": "blue", "color": "blue", "correct_response": "b", "trial_id": "stroop-trial-1-congruent-17", "trial_type": "html-keyboard-response", "trial_index": 190, "time_elapsed": 506757, "internal_node_id": "0.0-8.0-4.0"}}, {"uniqueid": "w24869720:a37454990", "current_trial": 191, "dateTime": 1664463888523, "trialdata": {"rt": 693, "stimulus": "<p id='stroop-text' class='stroop-red'>RED</p>", "response": "r", "stimulus-type": "congruent", "word": "red", "color": "red", "correct_response": "r", "trial_id": "stroop-trial-1-congruent-11", "trial_type": "html-keyboard-response", "trial_index": 191, "time_elapsed": 507959, "internal_node_id": "0.0-8.0-5.0"}}, {"uniqueid": "w24869720:a37454990", "current_trial": 192, "dateTime": 1664463889706, "trialdata": {"rt": 653, "stimulus": "<p id='stroop-text' class='stroop-blue'>BLUE</p>", "response": "b", "stimulus-type": "congruent", "word": "blue", "color": "blue", "correct_response": "b", "trial_id": "stroop-trial-1-congruent-1", "trial_type": "html-keyboard-response", "trial_index": 192, "time_elapsed": 509142, "internal_node_id": "0.0-8.0-6.0"}}, {"uniqueid": "w24869720:a37454990", "current_trial": 193, "dateTime": 1664463890931, "trialdata": {"rt": 712, "stimulus": "<p id='stroop-text' class='stroop-blue'>BLUE</p>", "response": "b", "stimulus-type": "congruent", "word": "blue", "color": "blue", "correct_response": "b", "trial_id": "stroop-trial-1-congruent-2", "trial_type": "html-keyboard-response", "trial_index": 193, "time_elapsed": 510367, "internal_node_id": "0.0-8.0-7.0"}}, {"uniqueid": "w24869720:a37454990", "current_trial": 194, "dateTime": 1664463892093, "trialdata": {"rt": 646, "stimulus": "<p id='stroop-text' class='stroop-blue'>RED</p>", "response": "b", "stimulus-type": "incongruent", "word": "red", "color": "blue", "correct_response": "b", "trial_id": "stroop-trial-1-incongruent-25", "trial_type": "html-keyboard-response", "trial_index": 194, "time_elapsed": 511529, "internal_node_id": "0.0-8.0-8.0"}}, {"uniqueid": "w24869720:a37454990", "current_trial": 195, "dateTime": 1664463893231, "trialdata": {"rt": 624, "stimulus": "<p id='stroop-text' class='stroop-red'>GREEN</p>", "response": "r", "stimulus-type": "incongruent", "word": "green", "color": "red", "correct_response": "r", "trial_id": "stroop-trial-1-incongruent-21", "trial_type": "html-keyboard-response", "trial_index": 195, "time_elapsed": 512667, "internal_node_id": "0.0-8.0-9.0"}}, {"uniqueid": "w24869720:a37454990", "current_trial": 196, "dateTime": 1664463894445, "trialdata": {"rt": 702, "stimulus": "<p id='stroop-text' class='stroop-blue'>BLUE</p>", "response": "b", "stimulus-type": "congruent", "word": "blue", "color": "blue", "correct_response": "b", "trial_id": "stroop-trial-1-congruent-24", "trial_type": "html-keyboard-response", "trial_index": 196, "time_elapsed": 513881, "internal_node_id": "0.0-8.0-10.0"}}, {"uniqueid": "w24869720:a37454990", "current_trial": 197, "dateTime": 1664463895574, "trialdata": {"rt": 615, "stimulus": "<p id='stroop-text' class='stroop-green'>BLUE</p>", "response": "g", "stimulus-type": "incongruent", "word": "blue", "color": "green", "correct_response": "g", "trial_id": "stroop-trial-1-incongruent-27", "trial_type": "html-keyboard-response", "trial_index": 197, "time_elapsed": 515010, "internal_node_id": "0.0-8.0-11.0"}}, {"uniqueid": "w24869720:a37454990", "current_trial": 198, "dateTime": 1664463896679, "trialdata": {"rt": 583, "stimulus": "<p id='stroop-text' class='stroop-yellow'>STONE</p>", "response": "y", "stimulus-type": "unrelated", "word": "STONE", "color": "yellow", "correct_response": "y", "trial_id": "stroop-trial-1-unrelated-12", "trial_type": "html-keyboard-response", "trial_index": 198, "time_elapsed": 516116, "internal_node_id": "0.0-8.0-12.0"}}, {"uniqueid": "w24869720:a37454990", "current_trial": 199, "dateTime": 1664463897754, "trialdata": {"rt": 560, "stimulus": "<p id='stroop-text' class='stroop-yellow'>BOTTLE</p>", "response": "y", "stimulus-type": "unrelated", "word": "BOTTLE", "color": "yellow", "correct_response": "y", "trial_id": "stroop-trial-1-unrelated-14", "trial_type": "html-keyboard-response", "trial_index": 199, "time_elapsed": 517190, "internal_node_id": "0.0-8.0-13.0"}}, {"uniqueid": "w24869720:a37454990", "current_trial": 200, "dateTime": 1664463898901, "trialdata": {"rt": 629, "stimulus": "<p id='stroop-text' class='stroop-red'>BLUE</p>", "response": "r", "stimulus-type": "incongruent", "word": "blue", "color": "red", "correct_response": "r", "trial_id": "stroop-trial-1-incongruent-24", "trial_type": "html-keyboard-response", "trial_index": 200, "time_elapsed": 518337, "internal_node_id": "0.0-8.0-14.0"}}, {"uniqueid": "w24869720:a37454990", "current_trial": 201, "dateTime": 1664463900064, "trialdata": {"rt": 630, "stimulus": "<p id='stroop-text' class='stroop-blue'>BLUE</p>", "response": "b", "stimulus-type": "congruent", "word": "blue", "color": "blue", "correct_response": "b", "trial_id": "stroop-trial-1-congruent-16", "trial_type": "html-keyboard-response", "trial_index": 201, "time_elapsed": 519500, "internal_node_id": "0.0-8.0-15.0"}}, {"uniqueid": "w24869720:a37454990", "current_trial": 202, "dateTime": 1664463902043, "trialdata": {"rt": 1464, "stimulus": "<p id='stroop-text' class='stroop-red'>YELLOW</p>", "response": "r", "stimulus-type": "incongruent", "word": "yellow", "color": "red", "correct_response": "r", "trial_id": "stroop-trial-1-incongruent-13", "trial_type": "html-keyboard-response", "trial_index": 202, "time_elapsed": 521479, "internal_node_id": "0.0-8.0-16.0"}}, {"uniqueid": "w24869720:a37454990", "current_trial": 203, "dateTime": 1664463903379, "trialdata": {"rt": 823, "stimulus": "<p id='stroop-text' class='stroop-green'>FORK</p>", "response": "g", "stimulus-type": "unrelated", "word": "FORK", "color": "green", "correct_response": "g", "trial_id": "stroop-trial-1-unrelated-15", "trial_type": "html-keyboard-response", "trial_index": 203, "time_elapsed": 522815, "internal_node_id": "0.0-8.0-17.0"}}, {"uniqueid": "w24869720:a37454990", "current_trial": 204, "dateTime": 1664463904593, "trialdata": {"rt": 684, "stimulus": "<p id='stroop-text' class='stroop-blue'>YELLOW</p>", "response": "b", "stimulus-type": "incongruent", "word": "yellow", "color": "blue", "correct_response": "b", "trial_id": "stroop-trial-1-incongruent-22", "trial_type": "html-keyboard-response", "trial_index": 204, "time_elapsed": 524030, "internal_node_id": "0.0-8.0-18.0"}}, {"uniqueid": "w24869720:a37454990", "current_trial": 205, "dateTime": 1664463906394, "trialdata": {"rt": 1291, "stimulus": "<p id='stroop-text' class='stroop-green'>YELLOW</p>", "response": "g", "stimulus-type": "incongruent", "word": "yellow", "color": "green", "correct_response": "g", "trial_id": "stroop-trial-1-incongruent-8", "trial_type": "html-keyboard-response", "trial_index": 205, "time_elapsed": 525830, "internal_node_id": "0.0-8.0-19.0"}}, {"uniqueid": "w24869720:a37454990", "current_trial": 206, "dateTime": 1664463907757, "trialdata": {"rt": 851, "stimulus": "<p id='stroop-text' class='stroop-blue'>YELLOW</p>", "response": "b", "stimulus-type": "incongruent", "word": "yellow", "color": "blue", "correct_response": "b", "trial_id": "stroop-trial-1-incongruent-29", "trial_type": "html-keyboard-response", "trial_index": 206, "time_elapsed": 527194, "internal_node_id": "0.0-8.0-20.0"}}, {"uniqueid": "w24869720:a37454990", "current_trial": 207, "dateTime": 1664463909073, "trialdata": {"rt": 806, "stimulus": "<p id='stroop-text' class='stroop-yellow'>DOG</p>", "response": "y", "stimulus-type": "unrelated", "word": "DOG", "color": "yellow", "correct_response": "y", "trial_id": "stroop-trial-1-unrelated-22", "trial_type": "html-keyboard-response", "trial_index": 207, "time_elapsed": 528509, "internal_node_id": "0.0-8.0-21.0"}}, {"uniqueid": "w24869720:a37454990", "current_trial": 208, "dateTime": 1664463910763, "trialdata": {"rt": 1178, "stimulus": "<p id='stroop-text' class='stroop-green'>YELLOW</p>", "response": "g", "stimulus-type": "incongruent", "word": "yellow", "color": "green", "correct_response": "g", "trial_id": "stroop-trial-1-incongruent-12", "trial_type": "html-keyboard-response", "trial_index": 208, "time_elapsed": 530199, "internal_node_id": "0.0-8.0-22.0"}}, {"uniqueid": "w24869720:a37454990", "current_trial": 209, "dateTime": 1664463912103, "trialdata": {"rt": 819, "stimulus": "<p id='stroop-text' class='stroop-yellow'>GREEN</p>", "response": "y", "stimulus-type": "incongruent", "word": "green", "color": "yellow", "correct_response": "y", "trial_id": "stroop-trial-1-incongruent-7", "trial_type": "html-keyboard-response", "trial_index": 209, "time_elapsed": 531539, "internal_node_id": "0.0-8.0-23.0"}}, {"uniqueid": "w24869720:a37454990", "current_trial": 210, "dateTime": 1664463913349, "trialdata": {"rt": 734, "stimulus": "<p id='stroop-text' class='stroop-green'>GREEN</p>", "response": "g", "stimulus-type": "congruent", "word": "green", "color": "green", "correct_response": "g", "trial_id": "stroop-trial-1-congruent-10", "trial_type": "html-keyboard-response", "trial_index": 210, "time_elapsed": 532785, "internal_node_id": "0.0-8.0-24.0"}}, {"uniqueid": "w24869720:a37454990", "current_trial": 211, "dateTime": 1664463914449, "trialdata": {"rt": 593, "stimulus": "<p id='stroop-text' class='stroop-green'>DOG</p>", "response": "g", "stimulus-type": "unrelated", "word": "DOG", "color": "green", "correct_response": "g", "trial_id": "stroop-trial-1-unrelated-18", "trial_type": "html-keyboard-response", "trial_index": 211, "time_elapsed": 533885, "internal_node_id": "0.0-8.0-25.0"}}, {"uniqueid": "w24869720:a37454990", "current_trial": 212, "dateTime": 1664463915637, "trialdata": {"rt": 669, "stimulus": "<p id='stroop-text' class='stroop-yellow'>YELLOW</p>", "response": "y", "stimulus-type": "congruent", "word": "yellow", "color": "yellow", "correct_response": "y", "trial_id": "stroop-trial-1-congruent-5", "trial_type": "html-keyboard-response", "trial_index": 212, "time_elapsed": 535074, "internal_node_id": "0.0-8.0-26.0"}}, {"uniqueid": "w24869720:a37454990", "current_trial": 213, "dateTime": 1664463917184, "trialdata": {"rt": 1033, "stimulus": "<p id='stroop-text' class='stroop-red'>RED</p>", "response": "r", "stimulus-type": "congruent", "word": "red", "color": "red", "correct_response": "r", "trial_id": "stroop-trial-1-congruent-6", "trial_type": "html-keyboard-response", "trial_index": 213, "time_elapsed": 536620, "internal_node_id": "0.0-8.0-27.0"}}, {"uniqueid": "w24869720:a37454990", "current_trial": 214, "dateTime": 1664463918398, "trialdata": {"rt": 702, "stimulus": "<p id='stroop-text' class='stroop-red'>YELLOW</p>", "response": "r", "stimulus-type": "incongruent", "word": "yellow", "color": "red", "correct_response": "r", "trial_id": "stroop-trial-1-incongruent-10", "trial_type": "html-keyboard-response", "trial_index": 214, "time_elapsed": 537834, "internal_node_id": "0.0-8.0-28.0"}}, {"uniqueid": "w24869720:a37454990", "current_trial": 215, "dateTime": 1664463919494, "trialdata": {"rt": 578, "stimulus": "<p id='stroop-text' class='stroop-red'>BLUE</p>", "response": "r", "stimulus-type": "incongruent", "word": "blue", "color": "red", "correct_response": "r", "trial_id": "stroop-trial-1-incongruent-28", "trial_type": "html-keyboard-response", "trial_index": 215, "time_elapsed": 538930, "internal_node_id": "0.0-8.0-29.0"}}, {"uniqueid": "w24869720:a37454990", "current_trial": 216, "dateTime": 1664463920733, "trialdata": {"rt": 721, "stimulus": "<p id='stroop-text' class='stroop-yellow'>RED</p>", "response": "y", "stimulus-type": "incongruent", "word": "red", "color": "yellow", "correct_response": "y", "trial_id": "stroop-trial-1-incongruent-2", "trial_type": "html-keyboard-response", "trial_index": 216, "time_elapsed": 540170, "internal_node_id": "0.0-8.0-30.0"}}, {"uniqueid": "w24869720:a37454990", "current_trial": 217, "dateTime": 1664463922034, "trialdata": {"rt": 783, "stimulus": "<p id='stroop-text' class='stroop-red'>STONE</p>", "response": "r", "stimulus-type": "unrelated", "word": "STONE", "color": "red", "correct_response": "r", "trial_id": "stroop-trial-1-unrelated-21", "trial_type": "html-keyboard-response", "trial_index": 217, "time_elapsed": 541470, "internal_node_id": "0.0-8.0-31.0"}}, {"uniqueid": "w24869720:a37454990", "current_trial": 218, "dateTime": 1664463923242, "trialdata": {"rt": 689, "stimulus": "<p id='stroop-text' class='stroop-blue'>BOTTLE</p>", "response": "b", "stimulus-type": "unrelated", "word": "BOTTLE", "color": "blue", "correct_response": "b", "trial_id": "stroop-trial-1-unrelated-26", "trial_type": "html-keyboard-response", "trial_index": 218, "time_elapsed": 542678, "internal_node_id": "0.0-8.0-32.0"}}, {"uniqueid": "w24869720:a37454990", "current_trial": 219, "dateTime": 1664463924729, "trialdata": {"rt": 972, "stimulus": "<p id='stroop-text' class='stroop-green'>CHAIR</p>", "response": "g", "stimulus-type": "unrelated", "word": "CHAIR", "color": "green", "correct_response": "g", "trial_id": "stroop-trial-1-unrelated-9", "trial_type": "html-keyboard-response", "trial_index": 219, "time_elapsed": 544165, "internal_node_id": "0.0-8.0-33.0"}}, {"uniqueid": "w24869720:a37454990", "current_trial": 220, "dateTime": 1664463926045, "trialdata": {"rt": 802, "stimulus": "<p id='stroop-text' class='stroop-yellow'>STONE</p>", "response": "y", "stimulus-type": "unrelated", "word": "STONE", "color": "yellow", "correct_response": "y", "trial_id": "stroop-trial-1-unrelated-5", "trial_type": "html-keyboard-response", "trial_index": 220, "time_elapsed": 545481, "internal_node_id": "0.0-8.0-34.0"}}, {"uniqueid": "w24869720:a37454990", "current_trial": 221, "dateTime": 1664463927531, "trialdata": {"rt": 964, "stimulus": "<p id='stroop-text' class='stroop-green'>BRIDGE</p>", "response": "g", "stimulus-type": "unrelated", "word": "BRIDGE", "color": "green", "correct_response": "g", "trial_id": "stroop-trial-1-unrelated-27", "trial_type": "html-keyboard-response", "trial_index": 221, "time_elapsed": 546968, "internal_node_id": "0.0-8.0-35.0"}}, {"uniqueid": "w24869720:a37454990", "current_trial": 222, "dateTime": 1664463929149, "trialdata": {"rt": 1101, "stimulus": "<p id='stroop-text' class='stroop-blue'>SHIP</p>", "response": "b", "stimulus-type": "unrelated", "word": "SHIP", "color": "blue", "correct_response": "b", "trial_id": "stroop-trial-1-unrelated-20", "trial_type": "html-keyboard-response", "trial_index": 222, "time_elapsed":