{"condition": 1, "counterbalance": 0, "assignmentId": "a65878574", "workerId": "w80375362", "hitId": "h91507684", "currenttrial": 136, "bonus": 0, "data": [{"uniqueid": "w80375362:a65878574", "current_trial": 0, "dateTime": 1664555288752, "trialdata": {"success": true, "trial_type": "fullscreen", "trial_index": 0, "time_elapsed": 7752, "internal_node_id": "0.0-0.0"}}, {"uniqueid": "w80375362:a65878574", "current_trial": 1, "dateTime": 1664555313847, "trialdata": {"view_history": [{"page_index": 0, "viewing_time": 25087}], "rt": 25089, "trial_id": "exp_instructions_no_distractor", "trial_type": "instructions", "trial_index": 1, "time_elapsed": 32848, "internal_node_id": "0.0-1.0"}}, {"uniqueid": "w80375362:a65878574", "current_trial": 2, "dateTime": 1664555318406, "trialdata": {"success": true, "trial_type": "fullscreen", "trial_index": 2, "time_elapsed": 37407, "internal_node_id": "0.0-2.0-0.0"}}, {"uniqueid": "w80375362:a65878574", "current_trial": 3, "dateTime": 1664555478040, "trialdata": {"view_history": [{"page_index": 0, "viewing_time": 53145}, {"page_index": 1, "viewing_time": 41487}, {"page_index": 2, "viewing_time": 34579}, {"page_index": 3, "viewing_time": 7542}, {"page_index": 4, "viewing_time": 22876}], "rt": 159631, "trial_id": "mouselab_instructions_1", "trial_type": "instructions", "trial_index": 3, "time_elapsed": 197041, "internal_node_id": "0.0-2.0-1.0"}}, {"uniqueid": "w80375362:a65878574", "current_trial": 4, "dateTime": 1664555528324, "trialdata": {"revealed_states": [], "num_clicks_accrued": [0, 0, 0, 0, 0, 0, 0, 0, 0, 0, 0, 0, 0], "stateRewards": ["", 10, -10, -10, -10, -10, 10, 10, -10, -10, 10, 10, -10], "withholdReward": false, "trial_id": "practice_1", "block": "test", "trialIndex": 0, "score": -0.25, "costs": -2.25, "simulationMode": [null, null, null, null, null, null, null], "rewards": [-10, -10, 10, 10], "path": ["0", "0", "9", "9", "10", "11"], "rt": [37086, 33945, 740, 246, 1369, 876, 347], "actions": ["left", "left", "left", "left", "left", "left", "up"], "actionTimes": [33943, 33945, 34687, 34689, 36060, 36062, 36901], "queries": {"click": {"state": {"target": ["5", "9", "10", "6", "1", "2", "4", "3", "11"], "time": [3280, 6368, 8244, 10472, 13265, 14447, 15529, 20607, 27959]}, "edge": {"target": [], "time": []}}, "mouseover": {"state": {"target": ["5", "5", "0", "9", "10", "0", "6", "7", "1", "2", "4", "11", "0", "3", "11", "7", "0", "12"], "time": [2745, 2910, 5169, 5484, 7575, 8930, 9955, 11294, 12936, 14125, 15136, 16137, 18878, 19912, 22963, 30475, 31385, 32027]}, "edge": {"target": [], "time": []}}, "mouseout": {"state": {"target": ["0", "5", "5", "0", "9", "10", "9", "0", "5", "6", "7", "1", "2", "4", "11", "0", "1", "2", "3", "5", "9", "11", "10", "5", "6", "7", "5", "0", "9", "10", "12"], "time": [null, 2815, 5134, 5334, 7439, 8863, 8914, 8947, 9529, 11194, 12785, 14042, 15069, 16037, 16554, 19045, 19529, 19845, 20962, 21016, 22578, 28672, 28721, 30119, 30202, 31286, 31355, 31419, 31927, 31994, 32060]}, "edge": {"target": [], "time": []}}}, "displayed_time": "37.40", "trialTime": 41574, "trial_type": "mouselab-mdp", "trial_index": 4, "time_elapsed": 247324, "internal_node_id": "0.0-2.0-2.0-0.0"}}, {"uniqueid": "w80375362:a65878574", "current_trial": 5, "dateTime": 1664555566536, "trialdata": {"revealed_states": [], "num_clicks_accrued": [0, 0, 0, 0, 0, 0, 0, 0, 0, 0, 0, 0, 0], "stateRewards": ["", -10, 10, -10, 10, -10, -10, 10, 10, 10, 10, -10, 10], "withholdReward": false, "trial_id": "practice_2", "block": "test", "trialIndex": 1, "score": 31.25, "costs": -0.75, "simulationMode": [null, null, null], "rewards": [10, 10, 10], "path": ["0", "0", "9", "10", "12"], "rt": [27624, 121, 190], "actions": ["left", "left", "down"], "actionTimes": [31892, 32505, 33193], "queries": {"click": {"state": {"target": ["10", "2", "12"], "time": [21112, 22402, 29810]}, "edge": {"target": [], "time": []}}, "mouseover": {"state": {"target": ["10", "9", "9", "10", "10", "2", "6", "5", "9", "11", "12"], "time": [8336, 8403, 8853, 15983, 16358, 21657, 23300, 24633, 24866, 25333, 28282]}, "edge": {"target": [], "time": []}}, "mouseout": {"state": {"target": ["10", "9", "0", "10", "9", "9", "10", "10", "2", "6", "5", "9", "11", "12"], "time": [3467, 3534, 5780, 8370, 8570, 15950, 16066, 21541, 22889, 24600, 24650, 25016, 27440, 30532]}, "edge": {"target": [], "time": []}}}, "displayed_time": "33.70", "trialTime": 38168, "trial_type": "mouselab-mdp", "trial_index": 5, "time_elapsed": 285537, "internal_node_id": "0.0-2.0-2.0-1.0"}}, {"uniqueid": "w80375362:a65878574", "current_trial": 6, "dateTime": 1664555640623, "trialdata": {"view_history": [{"page_index": 0, "viewing_time": 42572}, {"page_index": 1, "viewing_time": 18340}, {"page_index": 2, "viewing_time": 13170}], "rt": 74083, "trial_id": "mouselab_instructions_2_scarce", "trial_type": "instructions", "trial_index": 6, "time_elapsed": 359624, "internal_node_id": "0.0-2.0-3.0"}}, {"uniqueid": "w80375362:a65878574", "current_trial": 7, "dateTime": 1664555711525, "trialdata": {"rt": 70895, "response": {"Q0": "$-48 to $48", "Q1": "The cost is always $0.25.", "Q2": "The better I perform the higher my bonus will be.", "Q3": "No, the amount of cash at each node of the web may be different each time.", "Q4": "The values of the nodes walked through from start to finish.", "Q5": "No, the spider might forget to count the money on some rounds."}, "question_order": [0, 1, 2, 3, 4, 5], "correct": {"Q0": "$-48 to $48", "Q1": "The cost is always $0.25.", "Q2": "The better I perform the higher my bonus will be.", "Q3": "No, the amount of cash at each node of the web may be different each time.", "Q4": "The values of the nodes walked through from start to finish.", "Q5": "No, the spider might forget to count the money on some rounds."}, "trial_id": "mouselab_quiz_scarce", "trial_type": "survey-multi-choice", "trial_index": 7, "time_elapsed": 430526, "internal_node_id": "0.0-2.0-4.0"}}, {"uniqueid": "w80375362:a65878574", "current_trial": 8, "dateTime": 1664555728030, "trialdata": {"rt": 16497, "stimulus": "\n<h1> Get ready to start the game! </h1>\n\nThank you for reading the instructions. Get ready start with the first of 4 block(s) of this game.\n<br><br>\nIn this first block, you will complete 30 rounds of this game before moving on.\n<br><br>\nRemember, the more money the spider gets, the bigger your bonus will be!\n<br><br>\n<div style='text-align: center;'>Press <code>space</code> to begin.</div>\n\n<br><br>\n(If, at any point, the <code>space</code> key does not take you to the next page, click once on the text and try again.)", "response": " ", "trial_id": "mdp_ready_1", "trial_type": "html-keyboard-response", "trial_index": 8, "time_elapsed": 447031, "internal_node_id": "0.0-4.0-0.0"}}, {"uniqueid": "w80375362:a65878574", "current_trial": 9, "dateTime": 1664555774870, "trialdata": {"revealed_states": [], "num_clicks_accrued": [0, 0, 0, 0, 0, 0, 0, 0, 0, 0, 0, 0, 0], "stateRewards": ["", 4, -8, 24, 48, -2, -4, -48, 24, 2, 4, -48, -24], "withholdReward": false, "trial_id": "mdp_749974461966", "block": "test1", "trialIndex": 2, "score": 46.5, "costs": -2.5, "simulationMode": [null, null, null], "rewards": [4, -8, 48], "path": ["0", "0", "1", "2", "4"], "rt": [40217, 314, 122], "actions": ["up", "up", "left"], "actionTimes": [42653, 43472, 44109], "queries": {"click": {"state": {"target": ["10", "2", "6", "9", "11", "12", "5", "1", "3", "4"], "time": [5813, 6828, 7740, 11751, 13147, 14096, 15103, 17151, 20205, 22808]}, "edge": {"target": [], "time": []}}, "mouseover": {"state": {"target": ["9", "10", "2", "6", "5", "0", "9", "9", "12", "9", "9", "11", "12", "0", "5", "1", "1", "3", "4", "7", "4", "0"], "time": [5100, 5351, 6478, 7438, 8289, 8339, 8389, 9405, 10139, 11072, 11356, 12642, 13659, 14592, 14710, 15619, 16028, 19058, 21146, 21633, 22099, 23601]}, "edge": {"target": [], "time": []}}, "mouseout": {"state": {"target": ["0", "9", "10", "2", "6", "5", "0", "9", "9", "12", "9", "9", "9", "10", "11", "10", "12", "0", "5", "1", "1", "3", "2", "4", "7", "1", "4", "1", "0"], "time": [5067, 5133, 6312, 7157, 8272, 8322, 8372, 8405, 9888, 11039, 11155, 12192, 12475, 12558, 13526, 13608, 14525, 14610, 15569, 15669, 17746, 20962, 21030, 21567, 21649, 21967, 23173, 23536, 23618]}, "edge": {"target": [], "time": []}}}, "displayed_time": "44.61", "trialTime": 46799, "trial_type": "mouselab-mdp", "trial_index": 9, "time_elapsed": 493870, "internal_node_id": "0.0-4.0-1.0-0.0"}}, {"uniqueid": "w80375362:a65878574", "current_trial": 10, "dateTime": 1664555796199, "trialdata": {"revealed_states": [], "num_clicks_accrued": [0, 0, 0, 0, 0, 0, 0, 0, 0, 0, 0, 0, 0], "stateRewards": ["", 4, 4, 48, -24, -4, -8, 24, -24, 2, -8, -24, 24], "withholdReward": false, "trial_id": "mdp_933201675789", "block": "test1", "trialIndex": 3, "score": 59, "costs": -2, "simulationMode": [null, null, null], "rewards": [4, 4, 48], "path": ["0", "0", "1", "2", "3"], "rt": [11471, 82, 559], "actions": ["up", "up", "right"], "actionTimes": [18123, 18715, 19791], "queries": {"click": {"state": {"target": ["10", "2", "6", "5", "1", "9", "4", "3"], "time": [9400, 10314, 11116, 12108, 13007, 13829, 15000, 15714]}, "edge": {"target": [], "time": []}}, "mouseover": {"state": {"target": ["9", "10", "2", "6", "5", "1", "9", "4", "3"], "time": [8315, 9158, 10025, 10715, 11581, 12625, 13370, 14567, 15454]}, "edge": {"target": [], "time": []}}, "mouseout": {"state": {"target": ["0", "0", "9", "10", "2", "6", "5", "1", "9", "4", "3", "5"], "time": [5278, 8168, 9059, 9747, 10623, 11530, 12579, 13302, 14233, 15296, 15971, 16021]}, "edge": {"target": [], "time": []}}}, "displayed_time": "20.30", "trialTime": 21292, "trial_type": "mouselab-mdp", "trial_index": 10, "time_elapsed": 515199, "internal_node_id": "0.0-4.0-1.0-1.0"}}, {"uniqueid": "w80375362:a65878574", "current_trial": 11, "dateTime": 1664555814476, "trialdata": {"revealed_states": [], "num_clicks_accrued": [0, 0, 0, 0, 0, 0, 0, 0, 0, 0, 0, 0, 0], "stateRewards": ["", -2, -4, -24, -48, 2, -8, -24, -24, 4, -8, 48, 48], "withholdReward": true, "trial_id": "mdp_950599994674", "block": "test1", "trialIndex": 4, "score": 47, "costs": -2, "simulationMode": [null, null, null], "rewards": [4, -8, 48], "path": ["0", "0", "9", "10", "11"], "rt": [14838, 75, 102], "actions": ["left", "left", "up"], "actionTimes": [15990, 16566, 17177], "queries": {"click": {"state": {"target": ["10", "2", "6", "7", "5", "9", "1", "11"], "time": [6554, 7588, 8474, 9918, 10997, 12628, 13281, 14094]}, "edge": {"target": [], "time": []}}, "mouseover": {"state": {"target": ["9", "10", "2", "2", "6", "7", "5", "5", "9", "1", "11", "12"], "time": [6114, 6214, 7019, 7318, 8114, 9068, 10604, 10720, 12358, 12983, 13749, 14884]}, "edge": {"target": [], "time": []}}, "mouseout": {"state": {"target": ["0", "9", "10", "2", "2", "6", "7", "5", "5", "9", "1", "11", "10", "12"], "time": [6064, 6165, 6851, 7119, 7843, 8917, 10270, 10638, 11273, 12931, 13667, 14394, 14502, 15016]}, "edge": {"target": [], "time": []}}}, "displayed_time": "17.69", "trialTime": 18239, "trial_type": "mouselab-mdp", "trial_index": 11, "time_elapsed": 533477, "internal_node_id": "0.0-4.0-1.0-2.0"}}, {"uniqueid": "w80375362:a65878574", "current_trial": 12, "dateTime": 1664555828839, "trialdata": {"revealed_states": [], "num_clicks_accrued": [0, 0, 0, 0, 0, 0, 0, 0, 0, 0, 0, 0, 0], "stateRewards": ["", -2, 8, -48, -24, -2, 8, 48, -48, -4, 8, 24, 48], "withholdReward": true, "trial_id": "mdp_160707003673", "block": "test1", "trialIndex": 5, "score": 57.75, "costs": -1.25, "simulationMode": [null, null, null], "rewards": [-2, 8, 48], "path": ["0", "0", "5", "6", "7"], "rt": [7536, 173, 123], "actions": ["right", "right", "up"], "actionTimes": [8771, 9443, 10069], "queries": {"click": {"state": {"target": ["10", "11", "4", "3", "7"], "time": [2506, 3205, 4035, 4980, 5942]}, "edge": {"target": [], "time": []}}, "mouseover": {"state": {"target": ["9", "10", "10", "11", "4", "2", "3", "3", "7", "6", "8", "5", "0"], "time": [1798, 1848, 2156, 2952, 3630, 4348, 4397, 4654, 5632, 6281, 6381, 6649, 7181]}, "edge": {"target": [], "time": []}}, "mouseout": {"state": {"target": ["12", "0", "9", "10", "10", "11", "4", "2", "3", "3", "7", "6", "8", "5", "0"], "time": [710, 1782, 1815, 1886, 2919, 3580, 4331, 4364, 4485, 5349, 6264, 6331, 6514, 7064, 7213]}, "edge": {"target": [], "time": []}}}, "displayed_time": "10.58", "trialTime": 14319, "trial_type": "mouselab-mdp", "trial_index": 12, "time_elapsed": 547840, "internal_node_id": "0.0-4.0-1.0-3.0"}}, {"uniqueid": "w80375362:a65878574", "current_trial": 13, "dateTime": 1664555840200, "trialdata": {"revealed_states": [], "num_clicks_accrued": [0, 0, 0, 0, 0, 0, 0, 0, 0, 0, 0, 0, 0], "stateRewards": ["", -2, 8, 48, -24, 2, 4, -48, -24, -4, 8, -48, -48], "withholdReward": true, "trial_id": "mdp_539167561933", "block": "test1", "trialIndex": 6, "score": 58.5, "costs": -0.5, "simulationMode": [null, null, null], "rewards": [-2, 8, 48], "path": ["0", "0", "1", "2", "3"], "rt": [4293, 24, 15], "actions": ["up", "up", "right"], "actionTimes": [6612, 7137, 7646], "queries": {"click": {"state": {"target": ["7", "3"], "time": [3754, 4591]}, "edge": {"target": [], "time": []}}, "mouseover": {"state": {"target": ["5", "7", "3", "2", "10"], "time": [2917, 3409, 4279, 4929, 5263]}, "edge": {"target": [], "time": []}}, "mouseout": {"state": {"target": ["0", "5", "7", "3", "2", "10"], "time": [2865, 2950, 4197, 4913, 4996, 5296]}, "edge": {"target": [], "time": []}}}, "displayed_time": "10.33", "trialTime": 11313, "trial_type": "mouselab-mdp", "trial_index": 13, "time_elapsed": 559200, "internal_node_id": "0.0-4.0-1.0-4.0"}}, {"uniqueid": "w80375362:a65878574", "current_trial": 14, "dateTime": 1664555851927, "trialdata": {"revealed_states": [], "num_clicks_accrued": [0, 0, 0, 0, 0, 0, 0, 0, 0, 0, 0, 0, 0], "stateRewards": ["", 2, -4, 24, -24, 2, -8, 48, 48, 4, -4, 24, 48], "withholdReward": true, "trial_id": "mdp_947836623875", "block": "test1", "trialIndex": 7, "score": 46, "costs": -1, "simulationMode": [null, null, null], "rewards": [2, -8, 48], "path": ["0", "0", "5", "6", "8"], "rt": [5871, 203, 101], "actions": ["right", "right", "down"], "actionTimes": [7761, 8478, 9078], "queries": {"click": {"state": {"target": ["3", "4", "11", "8"], "time": [2960, 3883, 4676, 6031]}, "edge": {"target": [], "time": []}}, "mouseover": {"state": {"target": ["1", "2", "3", "2", "4", "11", "10", "8", "6"], "time": [2380, 2529, 2680, 3380, 3612, 4317, 5000, 5657, 6842]}, "edge": {"target": [], "time": []}}, "mouseout": {"state": {"target": ["1", "0", "1", "2", "3", "2", "4", "11", "10", "8", "6"], "time": [1213, 2338, 2447, 2631, 3349, 3497, 4166, 4966, 5033, 6391, 6875]}, "edge": {"target": [], "time": []}}}, "displayed_time": "10.89", "trialTime": 11685, "trial_type": "mouselab-mdp", "trial_index": 14, "time_elapsed": 570928, "internal_node_id": "0.0-4.0-1.0-5.0"}}, {"uniqueid": "w80375362:a65878574", "current_trial": 15, "dateTime": 1664555864163, "trialdata": {"revealed_states": [], "num_clicks_accrued": [0, 0, 0, 0, 0, 0, 0, 0, 0, 0, 0, 0, 0], "stateRewards": ["", 2, -8, 48, -24, 2, -4, 24, 48, 4, -4, 48, -24], "withholdReward": false, "trial_id": "mdp_656500928756", "block": "test1", "trialIndex": 8, "score": 52.75, "costs": -0.25, "simulationMode": [null, null, null], "rewards": [4, -4, 48], "path": ["0", "0", "9", "10", "11"], "rt": [3116, 203, 273], "actions": ["left", "left", "up"], "actionTimes": [4654, 5357, 6134], "queries": {"click": {"state": {"target": ["11"], "time": [2611]}, "edge": {"target": [], "time": []}}, "mouseover": {"state": {"target": ["9", "11", "12"], "time": [2067, 2200, 3206]}, "edge": {"target": [], "time": []}}, "mouseout": {"state": {"target": ["9", "11", "12"], "time": [2101, 3072, 3239]}, "edge": {"target": [], "time": []}}}, "displayed_time": "10.55", "trialTime": 12198, "trial_type": "mouselab-mdp", "trial_index": 15, "time_elapsed": 583164, "internal_node_id": "0.0-4.0-1.0-6.0"}}, {"uniqueid": "w80375362:a65878574", "current_trial": 16, "dateTime": 1664555887357, "trialdata": {"revealed_states": [], "num_clicks_accrued": [0, 0, 0, 0, 0, 0, 0, 0, 0, 0, 0, 0, 0], "stateRewards": ["", 2, 8, -48, -24, 2, -4, -48, 24, 2, -4, -24, -24], "withholdReward": true, "trial_id": "mdp_954659099093", "block": "test1", "trialIndex": 9, "score": 24, "costs": -3, "simulationMode": [null, null, null], "rewards": [2, -4, 24], "path": ["0", "0", "5", "6", "8"], "rt": [17917, 530, 92], "actions": ["right", "right", "down"], "actionTimes": [19195, 20226, 20838], "queries": {"click": {"state": {"target": ["7", "8", "4", "12", "11", "3", "10", "6", "2", "1", "5", "9"], "time": [2052, 3973, 5204, 6174, 6975, 8045, 11954, 12901, 13824, 14505, 15255, 16014]}, "edge": {"target": [], "time": []}}, "mouseover": {"state": {"target": ["7", "3", "3", "8", "8", "2", "4", "11", "10", "12", "10", "11", "2", "3", "1", "9", "10", "10", "9", "0", "5", "6", "2", "1", "5", "9"], "time": [1718, 2647, 2944, 3375, 3659, 4750, 4948, 5549, 5700, 5783, 6578, 6612, 7396, 7712, 8371, 8421, 8453, 10604, 12282, 12331, 12382, 12665, 13556, 14140, 14823, 15614]}, "edge": {"target": [], "time": []}}, "mouseout": {"state": {"target": ["12", "0", "7", "3", "3", "8", "8", "2", "4", "11", "10", "12", "10", "11", "2", "3", "1", "9", "10", "10", "9", "0", "5", "6", "3", "2", "1", "5", "9"], "time": [826, 1622, 2510, 2718, 3294, 3392, 4599, 4865, 5515, 5666, 5750, 6562, 6596, 7246, 7528, 8337, 8388, 8438, 8488, 12265, 12315, 12348, 12600, 13240, 13306, 14102, 14780, 15504, 16275]}, "edge": {"target": [], "time": []}}}, "displayed_time": "21.35", "trialTime": 23151, "trial_type": "mouselab-mdp", "trial_index": 16, "time_elapsed": 606358, "internal_node_id": "0.0-4.0-1.0-7.0"}}, {"uniqueid": "w80375362:a65878574", "current_trial": 17, "dateTime": 1664555898277, "trialdata": {"revealed_states": [], "num_clicks_accrued": [0, 0, 0, 0, 0, 0, 0, 0, 0, 0, 0, 0, 0], "stateRewards": ["", 4, 8, 48, -48, -4, 8, -24, -24, -4, 8, 48, 48], "withholdReward": false, "trial_id": "mdp_377640328420", "block": "test1", "trialIndex": 10, "score": 56.75, "costs": -0.25, "simulationMode": [null, null, null], "rewards": [-4, 8, 48], "path": ["0", "0", "9", "10", "11"], "rt": [3077, 173, 74], "actions": ["left", "left", "up"], "actionTimes": [4615, 5306, 5881], "queries": {"click": {"state": {"target": ["11"], "time": [3457]}, "edge": {"target": [], "time": []}}, "mouseover": {"state": {"target": ["9", "10", "10", "11", "10"], "time": [2174, 2223, 2391, 3200, 4065]}, "edge": {"target": [], "time": []}}, "mouseout": {"state": {"target": ["9", "0", "9", "10", "10", "11", "10", "10"], "time": [915, 2148, 2206, 2240, 2407, 3849, 4132, 6867]}, "edge": {"target": [], "time": []}}}, "displayed_time": "9.54", "trialTime": 10881, "trial_type": "mouselab-mdp", "trial_index": 17, "time_elapsed": 617278, "internal_node_id": "0.0-4.0-1.0-8.0"}}, {"uniqueid": "w80375362:a65878574", "current_trial": 18, "dateTime": 1664555909178, "trialdata": {"revealed_states": [], "num_clicks_accrued": [0, 0, 0, 0, 0, 0, 0, 0, 0, 0, 0, 0, 0], "stateRewards": ["", -4, -8, 48, 48, -4, 4, 48, -24, 4, 8, -24, -48], "withholdReward": true, "trial_id": "mdp_142906093415", "block": "test1", "trialIndex": 11, "score": 40.5, "costs": -0.5, "simulationMode": [null, null, null], "rewards": [-4, -8, 48], "path": ["0", "0", "1", "2", "4"], "rt": [3592, 102, 16], "actions": ["up", "up", "left"], "actionTimes": [4667, 5272, 5802], "queries": {"click": {"state": {"target": ["11", "4"], "time": [2478, 3375]}, "edge": {"target": [], "time": []}}, "mouseover": {"state": {"target": ["11", "4", "2", "1", "9", "12"], "time": [2188, 3124, 3699, 3866, 3932, 3982]}, "edge": {"target": [], "time": []}}, "mouseout": {"state": {"target": ["0", "11", "4", "2", "1", "9", "12"], "time": [2055, 2847, 3659, 3766, 3882, 3949, 10353]}, "edge": {"target": [], "time": []}}}, "displayed_time": "10.08", "trialTime": 10859, "trial_type": "mouselab-mdp", "trial_index": 18, "time_elapsed": 628179, "internal_node_id": "0.0-4.0-1.0-9.0"}}, {"uniqueid": "w80375362:a65878574", "current_trial": 19, "dateTime": 1664555921932, "trialdata": {"revealed_states": [], "num_clicks_accrued": [0, 0, 0, 0, 0, 0, 0, 0, 0, 0, 0, 0, 0], "stateRewards": ["", -4, 8, -48, -48, -4, 4, -24, -48, 2, -4, -24, 24], "withholdReward": true, "trial_id": "mdp_183773275291", "block": "test1", "trialIndex": 12, "score": 25.5, "costs": -1.5, "simulationMode": [null, null, null], "rewards": [2, -4, 24], "path": ["0", "0", "9", "10", "12"], "rt": [8026, 58, 73], "actions": ["left", "left", "down"], "actionTimes": [9456, 10023, 10620], "queries": {"click": {"state": {"target": ["11", "3", "7", "4", "12", "8"], "time": [2369, 3333, 4119, 5628, 6421, 7343]}, "edge": {"target": [], "time": []}}, "mouseover": {"state": {"target": ["11", "2", "3", "7", "2", "4", "4", "12", "8"], "time": [2087, 2938, 3005, 3730, 4605, 4655, 5382, 6047, 7088]}, "edge": {"target": [], "time": []}}, "mouseout": {"state": {"target": ["0", "11", "2", "3", "7", "2", "4", "4", "12", "8", "12"], "time": [1110, 2825, 2988, 3667, 4555, 4638, 4688, 5898, 6669, 7854, 7973]}, "edge": {"target": [], "time": []}}}, "displayed_time": "11.12", "trialTime": 12715, "trial_type": "mouselab-mdp", "trial_index": 19, "time_elapsed": 640933, "internal_node_id": "0.0-4.0-1.0-10.0"}}, {"uniqueid": "w80375362:a65878574", "current_trial": 20, "dateTime": 1664555933553, "trialdata": {"revealed_states": [], "num_clicks_accrued": [0, 0, 0, 0, 0, 0, 0, 0, 0, 0, 0, 0, 0], "stateRewards": ["", -4, -8, -48, 48, -2, 8, 48, 48, -2, -4, -48, -48], "withholdReward": true, "trial_id": "mdp_752833580638", "block": "test1", "trialIndex": 13, "score": 58.25, "costs": -0.75, "simulationMode": [null, null, null], "rewards": [-2, 8, 48], "path": ["0", "0", "5", "6", "7"], "rt": [6384, 93, 16], "actions": ["right", "right", "up"], "actionTimes": [7962, 8556, 9079], "queries": {"click": {"state": {"target": ["11", "3", "7"], "time": [3359, 4584, 5434]}, "edge": {"target": [], "time": []}}, "mouseover": {"state": {"target": ["9", "10", "11", "11", "4", "2", "3", "7", "6", "8"], "time": [2124, 2240, 2489, 3136, 3684, 3784, 4367, 5125, 5887, 6137]}, "edge": {"target": [], "time": []}}, "mouseout": {"state": {"target": ["10", "0", "9", "10", "11", "11", "4", "2", "3", "7", "6", "8", "0"], "time": [955, 2091, 2191, 2424, 2565, 3651, 3717, 3934, 4992, 5837, 6071, 6853, 10985]}, "edge": {"target": [], "time": []}}}, "displayed_time": "10.58", "trialTime": 11583, "trial_type": "mouselab-mdp", "trial_index": 20, "time_elapsed": 652554, "internal_node_id": "0.0-4.0-1.0-11.0"}}, {"uniqueid": "w80375362:a65878574", "current_trial": 21, "dateTime": 1664555944889, "trialdata": {"revealed_states": [], "num_clicks_accrued": [0, 0, 0, 0, 0, 0, 0, 0, 0, 0, 0, 0, 0], "stateRewards": ["", 4, -4, 48, 24, 2, -8, 24, -48, -2, -4, -48, -48], "withholdReward": true, "trial_id": "mdp_655302318695", "block": "test1", "trialIndex": 14, "score": 52.5, "costs": -0.5, "simulationMode": [null, null, null], "rewards": [4, -4, 48], "path": ["0", "0", "1", "2", "3"], "rt": [3583, 17, 74], "actions": ["up", "up", "right"], "actionTimes": [5037, 5556, 6144], "queries": {"click": {"state": {"target": ["11", "3"], "time": [2849, 3684]}, "edge": {"target": [], "time": []}}, "mouseover": {"state": {"target": ["11", "3", "0"], "time": [2478, 3393, 4279]}, "edge": {"target": [], "time": []}}, "mouseout": {"state": {"target": ["0", "11", "3", "0"], "time": [1211, 3110, 4128, 4295]}, "edge": {"target": [], "time": []}}}, "displayed_time": "10.46", "trialTime": 11289, "trial_type": "mouselab-mdp", "trial_index": 21, "time_elapsed": 663890, "internal_node_id": "0.0-4.0-1.0-12.0"}}, {"uniqueid": "w80375362:a65878574", "current_trial": 22, "dateTime": 1664555960224, "trialdata": {"revealed_states": [], "num_clicks_accrued": [0, 0, 0, 0, 0, 0, 0, 0, 0, 0, 0, 0, 0], "stateRewards": ["", 4, -8, 48, -24, -4, 4, 24, 24, -2, -4, 24, 24], "withholdReward": true, "trial_id": "mdp_542168715839", "block": "test1", "trialIndex": 15, "score": 47.5, "costs": -1.5, "simulationMode": [null, null, null], "rewards": [4, -8, 48], "path": ["0", "0", "1", "2", "3"], "rt": [8629, 561, 1065], "actions": ["up", "up", "right"], "actionTimes": [10223, 11283, 12851], "queries": {"click": {"state": {"target": ["4", "11", "12", "8", "7", "3"], "time": [2765, 4407, 6085, 7008, 7901, 8722]}, "edge": {"target": [], "time": []}}, "mouseover": {"state": {"target": ["1", "4", "11", "10", "11", "10", "12", "12", "8", "6", "7", "3", "1", "9"], "time": [2354, 2522, 3862, 3912, 4063, 4662, 4713, 5632, 6729, 7411, 7478, 8292, 9385, 9468]}, "edge": {"target": [], "time": []}}, "mouseout": {"state": {"target": ["0", "1", "4", "11", "10", "11", "10", "12", "12", "8", "6", "7", "3", "1", "9"], "time": [1345, 2372, 3161, 3881, 4029, 4646, 4680, 4963, 6380, 7378, 7445, 8228, 9118, 9420, 9502]}, "edge": {"target": [], "time": []}}}, "displayed_time": "13.35", "trialTime": 15289, "trial_type": "mouselab-mdp", "trial_index": 22, "time_elapsed": 679225, "internal_node_id": "0.0-4.0-1.0-13.0"}}, {"uniqueid": "w80375362:a65878574", "current_trial": 23, "dateTime": 1664555971650, "trialdata": {"revealed_states": [], "num_clicks_accrued": [0, 0, 0, 0, 0, 0, 0, 0, 0, 0, 0, 0, 0], "stateRewards": ["", -4, 4, -24, -24, -4, -8, 24, 48, 4, -4, 24, 48], "withholdReward": true, "trial_id": "mdp_175395325183", "block": "test1", "trialIndex": 16, "score": 40, "costs": -1, "simulationMode": [null, null, null], "rewards": [-4, -8, 48], "path": ["0", "0", "5", "6", "8"], "rt": [4834, 499, 113], "actions": ["right", "right", "down"], "actionTimes": [6110, 7109, 7739], "queries": {"click": {"state": {"target": ["4", "3", "7", "8"], "time": [2495, 3302, 3890, 4642]}, "edge": {"target": [], "time": []}}, "mouseover": {"state": {"target": ["1", "4", "3", "7", "6", "8", "12"], "time": [1965, 2233, 2958, 3634, 4193, 4276, 5292]}, "edge": {"target": [], "time": []}}, "mouseout": {"state": {"target": ["1", "1", "0", "1", "4", "3", "7", "6", "8", "12"], "time": [797, 947, 1916, 2016, 2825, 3600, 4159, 4225, 4876, 5360]}, "edge": {"target": [], "time": []}}}, "displayed_time": "10.28", "trialTime": 11386, "trial_type": "mouselab-mdp", "trial_index": 23, "time_elapsed": 690651, "internal_node_id": "0.0-4.0-1.0-14.0"}}, {"uniqueid": "w80375362:a65878574", "current_trial": 24, "dateTime": 1664555995340, "trialdata": {"revealed_states": [], "num_clicks_accrued": [0, 0, 0, 0, 0, 0, 0, 0, 0, 0, 0, 0, 0], "stateRewards": ["", -4, 8, 24, 24, 2, 4, -48, 24, -2, -4, -24, -24], "withholdReward": true, "trial_id": "mdp_752328329546", "block": "test1", "trialIndex": 17, "score": 32.5, "costs": -2.5, "simulationMode": [null, null, null], "rewards": [2, 4, 24], "path": ["0", "0", "5", "6", "8"], "rt": [18626, 143, 944], "actions": ["right", "right", "down"], "actionTimes": [20157, 20813, 22256], "queries": {"click": {"state": {"target": ["11", "3", "7", "8", "4", "12", "1", "5", "2", "6"], "time": [2404, 3957, 4983, 5875, 6817, 7810, 10756, 11585, 12959, 14155]}, "edge": {"target": [], "time": []}}, "mouseover": {"state": {"target": ["9", "11", "2", "3", "7", "7", "6", "8", "5", "1", "4", "9", "10", "12", "0", "1", "5", "2", "6"], "time": [1988, 2104, 2788, 3680, 4254, 4761, 5341, 5515, 6301, 6351, 6435, 7200, 7310, 7445, 10210, 10291, 11315, 12106, 13923]}, "edge": {"target": [], "time": []}}, "mouseout": {"state": {"target": ["9", "0", "9", "11", "2", "3", "7", "7", "6", "8", "5", "1", "4", "9", "10", "12", "0", "1", "5", "1", "2", "6", "8"], "time": [1204, 1971, 2037, 2689, 2821, 4201, 4352, 5324, 5425, 6249, 6318, 6385, 7093, 7226, 7343, 8217, 10225, 11019, 11972, 12072, 13184, 18868, 18969]}, "edge": {"target": [], "time": []}}}, "displayed_time": "22.76", "trialTime": 23651, "trial_type": "mouselab-mdp", "trial_index": 24, "time_elapsed": 714341, "internal_node_id": "0.0-4.0-1.0-15.0"}}, {"uniqueid": "w80375362:a65878574", "current_trial": 25, "dateTime": 1664556007762, "trialdata": {"revealed_states": [], "num_clicks_accrued": [0, 0, 0, 0, 0, 0, 0, 0, 0, 0, 0, 0, 0], "stateRewards": ["", 2, -4, 48, -24, 4, -8, -24, 48, -2, -4, 24, -48], "withholdReward": true, "trial_id": "mdp_357328205509", "block": "test1", "trialIndex": 18, "score": 49.75, "costs": -1.25, "simulationMode": [null, null, null], "rewards": [2, -4, 48], "path": ["0", "0", "1", "2", "3"], "rt": [8368, 87, 2], "actions": ["up", "up", "right"], "actionTimes": [9517, 10108, 10622], "queries": {"click": {"state": {"target": ["11", "4", "7", "12", "3"], "time": [3949, 4940, 6088, 7265, 8333]}, "edge": {"target": [], "time": []}}, "mouseover": {"state": {"target": ["11", "11", "4", "1", "7", "6", "8", "12", "9", "2", "3"], "time": [3381, 3671, 4676, 5271, 5822, 6377, 6429, 7030, 7686, 7820, 8036]}, "edge": {"target": [], "time": []}}, "mouseout": {"state": {"target": ["0", "11", "11", "4", "1", "7", "6", "8", "12", "9", "2", "3"], "time": [784, 3481, 4362, 5223, 5288, 6355, 6412, 6529, 7655, 7720, 7919, 8609]}, "edge": {"target": [], "time": []}}}, "displayed_time": "11.14", "trialTime": 12378, "trial_type": "mouselab-mdp", "trial_index": 25, "time_elapsed": 726763, "internal_node_id": "0.0-4.0-1.0-16.0"}}, {"uniqueid": "w80375362:a65878574", "current_trial": 26, "dateTime": 1664556019691, "trialdata": {"revealed_states": [], "num_clicks_accrued": [0, 0, 0, 0, 0, 0, 0, 0, 0, 0, 0, 0, 0], "stateRewards": ["", 2, 8, 24, -48, 4, 8, 24, 24, 4, -8, 48, 48], "withholdReward": true, "trial_id": "mdp_646103824875", "block": "test1", "trialIndex": 19, "score": 48.5, "costs": -0.5, "simulationMode": [null, null, null], "rewards": [4, -8, 48], "path": ["0", "0", "9", "10", "12"], "rt": [3146, 218, 205], "actions": ["left", "left", "down"], "actionTimes": [4427, 5162, 5867], "queries": {"click": {"state": {"target": ["4", "12"], "time": [2221, 3093]}, "edge": {"target": [], "time": []}}, "mouseover": {"state": {"target": ["4", "11", "10", "12"], "time": [1992, 2624, 2657, 2724]}, "edge": {"target": [], "time": []}}, "mouseout": {"state": {"target": ["0", "4", "11", "10", "12"], "time": [893, 2541, 2641, 2707, 3577]}, "edge": {"target": [], "time": []}}}, "displayed_time": "10.29", "trialTime": 11890, "trial_type": "mouselab-mdp", "trial_index": 26, "time_elapsed": 738692, "internal_node_id": "0.0-4.0-1.0-17.0"}}, {"uniqueid": "w80375362:a65878574", "current_trial": 27, "dateTime": 1664556037438, "trialdata": {"revealed_states": [], "num_clicks_accrued": [0, 0, 0, 0, 0, 0, 0, 0, 0, 0, 0, 0, 0], "stateRewards": ["", 4, 4, 24, -48, 2, -8, -24, -48, 4, 8, 48, 48], "withholdReward": true, "trial_id": "mdp_592471239511", "block": "test1", "trialIndex": 20, "score": 64.75, "costs": -0.25, "simulationMode": [null, null, null], "rewards": [4, 8, 48], "path": ["0", "0", "9", "10", "11"], "rt": [2235, 125, 56], "actions": ["left", "left", "up"], "actionTimes": [4009, 4632, 5196], "queries": {"click": {"state": {"target": ["11"], "time": [2880]}, "edge": {"target": [], "time": []}}, "mouseover": {"state": {"target": ["9", "11", "9"], "time": [2443, 2644, 3418]}, "edge": {"target": [], "time": []}}, "mouseout": {"state": {"target": ["0", "1", "0", "9", "11", "9"], "time": [1059, 1405, 2427, 2459, 3270, 3451]}, "edge": {"target": [], "time": []}}}, "displayed_time": "9.78", "trialTime": 17705, "trial_type": "mouselab-mdp", "trial_index": 27, "time_elapsed": 756439, "internal_node_id": "0.0-4.0-1.0-18.0"}}, {"uniqueid": "w80375362:a65878574", "current_trial": 28, "dateTime": 1664556051040, "trialdata": {"revealed_states": [], "num_clicks_accrued": [0, 0, 0, 0, 0, 0, 0, 0, 0, 0, 0, 0, 0], "stateRewards": ["", -2, 8, -48, 48, 4, -8, -48, 48, 4, -4, -24, 48], "withholdReward": true, "trial_id": "mdp_144739116828", "block": "test1", "trialIndex": 21, "score": 58, "costs": -1, "simulationMode": [null, null, null], "rewards": [-2, 8, 48], "path": ["0", "0", "1", "2", "4"], "rt": [4604, 20, 768], "actions": ["up", "up", "left"], "actionTimes": [9475, 10013, 11296], "queries": {"click": {"state": {"target": ["11", "7", "3", "4"], "time": [5997, 6846, 7562, 8242]}, "edge": {"target": [], "time": []}}, "mouseover": {"state": {"target": ["11", "7", "3", "2", "4", "9"], "time": [5743, 6502, 7260, 7894, 7960, 8561]}, "edge": {"target": [], "time": []}}, "mouseout": {"state": {"target": ["0", "11", "7", "3", "2", "4", "9"], "time": [4310, 6337, 7211, 7860, 7927, 8490, 8643]}, "edge": {"target": [], "time": []}}}, "displayed_time": "12.88", "trialTime": 13563, "trial_type": "mouselab-mdp", "trial_index": 28, "time_elapsed": 770041, "internal_node_id": "0.0-4.0-1.0-19.0"}}, {"uniqueid": "w80375362:a65878574", "current_trial": 29, "dateTime": 1664556065517, "trialdata": {"revealed_states": [], "num_clicks_accrued": [0, 0, 0, 0, 0, 0, 0, 0, 0, 0, 0, 0, 0], "stateRewards": ["", 2, 4, 48, -48, 2, 4, 24, -24, 2, -4, -24, -48], "withholdReward": false, "trial_id": "mdp_706591889062", "block": "test1", "trialIndex": 22, "score": 58.25, "costs": -0.75, "simulationMode": [null, null, null], "rewards": [2, 4, 48], "path": ["0", "0", "1", "2", "3"], "rt": [3943, 146, 111], "actions": ["up", "up", "right"], "actionTimes": [7522, 8186, 8832], "queries": {"click": {"state": {"target": ["7", "8", "3"], "time": [4444, 5279, 6235]}, "edge": {"target": [], "time": []}}, "mouseover": {"state": {"target": ["7", "6", "8", "3", "2", "3", "2", "1"], "time": [4093, 4824, 4957, 5666, 5766, 5999, 6656, 6874]}, "edge": {"target": [], "time": []}}, "mouseout": {"state": {"target": ["0", "7", "6", "8", "3", "2", "3", "2", "1"], "time": [3975, 4790, 4908, 5566, 5683, 5910, 6576, 6772, 6922]}, "edge": {"target": [], "time": []}}}, "displayed_time": "12.59", "trialTime": 14433, "trial_type": "mouselab-mdp", "trial_index": 29, "time_elapsed": 784518, "internal_node_id": "0.0-4.0-1.0-20.0"}}, {"uniqueid": "w80375362:a65878574", "current_trial": 30, "dateTime": 1664556076966, "trialdata": {"revealed_states": [], "num_clicks_accrued": [0, 0, 0, 0, 0, 0, 0, 0, 0, 0, 0, 0, 0], "stateRewards": ["", -4, -4, -48, 48, -4, -8, -24, -48, -2, 8, 48, 24], "withholdReward": true, "trial_id": "mdp_365393526663", "block": "test1", "trialIndex": 23, "score": 58.75, "costs": -0.25, "simulationMode": [null, null, null], "rewards": [-2, 8, 48], "path": ["0", "0", "9", "10", "11"], "rt": [2886, 99, 70], "actions": ["left", "left", "up"], "actionTimes": [5741, 6340, 6927], "queries": {"click": {"state": {"target": ["11"], "time": [3834]}, "edge": {"target": [], "time": []}}, "mouseover": {"state": {"target": ["11", "10", "12"], "time": [3549, 4217, 4316]}, "edge": {"target": [], "time": []}}, "mouseout": {"state": {"target": ["11", "10", "12"], "time": [4216, 4265, 8575]}, "edge": {"target": [], "time": []}}}, "displayed_time": "10.86", "trialTime": 11409, "trial_type": "mouselab-mdp", "trial_index": 30, "time_elapsed": 795967, "internal_node_id": "0.0-4.0-1.0-21.0"}}, {"uniqueid": "w80375362:a65878574", "current_trial": 31, "dateTime": 1664556089467, "trialdata": {"revealed_states": [], "num_clicks_accrued": [0, 0, 0, 0, 0, 0, 0, 0, 0, 0, 0, 0, 0], "stateRewards": ["", 2, 8, 24, 24, 2, -8, -24, -48, 2, 8, -48, 48], "withholdReward": true, "trial_id": "mdp_745175888812", "block": "test1", "trialIndex": 24, "score": 61.5, "costs": -1.5, "simulationMode": [null, null, null], "rewards": [2, 8, 48], "path": ["0", "0", "9", "10", "12"], "rt": [8458, 89, 148], "actions": ["left", "left", "down"], "actionTimes": [9587, 10190, 10850], "queries": {"click": {"state": {"target": ["11", "4", "7", "3", "8", "12"], "time": [2301, 3703, 5609, 6517, 7387, 8394]}, "edge": {"target": [], "time": []}}, "mouseover": {"state": {"target": ["11", "4", "7", "7", "3", "6", "8", "12"], "time": [2057, 3515, 4398, 5277, 6219, 6920, 6988, 8125]}, "edge": {"target": [], "time": []}}, "mouseout": {"state": {"target": ["0", "11", "4", "7", "7", "3", "6", "8", "12"], "time": [813, 2724, 3970, 4515, 5979, 6787, 6939, 7741, 8800]}, "edge": {"target": [], "time": []}}}, "displayed_time": "11.36", "trialTime": 12461, "trial_type": "mouselab-mdp", "trial_index": 31, "time_elapsed": 808467, "internal_node_id": "0.0-4.0-1.0-22.0"}}, {"uniqueid": "w80375362:a65878574", "current_trial": 32, "dateTime": 1664556102170, "trialdata": {"revealed_states": [], "num_clicks_accrued": [0, 0, 0, 0, 0, 0, 0, 0, 0, 0, 0, 0, 0], "stateRewards": ["", -4, 8, -24, 24, -2, -8, 24, -24, 4, -4, -48, 48], "withholdReward": true, "trial_id": "mdp_297684722007", "block": "test1", "trialIndex": 25, "score": 51.5, "costs": -1.5, "simulationMode": [null, null, null], "rewards": [4, -4, 48], "path": ["0", "0", "9", "10", "12"], "rt": [7826, 407, 458], "actions": ["left", "left", "down"], "actionTimes": [9462, 10373, 11340], "queries": {"click": {"state": {"target": ["11", "3", "8", "7", "4", "12"], "time": [3624, 4704, 5682, 6695, 7729, 8551]}, "edge": {"target": [], "time": []}}, "mouseover": {"state": {"target": ["11", "11", "1", "3", "7", "6", "8", "6", "7", "4", "10", "12"], "time": [2530, 3321, 4143, 4410, 5133, 5249, 5349, 6124, 6308, 7445, 8139, 8190]}, "edge": {"target": [], "time": []}}, "mouseout": {"state": {"target": ["0", "11", "11", "1", "3", "7", "6", "8", "6", "7", "4", "10"], "time": [1248, 2580, 4059, 4194, 5083, 5199, 5297, 6086, 6241, 7198, 8089, 8155]}, "edge": {"target": [], "time": []}}}, "displayed_time": "11.85", "trialTime": 12654, "trial_type": "mouselab-mdp", "trial_index": 32, "time_elapsed": 821170, "internal_node_id": "0.0-4.0-1.0-23.0"}}, {"uniqueid": "w80375362:a65878574", "current_trial": 33, "dateTime": 1664556114865, "trialdata": {"revealed_states": [], "num_clicks_accrued": [0, 0, 0, 0, 0, 0, 0, 0, 0, 0, 0, 0, 0], "stateRewards": ["", 2, 4, -48, -48, 4, 4, -48, -48, -2, -8, 48, -24], "withholdReward": true, "trial_id": "mdp_175327338412", "block": "test1", "trialIndex": 26, "score": 41.5, "costs": -1.5, "simulationMode": [null, null, null], "rewards": [-2, -8, 48], "path": ["0", "0", "9", "10", "11"], "rt": [6545, 88, 152], "actions": ["left", "left", "up"], "actionTimes": [8295, 8899, 9564], "queries": {"click": {"state": {"target": ["4", "3", "7", "8", "12", "11"], "time": [2839, 3576, 4392, 5128, 5958, 6992]}, "edge": {"target": [], "time": []}}, "mouseover": {"state": {"target": ["1", "4", "2", "3", "7", "7", "6", "8", "12", "10", "11", "11", "9"], "time": [2281, 2616, 3233, 3298, 3883, 4084, 4700, 4833, 5628, 6358, 6424, 6709, 7493]}, "edge": {"target": [], "time": []}}, "mouseout": {"state": {"target": ["12", "0", "1", "4", "2", "3", "7", "7", "6", "8", "12", "10", "11", "11", "9"], "time": [661, 2232, 2315, 3200, 3265, 3800, 3901, 4668, 4733, 5412, 6341, 6390, 6558, 7426, 7510]}, "edge": {"target": [], "time": []}}}, "displayed_time": "10.76", "trialTime": 12652, "trial_type": "mouselab-mdp", "trial_index": 33, "time_elapsed": 833866, "internal_node_id": "0.0-4.0-1.0-24.0"}}, {"uniqueid": "w80375362:a65878574", "current_trial": 34, "dateTime": 1664556126203, "trialdata": {"revealed_states": [], "num_clicks_accrued": [0, 0, 0, 0, 0, 0, 0, 0, 0, 0, 0, 0, 0], "stateRewards": ["", -2, 4, 24, 48, 2, 4, -48, -48, 2, 8, 48, -48], "withholdReward": false, "trial_id": "mdp_409609775558", "block": "test1", "trialIndex": 27, "score": 62.75, "costs": -0.25, "simulationMode": [null, null, null], "rewards": [2, 8, 48], "path": ["0", "0", "9", "10", "11"], "rt": [2130, 101, 70], "actions": ["left", "left", "up"], "actionTimes": [3790, 4410, 4995], "queries": {"click": {"state": {"target": ["11"], "time": [2492]}, "edge": {"target": [], "time": []}}, "mouseover": {"state": {"target": ["11", "0"], "time": [2206, 3083]}, "edge": {"target": [], "time": []}}, "mouseout": {"state": {"target": ["0", "11", "0"], "time": [2089, 2916, 3133]}, "edge": {"target": [], "time": []}}}, "displayed_time": "9.66", "trialTime": 11293, "trial_type": "mouselab-mdp", "trial_index": 34, "time_elapsed": 845204, "internal_node_id": "0.0-4.0-1.0-25.0"}}, {"uniqueid": "w80375362:a65878574", "current_trial": 35, "dateTime": 1664556136811, "trialdata": {"revealed_states": [], "num_clicks_accrued": [0, 0, 0, 0, 0, 0, 0, 0, 0, 0, 0, 0, 0], "stateRewards": ["", -4, 4, -24, 24, -2, -4, 48, 24, 2, 8, -48, 24], "withholdReward": true, "trial_id": "mdp_150340189492", "block": "test1", "trialIndex": 28, "score": 46, "costs": -1, "simulationMode": [null, null, null], "rewards": [-2, -4, 48], "path": ["0", "0", "5", "6", "7"], "rt": [5880, 80, 29], "actions": ["right", "right", "up"], "actionTimes": [7895, 8479, 9026], "queries": {"click": {"state": {"target": ["11", "12", "8", "7"], "time": [3588, 4681, 5631, 6501]}, "edge": {"target": [], "time": []}}, "mouseover": {"state": {"target": ["11", "10", "12", "12", "8", "6", "7", "3", "5"], "time": [3364, 4013, 4063, 4397, 5366, 6039, 6137, 6933, 7216]}, "edge": {"target": [], "time": []}}, "mouseout": {"state": {"target": ["0", "11", "10", "12", "12", "8", "6", "7", "3", "5"], "time": [1723, 3998, 4030, 4114, 4949, 5989, 6089, 6822, 7049, 7233]}, "edge": {"target": [], "time": []}}}, "displayed_time": "10.02", "trialTime": 10566, "trial_type": "mouselab-mdp", "trial_index": 35, "time_elapsed": 855812, "internal_node_id": "0.0-4.0-1.0-26.0"}}, {"uniqueid": "w80375362:a65878574", "current_trial": 36, "dateTime": 1664556156399, "trialdata": {"revealed_states": [], "num_clicks_accrued": [0, 0, 0, 0, 0, 0, 0, 0, 0, 0, 0, 0, 0], "stateRewards": ["", 2, -8, 24, 24, 4, -4, -24, -48, 4, 8, 24, 24], "withholdReward": false, "trial_id": "mdp_249803813713", "block": "test1", "trialIndex": 29, "score": 38.5, "costs": -2.5, "simulationMode": [null, null, null], "rewards": [4, 8, 24], "path": ["0", "0", "9", "10", "11"], "rt": [14991, 141, 198], "actions": ["left", "left", "up"], "actionTimes": [17011, 17646, 18345], "queries": {"click": {"state": {"target": ["3", "7", "8", "4", "11", "12", "2", "10", "9", "1"], "time": [3202, 3995, 4681, 5830, 6588, 7403, 9790, 10677, 11412, 12080]}, "edge": {"target": [], "time": []}}, "mouseover": {"state": {"target": ["3", "7", "6", "8", "5", "1", "4", "4", "11", "10", "12", "10", "9", "2", "10", "9", "1"], "time": [2835, 3709, 4317, 4384, 5067, 5100, 5167, 5554, 6153, 6964, 7048, 8806, 9223, 9457, 10415, 11130, 11701]}, "edge": {"target": [], "time": []}}, "mouseout": {"state": {"target": ["0", "3", "7", "6", "8", "5", "1", "4", "4", "11", "10", "12", "10", "9", "2", "10", "9", "1", "9"], "time": [2602, 3642, 4300, 4350, 5034, 5083, 5117, 5250, 6094, 6948, 6996, 8523, 9139, 9239, 10060, 11048, 11649, 12436, 12537]}, "edge": {"target": [], "time": []}}}, "displayed_time": "18.86", "trialTime": 19543, "trial_type": "mouselab-mdp", "trial_index": 36, "time_elapsed": 875400, "internal_node_id": "0.0-4.0-1.0-27.0"}}, {"uniqueid": "w80375362:a65878574", "current_trial": 37, "dateTime": 1664556166527, "trialdata": {"revealed_states": [], "num_clicks_accrued": [0, 0, 0, 0, 0, 0, 0, 0, 0, 0, 0, 0, 0], "stateRewards": ["", 4, -4, 24, 48, 4, 8, -24, -24, -2, 4, 48, 48], "withholdReward": false, "trial_id": "mdp_624998450453", "block": "test1", "trialIndex": 30, "score": 54.75, "costs": -0.25, "simulationMode": [null, null, null], "rewards": [-2, 4, 48], "path": ["0", "0", "9", "10", "11"], "rt": [1825, 122, 107], "actions": ["left", "left", "up"], "actionTimes": [3116, 3741, 4350], "queries": {"click": {"state": {"target": ["11"], "time": [2066]}, "edge": {"target": [], "time": []}}, "mouseover": {"state": {"target": ["9", "11", "9"], "time": [1687, 1832, 2560]}, "edge": {"target": [], "time": []}}, "mouseout": {"state": {"target": ["12", "9", "9", "11", "9"], "time": [782, 865, 1697, 2493, 2593]}, "edge": {"target": [], "time": []}}}, "displayed_time": "9.29", "trialTime": 10078, "trial_type": "mouselab-mdp", "trial_index": 37, "time_elapsed": 885528, "internal_node_id": "0.0-4.0-1.0-28.0"}}, {"uniqueid": "w80375362:a65878574", "current_trial": 38, "dateTime": 1664556176329, "trialdata": {"revealed_states": [], "num_clicks_accrued": [0, 0, 0, 0, 0, 0, 0, 0, 0, 0, 0, 0, 0], "stateRewards": ["", 4, -8, -48, 48, -2, 8, -48, 48, -2, -4, 24, -48], "withholdReward": true, "trial_id": "mdp_400558136089", "block": "test1", "trialIndex": 31, "score": 48.5, "costs": -0.5, "simulationMode": [null, null, null], "rewards": [4, -8, 48], "path": ["0", "0", "1", "2", "4"], "rt": [3050, 79, 75], "actions": ["up", "up", "left"], "actionTimes": [4097, 4680, 5291], "queries": {"click": {"state": {"target": ["11", "4"], "time": [1999, 2898]}, "edge": {"target": [], "time": []}}, "mouseover": {"state": {"target": ["11", "10", "4", "2", "3", "5"], "time": [1754, 2392, 2576, 3193, 3343, 3510]}, "edge": {"target": [], "time": []}}, "mouseout": {"state": {"target": ["0", "11", "10", "4", "2", "3", "5"], "time": [1535, 2358, 2493, 3159, 3243, 3427, 3543]}, "edge": {"target": [], "time": []}}}, "displayed_time": "9.05", "trialTime": 9757, "trial_type": "mouselab-mdp", "trial_index": 38, "time_elapsed": 895329, "internal_node_id": "0.0-4.0-1.0-29.0"}}, {"uniqueid": "w80375362:a65878574", "current_trial": 39, "dateTime": 1664556189310, "trialdata": {"rt": 12980, "stimulus": "<h1> End of block! </h1>\n\nYou have reached the end of the block 1/4. If you need a short break, feel free to take one now before moving on.\n\n<br><br>\nIn the next block, you will complete another 30 rounds of this game.\n\n<br><br>\n<div style='text-align: center;'>Press <code>space</code> to begin.</div>\n<br><br>\n<div style='text-align: center;'>(If the experiment doesn't continue, try clicking on the text and then pressing <code>space</code>.)</div>", "response": " ", "trial_id": "mdp_ready_2", "trial_type": "html-keyboard-response", "trial_index": 39, "time_elapsed": 908311, "internal_node_id": "0.0-4.0-2.0"}}, {"uniqueid": "w80375362:a65878574", "current_trial": 40, "dateTime": 1664556202441, "trialdata": {"revealed_states": [], "num_clicks_accrued": [0, 0, 0, 0, 0, 0, 0, 0, 0, 0, 0, 0, 0], "stateRewards": ["", 2, 4, -24, -24, 4, 8, -48, 48, 2, 4, -24, -48], "withholdReward": true, "trial_id": "mdp_565165082781", "block": "test2", "trialIndex": 32, "score": 64, "costs": -1, "simulationMode": [null, null, null], "rewards": [4, 8, 48], "path": ["0", "0", "5", "6", "8"], "rt": [7306, 105, 85], "actions": ["right", "right", "down"], "actionTimes": [10268, 10864, 11444], "queries": {"click": {"state": {"target": ["11", "4", "7", "8"], "time": [3970, 5379, 6996, 7783]}, "edge": {"target": [], "time": []}}, "mouseover": {"state": {"target": ["11", "4", "7", "7", "6", "8"], "time": [3722, 5095, 6211, 6645, 7327, 7409]}, "edge": {"target": [], "time": []}}, "mouseout": {"state": {"target": ["11", "4", "7", "7", "6", "8"], "time": [4948, 5711, 6244, 7302, 7376, 8257]}, "edge": {"target": [], "time": []}}}, "displayed_time": "11.96", "trialTime": 13089, "trial_type": "mouselab-mdp", "trial_index": 40, "time_elapsed": 921442, "internal_node_id": "0.0-4.0-3.0-0.0"}}, {"uniqueid": "w80375362:a65878574", "current_trial": 41, "dateTime": 1664556213015, "trialdata": {"revealed_states": [], "num_clicks_accrued": [0, 0, 0, 0, 0, 0, 0, 0, 0, 0, 0, 0, 0], "stateRewards": ["", -2, -8, -24, -48, 4, -8, 48, 24, 2, 4, -48, -48], "withholdReward": true, "trial_id": "mdp_898082967464", "block": "test2", "trialIndex": 33, "score": 48, "costs": -1, "simulationMode": [null, null, null], "rewards": [4, -8, 48], "path": ["0", "0", "5", "6", "7"], "rt": [4531, 154, 48], "actions": ["right", "right", "up"], "actionTimes": [5533, 6187, 6738], "queries": {"click": {"state": {"target": ["11", "4", "3", "7"], "time": [1926, 2706, 3768, 4327]}, "edge": {"target": [], "time": []}}, "mouseover": {"state": {"target": ["11", "4", "2", "3", "7", "6", "8"], "time": [1652, 2424, 3010, 3178, 4074, 4616, 4750]}, "edge": {"target": [], "time": []}}, "mouseout": {"state": {"target": ["0", "11", "4", "2", "3", "7", "6", "8"], "time": [679, 2351, 2997, 3062, 4025, 4595, 4666, 4883]}, "edge": {"target": [], "time": []}}}, "displayed_time": "10.01", "trialTime": 10527, "trial_type": "mouselab-mdp", "trial_index": 41, "time_elapsed": 932016, "internal_node_id": "0.0-4.0-3.0-1.0"}}, {"uniqueid": "w80375362:a65878574", "current_trial": 42, "dateTime": 1664556226874, "trialdata": {"revealed_states": [], "num_clicks_accrued": [0, 0, 0, 0, 0, 0, 0, 0, 0, 0, 0, 0, 0], "stateRewards": ["", 2, -4, -48, 24, 4, 4, 48, -48, -2, -4, -24, -48], "withholdReward": true, "trial_id": "mdp_858916930936", "block": "test2", "trialIndex": 34, "score": 59.5, "costs": -1.5, "simulationMode": [null, null, null], "rewards": [4, 4, 48], "path": ["0", "0", "5", "6", "7"], "rt": [8516, 117, 68], "actions": ["right", "right", "up"], "actionTimes": [11405, 12019, 12587], "queries": {"click": {"state": {"target": ["12", "11", "4", "7", "5", "6"], "time": [4099, 5472, 6648, 8150, 9276, 9946]}, "edge": {"target": [], "time": []}}, "mouseover": {"state": {"target": ["9", "10", "12", "10", "11", "11", "4", "4", "2", "3", "7", "5", "6"], "time": [3445, 3492, 3764, 4609, 4710, 4975, 6218, 6400, 7200, 7450, 7907, 8842, 9657]}, "edge": {"target": [], "time": []}}, "mouseout": {"state": {"target": ["0", "9", "10", "12", "10", "11", "11", "4", "4", "2", "3", "7", "5", "6"], "time": [3438, 3475, 3508, 4576, 4676, 4825, 5934, 6234, 7087, 7250, 7500, 8558, 9626, 10425]}, "edge": {"target": [], "time": []}}}, "displayed_time": "13.10", "trialTime": 13815, "trial_type": "mouselab-mdp", "trial_index": 42, "time_elapsed": 945875, "internal_node_id": "0.0-4.0-3.0-2.0"}}, {"uniqueid": "w80375362:a65878574", "current_trial": 43, "dateTime": 1664556238070, "trialdata": {"revealed_states": [], "num_clicks_accrued": [0, 0, 0, 0, 0, 0, 0, 0, 0, 0, 0, 0, 0], "stateRewards": ["", -2, 8, 48, -24, 2, 4, -48, -24, -4, 8, -48, -48], "withholdReward": true, "trial_id": "mdp_539167561933", "block": "test2", "trialIndex": 35, "score": 57.75, "costs": -1.25, "simulationMode": [null, null, null], "rewards": [-2, 8, 48], "path": ["0", "0", "1", "2", "3"], "rt": [6553, 141, 998], "actions": ["up", "up", "right"], "actionTimes": [7741, 8389, 9887], "queries": {"click": {"state": {"target": ["11", "12", "8", "7", "3"], "time": [2134, 2885, 4732, 5548, 6257]}, "edge": {"target": [], "time": []}}, "mouseover": {"state": {"target": ["11", "10", "12", "8", "8", "6", "7", "3", "2", "1"], "time": [1839, 2387, 2489, 3489, 4436, 5136, 5236, 5961, 6589, 6999]}, "edge": {"target": [], "time": []}}, "mouseout": {"state": {"target": ["0", "11", "10", "12", "8", "8", "6", "7", "3", "2", "1"], "time": [854, 2373, 2455, 3124, 3590, 5120, 5171, 5891, 6554, 6639, 7015]}, "edge": {"target": [], "time": []}}}, "displayed_time": "10.40", "trialTime": 11146, "trial_type": "mouselab-mdp", "trial_index": 43, "time_elapsed": 957071, "internal_node_id": "0.0-4.0-3.0-3.0"}}, {"uniqueid": "w80375362:a65878574", "current_trial": 44, "dateTime": 1664556248095, "trialdata": {"revealed_states": [], "num_clicks_accrued": [0, 0, 0, 0, 0, 0, 0, 0, 0, 0, 0, 0, 0], "stateRewards": ["", -4, 8, -24, -24, 4, -8, 48, -24, -4, -8, -24, -48], "withholdReward": true, "trial_id": "mdp_391766721791", "block": "test2", "trialIndex": 36, "score": 48.5, "costs": -0.5, "simulationMode": [null, null, null], "rewards": [4, -8, 48], "path": ["0", "0", "5", "6", "7"], "rt": [3036, 71, 123], "actions": ["right", "right", "up"], "actionTimes": [4592, 5150, 5787], "queries": {"click": {"state": {"target": ["3", "7"], "time": [2639, 3334]}, "edge": {"target": [], "time": []}}, "mouseover": {"state": {"target": ["1", "3", "7", "6", "6"], "time": [2020, 2339, 3029, 3630, 3913]}, "edge": {"target": [], "time": []}}, "mouseout": {"state": {"target": ["0", "1", "3", "7", "6", "6", "5"], "time": [964, 2055, 2947, 3596, 3730, 3963, 7428]}, "edge": {"target": [], "time": []}}}, "displayed_time": "9.56", "trialTime": 9981, "trial_type": "mouselab-mdp", "trial_index": 44, "time_elapsed": 967096, "internal_node_id": "0.0-4.0-3.0-4.0"}}, {"uniqueid": "w80375362:a65878574", "current_trial": 45, "dateTime": 1664556259911, "trialdata": {"revealed_states": [], "num_clicks_accrued": [0, 0, 0, 0, 0, 0, 0, 0, 0, 0, 0, 0, 0], "stateRewards": ["", 2, 8, 48, -48, -2, -4, -24, 24, 4, -4, 48, -48], "withholdReward": true, "trial_id": "mdp_105734044587", "block": "test2", "trialIndex": 37, "score": 62.25, "costs": -0.75, "simulationMode": [null, null, null], "rewards": [2, 8, 48], "path": ["0", "0", "1", "2", "3"], "rt": [4099, 67, 268], "actions": ["up", "up", "right"], "actionTimes": [7460, 8043, 8811], "queries": {"click": {"state": {"target": ["7", "8", "3"], "time": [4395, 5259, 6344]}, "edge": {"target": [], "time": []}}, "mouseover": {"state": {"target": ["7", "6", "8", "6", "3", "3", "2", "1"], "time": [4129, 4784, 4969, 5619, 5735, 6054, 6724, 6889]}, "edge": {"target": [], "time": []}}, "mouseout": {"state": {"target": ["0", "7", "6", "8", "6", "3", "3", "2", "1", "0"], "time": [3796, 4769, 4850, 5586, 5653, 5835, 6641, 6858, 9868, 9918]}, "edge": {"target": [], "time": []}}}, "displayed_time": "11.36", "trialTime": 11772, "trial_type": "mouselab-mdp", "trial_index": 45, "time_elapsed": 978911, "internal_node_id": "0.0-4.0-3.0-5.0"}}, {"uniqueid": "w80375362:a65878574", "current_trial": 46, "dateTime": 1664556270938, "trialdata": {"revealed_states": [], "num_clicks_accrued": [0, 0, 0, 0, 0, 0, 0, 0, 0, 0, 0, 0, 0], "stateRewards": ["", -2, 8, 48, 24, 2, -4, 48, -48, 2, 8, 24, -24], "withholdReward": false, "trial_id": "mdp_176207245985", "block": "test2", "trialIndex": 38, "score": 49.75, "costs": -1.25, "simulationMode": [null, null, null], "rewards": [2, -4, 48], "path": ["0", "0", "5", "6", "7"], "rt": [6264, 209, 143], "actions": ["right", "right", "up"], "actionTimes": [7357, 8073, 8720], "queries": {"click": {"state": {"target": ["4", "11", "12", "8", "7"], "time": [2147, 2970, 3876, 4953, 6116]}, "edge": {"target": [], "time": []}}, "mouseover": {"state": {"target": ["1", "4", "11", "10", "12", "8", "6", "7"], "time": [1615, 1809, 2625, 3320, 3552, 4618, 5467, 5715]}, "edge": {"target": [], "time": []}}, "mouseout": {"state": {"target": ["0", "1", "4", "11", "10", "12", "8", "6", "7"], "time": [751, 1710, 2559, 3268, 3402, 4143, 5433, 5567, 6449]}, "edge": {"target": [], "time": []}}}, "displayed_time": "10.10", "trialTime": 10980, "trial_type": "mouselab-mdp", "trial_index": 46, "time_elapsed": 989939, "internal_node_id": "0.0-4.0-3.0-6.0"}}, {"uniqueid": "w80375362:a65878574", "current_trial": 47, "dateTime": 1664556284068, "trialdata": {"revealed_states": [], "num_clicks_accrued": [0, 0, 0, 0, 0, 0, 0, 0, 0, 0, 0, 0, 0], "stateRewards": ["", -2, -8, -24, -24, 4, -4, -48, 48, 2, 8, 48, -48], "withholdReward": true, "trial_id": "mdp_498095124548", "block": "test2", "trialIndex": 39, "score": 61.75, "costs": -1.25, "simulationMode": [null, null, null], "rewards": [2, 8, 48], "path": ["0", "0", "9", "10", "11"], "rt": [6646, 74, 121], "actions": ["left", "left", "up"], "actionTimes": [10080, 10666, 11287], "queries": {"click": {"state": {"target": ["7", "3", "4", "12", "11"], "time": [4914, 6111, 6989, 8025, 8811]}, "edge": {"target": [], "time": []}}, "mouseover": {"state": {"target": ["7", "3", "3", "2", "4", "11", "10", "12", "10", "11", "0"], "time": [4558, 5451, 5817, 6509, 6676, 7352, 7417, 7549, 8392, 8440, 9140]}, "edge": {"target": [], "time": []}}, "mouseout": {"state": {"target": ["0", "7", "3", "3", "2", "4", "11", "10", "12", "10", "11", "0"], "time": [1218, 5400, 5516, 6493, 6609, 7283, 7365, 7499, 8361, 8407, 9020, 9191]}, "edge": {"target": [], "time": []}}}, "displayed_time": "12.44", "trialTime": 13085, "trial_type": "mouselab-mdp", "trial_index": 47, "time_elapsed": 1003069, "internal_node_id": "0.0-4.0-3.0-7.0"}}, {"uniqueid": "w80375362:a65878574", "current_trial": 48, "dateTime": 1664556293655, "trialdata": {"revealed_states": [], "num_clicks_accrued": [0, 0, 0, 0, 0, 0, 0, 0, 0, 0, 0, 0, 0], "stateRewards": ["", -2, 8, -24, 24, 2, -8, 48, -24, 2, 8, -24, -24], "withholdReward": true, "trial_id": "mdp_674708270444", "block": "test2", "trialIndex": 40, "score": 46.5, "costs": -0.5, "simulationMode": [null, null, null], "rewards": [2, -8, 48], "path": ["0", "0", "5", "6", "7"], "rt": [3261, 910, 34], "actions": ["right", "right", "up"], "actionTimes": [4488, 5899, 6435], "queries": {"click": {"state": {"target": ["8", "7"], "time": [2318, 3253]}, "edge": {"target": [], "time": []}}, "mouseover": {"state": {"target": ["8", "8", "6", "7", "3", "1"], "time": [1770, 2005, 2631, 2698, 3749, 3882]}, "edge": {"target": [], "time": []}}, "mouseout": {"state": {"target": ["0", "8", "8", "6", "7", "3", "1"], "time": [1688, 1805, 2610, 2665, 3581, 3813, 3948]}, "edge": {"target": [], "time": []}}}, "displayed_time": "9.23", "trialTime": 9539, "trial_type": "mouselab-mdp", "trial_index": 48, "time_elapsed": 1012655, "internal_node_id": "0.0-4.0-3.0-8.0"}}, {"uniqueid": "w80375362:a65878574", "current_trial": 49, "dateTime": 1664556305605, "trialdata": {"revealed_states": [], "num_clicks_accrued": [0, 0, 0, 0, 0, 0, 0, 0, 0, 0, 0, 0, 0], "stateRewards": ["", -2, 4, -24, 48, 4, -8, 48, -48, 2, -8, 48, 24], "withholdReward": true, "trial_id": "mdp_501111216502", "block": "test2", "trialIndex": 41, "score": 48.5, "costs": -0.5, "simulationMode": [null, null, null], "rewards": [4, -8, 48], "path": ["0", "0", "5", "6", "7"], "rt": [3428, 83, 116], "actions": ["right", "right", "up"], "actionTimes": [6236, 6826, 7458], "queries": {"click": {"state": {"target": ["8", "7"], "time": [4236, 5106]}, "edge": {"target": [], "time": []}}, "mouseover": {"state": {"target": ["8", "6", "7"], "time": [3759, 4644, 4827]}, "edge": {"target": [], "time": []}}, "mouseout": {"state": {"target": ["0", "0", "8", "6", "7", "0"], "time": [754, 3358, 4611, 4710, 5575, 10882]}, "edge": {"target": [], "time": []}}}, "displayed_time": "10.81", "trialTime": 11893, "trial_type": "mouselab-mdp", "trial_index": 49, "time_elapsed": 1024606, "internal_node_id": "0.0-4.0-3.0-9.0"}}, {"uniqueid": "w80375362:a65878574", "current_trial": 50, "dateTime": 1664556318713, "trialdata": {"revealed_states": [], "num_clicks_accrued": [0, 0, 0, 0, 0, 0, 0, 0, 0, 0, 0, 0, 0], "stateRewards": ["", 4, 8, 48, -48, -4, 8, -24, -24, -4, 8, 48, 48], "withholdReward": false, "trial_id": "mdp_377640328420", "block": "test2", "trialIndex": 42, "score": 64.25, "costs": -0.75, "simulationMode": [null, null, null], "rewards": [4, 8, 48], "path": ["0", "0", "1", "2", "3"], "rt": [4484, 22, 3], "actions": ["up", "up", "right"], "actionTimes": [5490, 6019, 6549], "queries": {"click": {"state": {"target": ["8", "7", "3"], "time": [2305, 3444, 4323]}, "edge": {"target": [], "time": []}}, "mouseover": {"state": {"target": ["5", "8", "7", "3", "2"], "time": [1682, 1981, 3031, 4007, 4691]}, "edge": {"target": [], "time": []}}, "mouseout": {"state": {"target": ["0", "5", "8", "7", "3", "2"], "time": [745, 1697, 2814, 3873, 4641, 4808]}, "edge": {"target": [], "time": []}}}, "displayed_time": "9.02", "trialTime": 13058, "trial_type": "mouselab-mdp", "trial_index": 50, "time_elapsed": 1037713, "internal_node_id": "0.0-4.0-3.0-10.0"}}, {"uniqueid": "w80375362:a65878574", "current_trial": 51, "dateTime": 1664556330201, "trialdata": {"revealed_states": [], "num_clicks_accrued": [0, 0, 0, 0, 0, 0, 0, 0, 0, 0, 0, 0, 0], "stateRewards": ["", 2, 4, -24, -48, 4, -4, 24, 48, -4, -4, -24, 48], "withholdReward": true, "trial_id": "mdp_181958792175", "block": "test2", "trialIndex": 43, "score": 52.25, "costs": -0.75, "simulationMode": [null, null, null], "rewards": [4, -4, 48], "path": ["0", "0", "5", "6", "8"], "rt": [5669, 23, 31], "actions": ["right", "right", "down"], "actionTimes": [7464, 7987, 8509], "queries": {"click": {"state": {"target": ["11", "3", "8"], "time": [3881, 5553, 6453]}, "edge": {"target": [], "time": []}}, "mouseover": {"state": {"target": ["9", "11", "3", "7", "6", "8", "6"], "time": [3373, 3523, 5342, 5936, 5985, 6070, 6794]}, "edge": {"target": [], "time": []}}, "mouseout": {"state": {"target": ["0", "9", "11", "3", "7", "6", "8", "6"], "time": [3322, 3422, 4223, 5886, 5954, 6036, 6759, 6809]}, "edge": {"target": [], "time": []}}}, "displayed_time": "10.80", "trialTime": 11445, "trial_type": "mouselab-mdp", "trial_index": 51, "time_elapsed": 1049202, "internal_node_id": "0.0-4.0-3.0-11.0"}}, {"uniqueid": "w80375362:a65878574", "current_trial": 52, "dateTime": 1664556342763, "trialdata": {"revealed_states": [], "num_clicks_accrued": [0, 0, 0, 0, 0, 0, 0, 0, 0, 0, 0, 0, 0], "stateRewards": ["", 2, -8, -48, 24, 4, 8, 48, -48, 2, -4, 24, 24], "withholdReward": false, "trial_id": "mdp_130475327289", "block": "test2", "trialIndex": 44, "score": 63.5, "costs": -1.5, "simulationMode": [null, null, null], "rewards": [4, 8, 48], "path": ["0", "0", "5", "6", "7"], "rt": [8054, 548, 128], "actions": ["right", "right", "up"], "actionTimes": [9183, 10229, 10869], "queries": {"click": {"state": {"target": ["11", "4", "3", "12", "8", "7"], "time": [2551, 3572, 4875, 5909, 7120, 7957]}, "edge": {"target": [], "time": []}}, "mouseover": {"state": {"target": ["9", "10", "11", "4", "2", "3", "1", "9", "12", "8", "6", "7"], "time": [2001, 2051, 2235, 3277, 4059, 4668, 5258, 5308, 5542, 6801, 7500, 7567]}, "edge": {"target": [], "time": []}}, "mouseout": {"state": {"target": ["5", "9", "10", "11", "4", "2", "3", "1", "9", "12", "8", "6", "7"], "time": [719, 2035, 2152, 3209, 4009, 4209, 5221, 5274, 5340, 6204, 7484, 7534, 8439]}, "edge": {"target": [], "time": []}}}, "displayed_time": "11.37", "trialTime": 12515, "trial_type": "mouselab-mdp", "trial_index": 52, "time_elapsed": 1061764, "internal_node_id": "0.0-4.0-3.0-12.0"}}, {"uniqueid": "w80375362:a65878574", "current_trial": 53, "dateTime": 1664556353186, "trialdata": {"revealed_states": [], "num_clicks_accrued": [0, 0, 0, 0, 0, 0, 0, 0, 0, 0, 0, 0, 0], "stateRewards": ["", 4, 4, 48, -48, -2, -8, -48, -24, 2, 4, -24, -48], "withholdReward": true, "trial_id": "mdp_239929662917", "block": "test2", "trialIndex": 45, "score": 59.75, "costs": -1.25, "simulationMode": [null, null, null], "rewards": [4, 4, 48], "path": ["0", "0", "1", "2", "3"], "rt": [6196, 336, 33], "actions": ["up", "up", "right"], "actionTimes": [7544, 8381, 8926], "queries": {"click": {"state": {"target": ["11", "12", "8", "7", "3"], "time": [2467, 3968, 4803, 5556, 6313]}, "edge": {"target": [], "time": []}}, "mouseover": {"state": {"target": ["11", "10", "12", "12", "8", "6", "7", "3", "2", "1"], "time": [2190, 2836, 2919, 3623, 4541, 5165, 5267, 6058, 6667, 6885]}, "edge": {"target": [], "time": []}}, "mouseout": {"state": {"target": ["5", "11", "10", "12", "12", "8", "6", "7", "3", "2", "1"], "time": [835, 2808, 2869, 3019, 4222, 5149, 5215, 5908, 6601, 6801, 6900]}, "edge": {"target": [], "time": []}}}, "displayed_time": "9.43", "trialTime": 10376, "trial_type": "mouselab-mdp", "trial_index": 53, "time_elapsed": 1072186, "internal_node_id": "0.0-4.0-3.0-13.0"}}, {"uniqueid": "w80375362:a65878574", "current_trial": 54, "dateTime": 1664556364271, "trialdata": {"revealed_states": [], "num_clicks_accrued": [0, 0, 0, 0, 0, 0, 0, 0, 0, 0, 0, 0, 0], "stateRewards": ["", -2, -4, -48, -48, 4, -4, 48, 24, 4, 4, 48, 48], "withholdReward": false, "trial_id": "mdp_950960813932", "block": "test2", "trialIndex": 46, "score": 52.25, "costs": -0.75, "simulationMode": [null, null, null], "rewards": [4, -4, 48], "path": ["0", "0", "5", "6", "7"], "rt": [3407, 30, 52], "actions": ["right", "right", "up"], "actionTimes": [4391, 4932, 5520], "queries": {"click": {"state": {"target": ["4", "3", "7"], "time": [1942, 2692, 3395]}, "edge": {"target": [], "time": []}}, "mouseover": {"state": {"target": ["1", "4", "2", "3", "7", "6", "8"], "time": [1526, 1626, 2268, 2334, 3010, 3677, 3877]}, "edge": {"target": [], "time": []}}, "mouseout": {"state": {"target": ["0", "1", "4", "2", "3", "7", "6", "8"], "time": [744, 1559, 2251, 2301, 2978, 3644, 3828, 9858]}, "edge": {"target": [], "time": []}}}, "displayed_time": "9.99", "trialTime": 11038, "trial_type": "mouselab-mdp", "trial_index": 54, "time_elapsed": 1083272, "internal_node_id": "0.0-4.0-3.0-14.0"}}, {"uniqueid": "w80375362:a65878574", "current_trial": 55, "dateTime": 1664556375273, "trialdata": {"revealed_states": [], "num_clicks_accrued": [0, 0, 0, 0, 0, 0, 0, 0, 0, 0, 0, 0, 0], "stateRewards": ["", 2, -4, 24, 24, 2, 4, 24, 24, -4, 8, 24, 48], "withholdReward": true, "trial_id": "mdp_268430387178", "block": "test2", "trialIndex": 47, "score": 56.5, "costs": -0.5, "simulationMode": [null, null, null], "rewards": [-4, 8, 48], "path": ["0", "0", "9", "10", "12"], "rt": [3058, 95, 224], "actions": ["left", "left", "down"], "actionTimes": [4185, 4800, 5528], "queries": {"click": {"state": {"target": ["11", "12"], "time": [1973, 3129]}, "edge": {"target": [], "time": []}}, "mouseover": {"state": {"target": ["11", "10", "12"], "time": [1727, 2385, 2839]}, "edge": {"target": [], "time": []}}, "mouseout": {"state": {"target": ["0", "11", "10", "12"], "time": [726, 2355, 2436, 3471]}, "edge": {"target": [], "time": []}}}, "displayed_time": "9.14", "trialTime": 10953, "trial_type": "mouselab-mdp", "trial_index": 55, "time_elapsed": 1094274, "internal_node_id": "0.0-4.0-3.0-15.0"}}, {"uniqueid": "w80375362:a65878574", "current_trial": 56, "dateTime": 1664556386112, "trialdata": {"revealed_states": [], "num_clicks_accrued": [0, 0, 0, 0, 0, 0, 0, 0, 0, 0, 0, 0, 0], "stateRewards": ["", 4, -4, 24, 48, 4, 8, -24, -24, -2, 4, 48, 48], "withholdReward": true, "trial_id": "mdp_624998450453", "block": "test2", "trialIndex": 48, "score": 52, "costs": -1, "simulationMode": [null, null, null], "rewards": [4, -4, 48], "path": ["0", "0", "1", "2", "4"], "rt": [5183, 88, 52], "actions": ["up", "up", "left"], "actionTimes": [7273, 7869, 8433], "queries": {"click": {"state": {"target": ["7", "8", "3", "4"], "time": [3413, 4086, 5233, 6055]}, "edge": {"target": [], "time": []}}, "mouseover": {"state": {"target": ["7", "7", "6", "8", "3", "2", "4", "11"], "time": [2663, 3116, 3706, 3824, 4918, 5621, 5773, 6437]}, "edge": {"target": [], "time": []}}, "mouseout": {"state": {"target": ["0", "7", "7", "6", "8", "3", "2", "4", "11"], "time": [902, 2846, 3690, 3757, 4496, 5589, 5687, 6387, 6655]}, "edge": {"target": [], "time": []}}}, "displayed_time": "10.10", "trialTime": 10782, "trial_type": "mouselab-mdp", "trial_index": 56, "time_elapsed": 1105112, "internal_node_id": "0.0-4.0-3.0-16.0"}}, {"uniqueid": "w80375362:a65878574", "current_trial": 57, "dateTime": 1664556395655, "trialdata": {"revealed_states": [], "num_clicks_accrued": [0, 0, 0, 0, 0, 0, 0, 0, 0, 0, 0, 0, 0], "stateRewards": ["", 2, -4, 48, -48, 2, 4, -24, 24, -4, -8, 24, -48], "withholdReward": true, "trial_id": "mdp_238810765895", "block": "test2", "trialIndex": 49, "score": 50.5, "costs": -0.5, "simulationMode": [null, null, null], "rewards": [2, -4, 48], "path": ["0", "0", "1", "2", "3"], "rt": [3672, 238, 214], "actions": ["up", "up", "right"], "actionTimes": [4872, 5629, 6347], "queries": {"click": {"state": {"target": ["11", "3"], "time": [2234, 3501]}, "edge": {"target": [], "time": []}}, "mouseover": {"state": {"target": ["11", "4", "2", "3"], "time": [2016, 2774, 2907, 3241]}, "edge": {"target": [], "time": []}}, "mouseout": {"state": {"target": ["11", "4", "2", "3"], "time": [2732, 2857, 3024, 3900]}, "edge": {"target": [], "time": []}}}, "displayed_time": "9.20", "trialTime": 9494, "trial_type": "mouselab-mdp", "trial_index": 57, "time_elapsed": 1114655, "internal_node_id": "0.0-4.0-3.0-17.0"}}, {"uniqueid": "w80375362:a65878574", "current_trial": 58, "dateTime": 1664556410889, "trialdata": {"revealed_states": [], "num_clicks_accrued": [0, 0, 0, 0, 0, 0, 0, 0, 0, 0, 0, 0, 0], "stateRewards": ["", -2, -8, 48, -24, 2, -4, -48, -24, -2, -4, -48, 48], "withholdReward": true, "trial_id": "mdp_143798438087", "block": "test2", "trialIndex": 50, "score": 46.5, "costs": -0.5, "simulationMode": [null, null, null], "rewards": [-2, -4, 48], "path": ["0", "0", "9", "10", "12"], "rt": [3814, 4, 71], "actions": ["left", "left", "down"], "actionTimes": [9486, 9983, 10582], "queries": {"click": {"state": {"target": ["11", "12"], "time": [7498, 8300]}, "edge": {"target": [], "time": []}}, "mouseover": {"state": {"target": ["11", "10", "12"], "time": [7267, 7802, 7918]}, "edge": {"target": [], "time": []}}, "mouseout": {"state": {"target": ["0", "11", "10", "12"], "time": [6294, 7768, 7851, 8609]}, "edge": {"target": [], "time": []}}}, "displayed_time": "14.67", "trialTime": 15176, "trial_type": "mouselab-mdp", "trial_index": 58, "time_elapsed": 1129890, "internal_node_id": "0.0-4.0-3.0-18.0"}}, {"uniqueid": "w80375362:a65878574", "current_trial": 59, "dateTime": 1664556422827, "trialdata": {"revealed_states": [], "num_clicks_accrued": [0, 0, 0, 0, 0, 0, 0, 0, 0, 0, 0, 0, 0], "stateRewards": ["", 2, -4, 48, 24, 2, 8, 24, 24, -2, 4, 24, 24], "withholdReward": false, "trial_id": "mdp_813974524300", "block": "test2", "trialIndex": 51, "score": 50.25, "costs": -0.75, "simulationMode": [null, null, null], "rewards": [2, -4, 48], "path": ["0", "0", "1", "2", "3"], "rt": [3563, 102, 39], "actions": ["up", "up", "right"], "actionTimes": [4941, 5547, 6081], "queries": {"click": {"state": {"target": ["11", "4", "3"], "time": [2335, 3113, 3738]}, "edge": {"target": [], "time": []}}, "mouseover": {"state": {"target": ["9", "11", "4", "2", "3", "7"], "time": [1860, 2044, 2688, 3372, 3488, 4245]}, "edge": {"target": [], "time": []}}, "mouseout": {"state": {"target": ["0", "0", "9", "11", "4", "2", "3", "7"], "time": [992, 1833, 1894, 2622, 3356, 3422, 4095, 4428]}, "edge": {"target": [], "time": []}}}, "displayed_time": "10.39", "trialTime": 11879, "trial_type": "mouselab-mdp", "trial_index": 59, "time_elapsed": 1141828, "internal_node_id": "0.0-4.0-3.0-19.0"}}, {"uniqueid": "w80375362:a65878574", "current_trial": 60, "dateTime": 1664556435310, "trialdata": {"revealed_states": [], "num_clicks_accrued": [0, 0, 0, 0, 0, 0, 0, 0, 0, 0, 0, 0, 0], "stateRewards": ["", -2, -8, -48, 24, 2, -4, -48, 48, 2, 4, 24, -24], "withholdReward": true, "trial_id": "mdp_849341543762", "block": "test2", "trialIndex": 52, "score": 50, "costs": -1, "simulationMode": [null, null, null], "rewards": [2, -4, 48], "path": ["0", "0", "5", "6", "8"], "rt": [5421, 59, 52], "actions": ["right", "right", "down"], "actionTimes": [7932, 8503, 9078], "queries": {"click": {"state": {"target": ["4", "11", "12", "8"], "time": [3459, 4253, 5564, 6502]}, "edge": {"target": [], "time": []}}, "mouseover": {"state": {"target": ["4", "11", "10", "12", "12", "8", "6"], "time": [3131, 3863, 4670, 4748, 5268, 6166, 6811]}, "edge": {"target": [], "time": []}}, "mouseout": {"state": {"target": ["0", "4", "11", "10", "12", "12", "8", "6", "6", "5", "0"], "time": [2953, 3797, 4636, 4714, 4915, 5866, 6776, 6828, 10292, 10890, 12010]}, "edge": {"target": [], "time": []}}}, "displayed_time": "11.51", "trialTime": 12425, "trial_type": "mouselab-mdp", "trial_index": 60, "time_elapsed": 1154310, "internal_node_id": "0.0-4.0-3.0-20.0"}}, {"uniqueid": "w80375362:a65878574", "current_trial": 61, "dateTime": 1664556447699, "trialdata": {"revealed_states": [], "num_clicks_accrued": [0, 0, 0, 0, 0, 0, 0, 0, 0, 0, 0, 0, 0], "stateRewards": ["", 2, -4, -24, 24, 2, 8, 48, 48, 2, -8, 48, -24], "withholdReward": false, "trial_id": "mdp_330392242530", "block": "test2", "trialIndex": 53, "score": 46.75, "costs": -0.25, "simulationMode": [null, null, null], "rewards": [2, -8, 48], "path": ["0", "0", "9", "10", "11"], "rt": [2256, 174, 37], "actions": ["left", "left", "up"], "actionTimes": [5833, 6512, 7047], "queries": {"click": {"state": {"target": ["11"], "time": [4615]}, "edge": {"target": [], "time": []}}, "mouseover": {"state": {"target": ["11"], "time": [4346]}, "edge": {"target": [], "time": []}}, "mouseout": {"state": {"target": ["0", "11", "9"], "time": [4063, 4959, 8126]}, "edge": {"target": [], "time": []}}}, "displayed_time": "11.58", "trialTime": 12330, "trial_type": "mouselab-mdp", "trial_index": 61, "time_elapsed": 1166699, "internal_node_id": "0.0-4.0-3.0-21.0"}}, {"uniqueid": "w80375362:a65878574", "current_trial": 62, "dateTime": 1664556459150, "trialdata": {"revealed_states": [], "num_clicks_accrued": [0, 0, 0, 0, 0, 0, 0, 0, 0, 0, 0, 0, 0], "stateRewards": ["", -2, 4, -48, 24, -4, 8, 48, 24, -2, 4, -48, -24], "withholdReward": false, "trial_id": "mdp_740882974347", "block": "test2", "trialIndex": 54, "score": 56, "costs": -1, "simulationMode": [null, null, null], "rewards": [-4, 8, 48], "path": ["0", "0", "5", "6", "7"], "rt": [4540, 87, 251], "actions": ["right", "right", "up"], "actionTimes": [5775, 6362, 7126], "queries": {"click": {"state": {"target": ["11", "12", "8", "7"], "time": [2164, 2976, 3855, 4659]}, "edge": {"target": [], "time": []}}, "mouseover": {"state": {"target": ["11", "10", "12", "8", "6", "7"], "time": [1881, 2483, 2589, 3374, 4199, 4316]}, "edge": {"target": [], "time": []}}, "mouseout": {"state": {"target": ["0", "11", "10", "12", "8", "6", "7"], "time": [1730, 2466, 2532, 3258, 4149, 4283, 4998]}, "edge": {"target": [], "time": []}}}, "displayed_time": "10.24", "trialTime": 11399, "trial_type": "mouselab-mdp", "trial_index": 62, "time_elapsed": 1178151, "internal_node_id": "0.0-4.0-3.0-22.0"}}, {"uniqueid": "w80375362:a65878574", "current_trial": 63, "dateTime": 1664556469515, "trialdata": {"revealed_states": [], "num_clicks_accrued": [0, 0, 0, 0, 0, 0, 0, 0, 0, 0, 0, 0, 0], "stateRewards": ["", 2, 4, -48, 24, -4, 4, -24, 48, -2, -8, -48, 48], "withholdReward": true, "trial_id": "mdp_424193661731", "block": "test2", "trialIndex": 55, "score": 51.75, "costs": -1.25, "simulationMode": [null, null, null], "rewards": [-4, 4, 48], "path": ["0", "0", "5", "6", "8"], "rt": [6472, 122, 79], "actions": ["right", "right", "down"], "actionTimes": [7707, 8320, 8894], "queries": {"click": {"state": {"target": ["11", "4", "3", "7", "8"], "time": [2234, 2999, 3722, 4415, 5635]}, "edge": {"target": [], "time": []}}, "mouseover": {"state": {"target": ["11", "4", "2", "3", "7", "6", "8"], "time": [1950, 2643, 3301, 3385, 4110, 4792, 5042]}, "edge": {"target": [], "time": []}}, "mouseout": {"state": {"target": ["3", "11", "4", "2", "3", "7", "6", "8"], "time": [727, 2495, 3266, 3335, 3993, 4759, 4860, 5962]}, "edge": {"target": [], "time": []}}}, "displayed_time": "9.41", "trialTime": 10310, "trial_type": "mouselab-mdp", "trial_index": 63, "time_elapsed": 1188516, "internal_node_id": "0.0-4.0-3.0-23.0"}}, {"uniqueid": "w80375362:a65878574", "current_trial": 64, "dateTime": 1664556480746, "trialdata": {"revealed_states": [], "num_clicks_accrued": [0, 0, 0, 0, 0, 0, 0, 0, 0, 0, 0, 0, 0], "stateRewards": ["", -2, -8, 48, 24, 4, -8, 24, 48, 4, -4, 24, -48], "withholdReward": true, "trial_id": "mdp_871576155740", "block": "test2", "trialIndex": 56, "score": 42.5, "costs": -0.5, "simulationMode": [null, null, null], "rewards": [-2, -8, 48], "path": ["0", "0", "1", "2", "3"], "rt": [3093, 24, 538], "actions": ["up", "up", "right"], "actionTimes": [4743, 5281, 6344], "queries": {"click": {"state": {"target": ["11", "3"], "time": [2595, 3545]}, "edge": {"target": [], "time": []}}, "mouseover": {"state": {"target": ["11", "3"], "time": [2322, 3305]}, "edge": {"target": [], "time": []}}, "mouseout": {"state": {"target": ["0", "11", "3"], "time": [2205, 2957, 3989]}, "edge": {"target": [], "time": []}}}, "displayed_time": "10.65", "trialTime": 11176, "trial_type": "mouselab-mdp", "trial_index": 64, "time_elapsed": 1199746, "internal_node_id": "0.0-4.0-3.0-24.0"}}, {"uniqueid": "w80375362:a65878574", "current_trial": 65, "dateTime": 1664556490572, "trialdata": {"revealed_states": [], "num_clicks_accrued": [0, 0, 0, 0, 0, 0, 0, 0, 0, 0, 0, 0, 0], "stateRewards": ["", -4, -4, -24, -24, -2, 4, 48, -24, -2, -4, -24, 48], "withholdReward": true, "trial_id": "mdp_855903341564", "block": "test2", "trialIndex": 57, "score": 54.25, "costs": -0.75, "simulationMode": [null, null, null], "rewards": [-2, 4, 48], "path": ["0", "0", "5", "6", "7"], "rt": [4252, 82, 62], "actions": ["right", "right", "up"], "actionTimes": [5481, 6074, 6654], "queries": {"click": {"state": {"target": ["11", "4", "7"], "time": [2194, 3335, 4335]}, "edge": {"target": [], "time": []}}, "mouseover": {"state": {"target": ["11", "4", "4", "2", "7", "5"], "time": [1905, 2661, 3058, 3739, 4073, 4832]}, "edge": {"target": [], "time": []}}, "mouseout": {"state": {"target": ["11", "4", "4", "2", "7", "5"], "time": [2610, 2762, 3723, 3840, 4772, 4866]}, "edge": {"target": [], "time": []}}}, "displayed_time": "9.24", "trialTime": 9712, "trial_type": "mouselab-mdp", "trial_index": 65, "time_elapsed": 1209573, "internal_node_id": "0.0-4.0-3.0-25.0"}}, {"uniqueid": "w80375362:a65878574", "current_trial": 66, "dateTime": 1664556501383, "trialdata": {"revealed_states": [], "num_clicks_accrued": [0, 0, 0, 0, 0, 0, 0, 0, 0, 0, 0, 0, 0], "stateRewards": ["", 2, 4, 48, 24, -2, -8, 24, 24, -2, 4, -48, 24], "withholdReward": false, "trial_id": "mdp_130849500124", "block": "test2", "trialIndex": 58, "score": 58.25, "costs": -0.75, "simulationMode": [null, null, null], "rewards": [2, 4, 48], "path": ["0", "0", "1", "2", "3"], "rt": [5015, 86, 34], "actions": ["up", "up", "right"], "actionTimes": [7054, 7641, 8187], "queries": {"click": {"state": {"target": ["8", "7", "3"], "time": [3831, 4695, 5546]}, "edge": {"target": [], "time": []}}, "mouseover": {"state": {"target": ["5", "8", "8", "6", "7", "3", "2"], "time": [2532, 2651, 3509, 4318, 4403, 5242, 5939]}, "edge": {"target": [], "time": []}}, "mouseout": {"state": {"target": ["0", "5", "8", "8", "6", "7", "3", "2"], "time": [2516, 2582, 2716, 4285, 4352, 5092, 5873, 6072]}, "edge": {"target": [], "time": []}}}, "displayed_time": "10.04", "trialTime": 10759, "trial_type": "mouselab-mdp", "trial_index": 66, "time_elapsed": 1220383, "internal_node_id": "0.0-4.0-3.0-26.0"}}, {"uniqueid": "w80375362:a65878574", "current_trial": 67, "dateTime": 1664556523483, "trialdata": {"revealed_states": [], "num_clicks_accrued": [0, 0, 0, 0, 0, 0, 0, 0, 0, 0, 0, 0, 0], "stateRewards": ["", -4, 8, -48, -48, -4, 4, -24, -48, 2, -4, -24, 24], "withholdReward": true, "trial_id": "mdp_183773275291", "block": "test2", "trialIndex": 59, "score": 24, "costs": -3, "simulationMode": [null, null, null], "rewards": [2, -4, 24], "path": ["0", "0", "9", "10", "12"], "rt": [17946, 446, 123], "actions": ["left", "left", "down"], "actionTimes": [19139, 20093, 20719], "queries": {"click": {"state": {"target": ["7", "8", "3", "4", "11", "12", "1", "5", "6", "2", "9", "10"], "time": [2452, 3279, 4299, 5150, 6002, 6860, 10977, 11693, 12338, 13204, 14026, 14557]}, "edge": {"target": [], "time": []}}, "mouseover": {"state": {"target": ["5", "7", "7", "6", "8", "5", "3", "2", "4", "11", "10", "12", "9", "1", "5", "6", "2", "9", "10"], "time": [1710, 1993, 2176, 2758, 2859, 3759, 3858, 4628, 4845, 5544, 6400, 6468, 9367, 10450, 11381, 12098, 12835, 13563, 14309]}, "edge": {"target": [], "time": []}}, "mouseout": {"state": {"target": ["0", "5", "7", "7", "6", "8", "5", "3", "2", "4", "11", "10", "12", "9", "1", "5", "6", "2", "9", "10"], "time": [1672, 1727, 2026, 2744, 2810, 3708, 3774, 4596, 4729, 5477, 6369, 6434, 9251, 10083, 11348, 12047, 12635, 13467, 14276, 14858]}, "edge": {"target": [], "time": []}}}, "displayed_time": "21.22", "trialTime": 22039, "trial_type": "mouselab-mdp", "trial_index": 67, "time_elapsed": 1242484, "internal_node_id": "0.0-4.0-3.0-27.0"}}, {"uniqueid": "w80375362:a65878574", "current_trial": 68, "dateTime": 1664556535600, "trialdata": {"revealed_states": [], "num_clicks_accrued": [0, 0, 0, 0, 0, 0, 0, 0, 0, 0, 0, 0, 0], "stateRewards": ["", -2, 8, 48, -48, 4, -8, 24, 24, 4, 4, -48, -24], "withholdReward": true, "trial_id": "mdp_746937869927", "block": "test2", "trialIndex": 60, "score": 57.5, "costs": -1.5, "simulationMode": [null, null, null], "rewards": [-2, 8, 48], "path": ["0", "0", "1", "2", "3"], "rt": [6192, 69, 35], "actions": ["up", "up", "right"], "actionTimes": [8543, 9115, 9680], "queries": {"click": {"state": {"target": ["11", "12", "8", "7", "4", "3"], "time": [3268, 4048, 5054, 5948, 6826, 7592]}, "edge": {"target": [], "time": []}}, "mouseover": {"state": {"target": ["11", "10", "12", "8", "6", "7", "2", "4", "2", "3"], "time": [3021, 3671, 3755, 4754, 5408, 5599, 6456, 6540, 7114, 7232]}, "edge": {"target": [], "time": []}}, "mouseout": {"state": {"target": ["9", "0", "11", "10", "12", "8", "6", "7", "2", "4", "2"], "time": [1090, 2078, 3650, 3722, 4305, 5393, 5457, 6289, 6489, 7097, 7165]}, "edge": {"target": [], "time": []}}}, "displayed_time": "10.35", "trialTime": 12064, "trial_type": "mouselab-mdp", "trial_index": 68, "time_elapsed": 1254601, "internal_node_id": "0.0-4.0-3.0-28.0"}}, {"uniqueid": "w80375362:a65878574", "current_trial": 69, "dateTime": 1664556546435, "trialdata": {"revealed_states": [], "num_clicks_accrued": [0, 0, 0, 0, 0, 0, 0, 0, 0, 0, 0, 0, 0], "stateRewards": ["", 4, 4, -24, -48, -4, 4, -48, 24, 4, -8, -48, 48], "withholdReward": true, "trial_id": "mdp_566768794366", "block": "test2", "trialIndex": 61, "score": 48.25, "costs": -0.75, "simulationMode": [null, null, null], "rewards": [4, -8, 48], "path": ["0", "0", "9", "10", "12"], "rt": [3929, 156, 73], "actions": ["left", "left", "down"], "actionTimes": [5129, 5782, 6356], "queries": {"click": {"state": {"target": ["4", "11", "12"], "time": [2456, 3213, 4001]}, "edge": {"target": [], "time": []}}, "mouseover": {"state": {"target": ["1", "4", "11", "10", "12"], "time": [1709, 2140, 2961, 3577, 3726]}, "edge": {"target": [], "time": []}}, "mouseout": {"state": {"target": ["3", "1", "4", "11", "10", "12"], "time": [609, 1725, 2828, 3542, 3643, 4325]}, "edge": {"target": [], "time": []}}}, "displayed_time": "10.21", "trialTime": 10786, "trial_type": "mouselab-mdp", "trial_index": 69, "time_elapsed": 1265436, "internal_node_id": "0.0-4.0-3.0-29.0"}}, {"uniqueid": "w80375362:a65878574", "current_trial": 70, "dateTime": 1664556561733, "trialdata": {"rt": 15287, "stimulus": "<h1> End of block! </h1>\n\nYou have reached the end of the block 2/4. If you need a short break, feel free to take one now before moving on.\n\n<br><br>\nIn the next block, you will complete another 30 rounds of this game.\n\n<br><br>\n<div style='text-align: center;'>Press <code>space</code> to begin.</div>\n<br><br>\n<div style='text-align: center;'>(If the experiment doesn't continue, try clicking on the text and then pressing <code>space</code>.)</div>", "response": " ", "trial_id": "mdp_ready_3", "trial_type": "html-keyboard-response", "trial_index": 70, "time_elapsed": 1280733, "internal_node_id": "0.0-4.0-4.0"}}, {"uniqueid": "w80375362:a65878574", "current_trial": 71, "dateTime": 1664556572012, "trialdata": {"revealed_states": [], "num_clicks_accrued": [0, 0, 0, 0, 0, 0, 0, 0, 0, 0, 0, 0, 0], "stateRewards": ["", 2, 8, 48, -48, -2, -4, -24, 24, 4, -4, 48, -48], "withholdReward": true, "trial_id": "mdp_105734044587", "block": "test3", "trialIndex": 62, "score": 52.75, "costs": -0.25, "simulationMode": [null, null, null], "rewards": [4, -4, 48], "path": ["0", "0", "9", "10", "11"], "rt": [3123, 159, 115], "actions": ["left", "left", "up"], "actionTimes": [4753, 5416, 6038], "queries": {"click": {"state": {"target": ["11"], "time": [3149]}, "edge": {"target": [], "time": []}}, "mouseover": {"state": {"target": ["11", "10"], "time": [2491, 3692]}, "edge": {"target": [], "time": []}}, "mouseout": {"state": {"target": ["0", "11", "10"], "time": [2335, 3659, 3824]}, "edge": {"target": [], "time": []}}}, "displayed_time": "9.63", "trialTime": 10224, "trial_type": "mouselab-mdp", "trial_index": 71, "time_elapsed": 1291013, "internal_node_id": "0.0-4.0-5.0-0.0"}}, {"uniqueid": "w80375362:a65878574", "current_trial": 72, "dateTime": 1664556581720, "trialdata": {"revealed_states": [], "num_clicks_accrued": [0, 0, 0, 0, 0, 0, 0, 0, 0, 0, 0, 0, 0], "stateRewards": ["", 4, 4, 24, 24, 4, -4, 48, 48, 4, 4, 24, -48], "withholdReward": true, "trial_id": "mdp_454251689008", "block": "test3", "trialIndex": 63, "score": 52, "costs": -1, "simulationMode": [null, null, null], "rewards": [4, -4, 48], "path": ["0", "0", "5", "6", "7"], "rt": [4440, 580, 246], "actions": ["right", "right", "up"], "actionTimes": [5804, 6886, 7649], "queries": {"click": {"state": {"target": ["11", "4", "3", "7"], "time": [2254, 3042, 3793, 4620]}, "edge": {"target": [], "time": []}}, "mouseover": {"state": {"target": ["9", "11", "4", "2", "3", "7", "6"], "time": [1824, 1958, 2759, 3360, 3476, 4330, 5007]}, "edge": {"target": [], "time": []}}, "mouseout": {"state": {"target": ["0", "9", "11", "4", "2", "3", "7", "6"], "time": [1792, 1875, 2676, 3332, 3409, 4192, 4991, 5058]}, "edge": {"target": [], "time": []}}}, "displayed_time": "9.37", "trialTime": 9654, "trial_type": "mouselab-mdp", "trial_index": 72, "time_elapsed": 1300721, "internal_node_id": "0.0-4.0-5.0-1.0"}}, {"uniqueid": "w80375362:a65878574", "current_trial": 73, "dateTime": 1664556592009, "trialdata": {"revealed_states": [], "num_clicks_accrued": [0, 0, 0, 0, 0, 0, 0, 0, 0, 0, 0, 0, 0], "stateRewards": ["", -4, -8, -24, 24, 2, 8, 24, 48, 2, 4, 24, -48], "withholdReward": true, "trial_id": "mdp_122352383932", "block": "test3", "trialIndex": 64, "score": 61.75, "costs": -1.25, "simulationMode": [null, null, null], "rewards": [2, 8, 48], "path": ["0", "0", "5", "6", "8"], "rt": [5481, 172, 80], "actions": ["right", "right", "down"], "actionTimes": [6865, 7530, 8113], "queries": {"click": {"state": {"target": ["11", "4", "3", "7", "8"], "time": [2343, 3431, 4228, 4936, 5787]}, "edge": {"target": [], "time": []}}, "mouseover": {"state": {"target": ["11", "4", "2", "3", "7", "6", "8"], "time": [2066, 3114, 3798, 3964, 4619, 5306, 5457]}, "edge": {"target": [], "time": []}}, "mouseout": {"state": {"target": ["0", "11", "4", "2", "3", "7", "6", "8"], "time": [1134, 2681, 3781, 3898, 4552, 5290, 5340, 6093]}, "edge": {"target": [], "time": []}}}, "displayed_time": "9.39", "trialTime": 10228, "trial_type": "mouselab-mdp", "trial_index": 73, "time_elapsed": 1311010, "internal_node_id": "0.0-4.0-5.0-2.0"}}, {"uniqueid": "w80375362:a65878574", "current_trial": 74, "dateTime": 1664556603379, "trialdata": {"revealed_states": [], "num_clicks_accrued": [0, 0, 0, 0, 0, 0, 0, 0, 0, 0, 0, 0, 0], "stateRewards": ["", 4, 8, 48, -48, -4, 8, -24, -24, -4, 8, 48, 48], "withholdReward": true, "trial_id": "mdp_377640328420", "block": "test3", "trialIndex": 65, "score": 56.75, "costs": -0.25, "simulationMode": [null, null, null], "rewards": [-4, 8, 48], "path": ["0", "0", "9", "10", "11"], "rt": [1915, 200, 108], "actions": ["left", "left", "up"], "actionTimes": [3402, 4103, 4729], "queries": {"click": {"state": {"target": ["11"], "time": [2317]}, "edge": {"target": [], "time": []}}, "mouseover": {"state": {"target": ["11", "10"], "time": [2023, 2661]}, "edge": {"target": [], "time": []}}, "mouseout": {"state": {"target": ["0", "11", "10"], "time": [1204, 2645, 2696]}, "edge": {"target": [], "time": []}}}, "displayed_time": "10.49", "trialTime": 11310, "trial_type": "mouselab-mdp", "trial_index": 74, "time_elapsed": 1322380, "internal_node_id": "0.0-4.0-5.0-3.0"}}, {"uniqueid": "w80375362:a65878574", "current_trial": 75, "dateTime": 1664556627097, "trialdata": {"revealed_states": [], "num_clicks_accrued": [0, 0, 0, 0, 0, 0, 0, 0, 0, 0, 0, 0, 0], "stateRewards": ["", -4, 8, 24, -24, 4, 8, -24, -48, 2, 4, 24, -24], "withholdReward": true, "trial_id": "mdp_782187007008", "block": "test3", "trialIndex": 66, "score": 32.5, "costs": -2.5, "simulationMode": [null, null, null], "rewards": [2, 4, 24], "path": ["0", "0", "9", "10", "11"], "rt": [20099, 132, 65], "actions": ["left", "left", "up"], "actionTimes": [21253, 21884, 22452], "queries": {"click": {"state": {"target": ["11", "12", "8", "7", "3", "4", "10", "2", "9", "1"], "time": [2081, 3592, 4358, 5082, 5883, 6855, 9379, 10774, 11931, 12844]}, "edge": {"target": [], "time": []}}, "mouseover": {"state": {"target": ["11", "10", "12", "12", "8", "6", "7", "3", "2", "4", "1", "9", "10", "2", "1", "0", "9", "1"], "time": [1792, 2367, 2435, 3237, 4002, 4716, 4798, 5572, 6260, 6577, 7179, 8404, 8888, 10073, 11035, 11084, 11484, 12557]}, "edge": {"target": [], "time": []}}, "mouseout": {"state": {"target": ["0", "11", "10", "12", "12", "8", "6", "7", "3", "2", "4", "1", "9", "10", "2", "1", "0", "9", "1", "9", "10"], "time": [617, 2337, 2400, 2602, 3868, 4683, 4766, 5522, 6195, 6478, 7129, 7195, 8621, 9707, 11023, 11068, 11099, 12340, 13297, 15516, 15599]}, "edge": {"target": [], "time": []}}}, "displayed_time": "22.97", "trialTime": 23646, "trial_type": "mouselab-mdp", "trial_index": 75, "time_elapsed": 1346098, "internal_node_id": "0.0-4.0-5.0-4.0"}}, {"uniqueid": "w80375362:a65878574", "current_trial": 76, "dateTime": 1664556638512, "trialdata": {"revealed_states": [], "num_clicks_accrued": [0, 0, 0, 0, 0, 0, 0, 0, 0, 0, 0, 0, 0], "stateRewards": ["", 4, 8, -48, -48, 2, 4, -24, -48, 2, 8, 48, -48], "withholdReward": true, "trial_id": "mdp_902172716465", "block": "test3", "trialIndex": 67, "score": 62.75, "costs": -0.25, "simulationMode": [null, null, null], "rewards": [2, 8, 48], "path": ["0", "0", "9", "10", "11"], "rt": [3431, 21, 110], "actions": ["left", "left", "up"], "actionTimes": [4929, 5451, 6058], "queries": {"click": {"state": {"target": ["11"], "time": [3625]}, "edge": {"target": [], "time": []}}, "mouseover": {"state": {"target": ["9", "10", "11"], "time": [2016, 2399, 3365]}, "edge": {"target": [], "time": []}}, "mouseout": {"state": {"target": ["10", "9", "9", "10", "11"], "time": [756, 1174, 2050, 2866, 4108]}, "edge": {"target": [], "time": []}}}, "displayed_time": "10.50", "trialTime": 11351, "trial_type": "mouselab-mdp", "trial_index": 76, "time_elapsed": 1357513, "internal_node_id": "0.0-4.0-5.0-5.0"}}, {"uniqueid": "w80375362:a65878574", "current_trial": 77, "dateTime": 1664556656769, "trialdata": {"revealed_states": [], "num_clicks_accrued": [0, 0, 0, 0, 0, 0, 0, 0, 0, 0, 0, 0, 0], "stateRewards": ["", -4, 8, -48, -48, -4, 4, -24, -48, 2, -4, -24, 24], "withholdReward": true, "trial_id": "mdp_183773275291", "block": "test3", "trialIndex": 68, "score": 25.5, "costs": -1.5, "simulationMode": [null, null, null], "rewards": [2, -4, 24], "path": ["0", "0", "9", "10", "12"], "rt": [11033, 109, 6], "actions": ["left", "left", "down"], "actionTimes": [15691, 16302, 16806], "queries": {"click": {"state": {"target": ["11", "12", "8", "7", "3", "4"], "time": [5919, 6968, 9166, 10101, 11525, 12351]}, "edge": {"target": [], "time": []}}, "mouseover": {"state": {"target": ["11", "10", "12", "8", "8", "6", "7", "3", "3", "2", "4", "9", "10"], "time": [5601, 6411, 6628, 7988, 8734, 9601, 9718, 10608, 11258, 11884, 12033, 12887, 13219]}, "edge": {"target": [], "time": []}}, "mouseout": {"state": {"target": ["11", "10", "12", "8", "8", "6", "7", "3", "3", "2", "4", "9", "10"], "time": [6361, 6511, 7293, 8038, 9567, 9668, 10441, 10691, 11866, 11933, 12671, 12987, 13928]}, "edge": {"target": [], "time": []}}}, "displayed_time": "17.35", "trialTime": 18200, "trial_type": "mouselab-mdp", "trial_index": 77, "time_elapsed": 1375769, "internal_node_id": "0.0-4.0-5.0-6.0"}}, {"uniqueid": "w80375362:a65878574", "current_trial": 78, "dateTime": 1664556686357, "trialdata": {"revealed_states": [], "num_clicks_accrued": [0, 0, 0, 0, 0, 0, 0, 0, 0, 0, 0, 0, 0], "stateRewards": ["", 2, -8, 48, -24, 2, 8, 24, -24, 4, -4, -48, -48], "withholdReward": false, "trial_id": "mdp_130946197263", "block": "test3", "trialIndex": 69, "score": 46.75, "costs": -0.25, "simulationMode": [null, null, null], "rewards": [2, -8, 48], "path": ["0", "0", "1", "2", "3"], "rt": [2382, 441, 198], "actions": ["up", "up", "right"], "actionTimes": [3464, 4407, 5105], "queries": {"click": {"state": {"target": ["3"], "time": [2091]}, "edge": {"target": [], "time": []}}, "mouseover": {"state": {"target": ["1", "2", "3"], "time": [1540, 1622, 1790]}, "edge": {"target": [], "time": []}}, "mouseout": {"state": {"target": ["1", "2", "3", "5"], "time": [1573, 1673, 2515, 29028]}, "edge": {"target": [], "time": []}}}, "displayed_time": "8.09", "trialTime": 29528, "trial_type": "mouselab-mdp", "trial_index": 78, "time_elapsed": 1405357, "internal_node_id": "0.0-4.0-5.0-7.0"}}, {"uniqueid": "w80375362:a65878574", "current_trial": 79, "dateTime": 1664556696450, "trialdata": {"revealed_states": [], "num_clicks_accrued": [0, 0, 0, 0, 0, 0, 0, 0, 0, 0, 0, 0, 0], "stateRewards": ["", -4, -8, 24, 48, 2, -4, -24, 24, -4, 8, 48, 48], "withholdReward": true, "trial_id": "mdp_496672670022", "block": "test3", "trialIndex": 70, "score": 40.75, "costs": -0.25, "simulationMode": [null, null, null], "rewards": [-4, -8, 48], "path": ["0", "0", "1", "2", "4"], "rt": [2485, 134, 3028], "actions": ["up", "up", "left"], "actionTimes": [3612, 4248, 7778], "queries": {"click": {"state": {"target": ["4"], "time": [2164]}, "edge": {"target": [], "time": []}}, "mouseover": {"state": {"target": ["4"], "time": [1819]}, "edge": {"target": [], "time": []}}, "mouseout": {"state": {"target": ["0", "4"], "time": [894, 2495]}, "edge": {"target": [], "time": []}}}, "displayed_time": "9.13", "trialTime": 10035, "trial_type": "mouselab-mdp", "trial_index": 79, "time_elapsed": 1415451, "internal_node_id": "0.0-4.0-5.0-8.0"}}, {"uniqueid": "w80375362:a65878574", "current_trial": 80, "dateTime": 1664556706246, "trialdata": {"revealed_states": [], "num_clicks_accrued": [0, 0, 0, 0, 0, 0, 0, 0, 0, 0, 0, 0, 0], "stateRewards": ["", -2, -4, -24, -48, 2, -8, -24, -24, 4, -8, 48, 48], "withholdReward": false, "trial_id": "mdp_950599994674", "block": "test3", "trialIndex": 71, "score": 48.5, "costs": -0.5, "simulationMode": [null, null, null], "rewards": [4, -8, 48], "path": ["0", "0", "9", "10", "11"], "rt": [3176, 48, 61], "actions": ["left", "left", "up"], "actionTimes": [4278, 4828, 5409], "queries": {"click": {"state": {"target": ["4", "11"], "time": [2413, 3155]}, "edge": {"target": [], "time": []}}, "mouseover": {"state": {"target": ["4", "11", "10", "12"], "time": [2192, 2837, 3567, 3634]}, "edge": {"target": [], "time": []}}, "mouseout": {"state": {"target": ["0", "4", "11", "10"], "time": [1499, 2769, 3517, 3617]}, "edge": {"target": [], "time": []}}}, "displayed_time": "9.11", "trialTime": 9740, "trial_type": "mouselab-mdp", "trial_index": 80, "time_elapsed": 1425246, "internal_node_id": "0.0-4.0-5.0-9.0"}}, {"uniqueid": "w80375362:a65878574", "current_trial": 81, "dateTime": 1664556719764, "trialdata": {"revealed_states": [], "num_clicks_accrued": [0, 0, 0, 0, 0, 0, 0, 0, 0, 0, 0, 0, 0], "stateRewards": ["", 2, 8, -48, 24, -4, 8, 48, -24, 2, 8, 24, 24], "withholdReward": false, "trial_id": "mdp_175372499314", "block": "test3", "trialIndex": 72, "score": 56.5, "costs": -0.5, "simulationMode": [null, null, null], "rewards": [-4, 8, 48], "path": ["0", "0", "5", "6", "7"], "rt": [2869, 120, 25], "actions": ["right", "right", "up"], "actionTimes": [6801, 7417, 7940], "queries": {"click": {"state": {"target": ["3", "7"], "time": [5131, 5699]}, "edge": {"target": [], "time": []}}, "mouseover": {"state": {"target": ["3", "7", "6", "8"], "time": [4869, 5421, 6107, 6173]}, "edge": {"target": [], "time": []}}, "mouseout": {"state": {"target": ["12", "9", "0", "3", "7", "6", "8"], "time": [659, 825, 2207, 5371, 6081, 6139, 6239]}, "edge": {"target": [], "time": []}}}, "displayed_time": "11.93", "trialTime": 13456, "trial_type": "mouselab-mdp", "trial_index": 81, "time_elapsed": 1438765, "internal_node_id": "0.0-4.0-5.0-10.0"}}, {"uniqueid": "w80375362:a65878574", "current_trial": 82, "dateTime": 1664556730869, "trialdata": {"revealed_states": [], "num_clicks_accrued": [0, 0, 0, 0, 0, 0, 0, 0, 0, 0, 0, 0, 0], "stateRewards": ["", -4, -8, 48, 24, 4, -8, 24, -48, -2, -8, 24, -48], "withholdReward": false, "trial_id": "mdp_952038635544", "block": "test3", "trialIndex": 73, "score": 40.25, "costs": -0.75, "simulationMode": [null, null, null], "rewards": [-4, -8, 48], "path": ["0", "0", "1", "2", "3"], "rt": [5093, 393, 444], "actions": ["up", "up", "right"], "actionTimes": [6704, 7609, 8547], "queries": {"click": {"state": {"target": ["11", "4", "3"], "time": [3116, 4379, 5633]}, "edge": {"target": [], "time": []}}, "mouseover": {"state": {"target": ["11", "4", "4", "2", "3", "7"], "time": [2871, 3705, 4137, 4761, 5428, 6169]}, "edge": {"target": [], "time": []}}, "mouseout": {"state": {"target": ["0", "11", "4", "4", "2", "3"], "time": [2589, 3655, 3772, 4745, 4845, 6054]}, "edge": {"target": [], "time": []}}}, "displayed_time": "10.61", "trialTime": 11049, "trial_type": "mouselab-mdp", "trial_index": 82, "time_elapsed": 1449870, "internal_node_id": "0.0-4.0-5.0-11.0"}}, {"uniqueid": "w80375362:a65878574", "current_trial": 83, "dateTime": 1664556742758, "trialdata": {"revealed_states": [], "num_clicks_accrued": [0, 0, 0, 0, 0, 0, 0, 0, 0, 0, 0, 0, 0], "stateRewards": ["", 4, -4, 48, -48, -4, -4, 48, -48, 4, 4, -48, -24], "withholdReward": true, "trial_id": "mdp_490058671112", "block": "test3", "trialIndex": 74, "score": 43.75, "costs": -1.25, "simulationMode": [null, null, null], "rewards": [-4, -4, 48], "path": ["0", "0", "5", "6", "7"], "rt": [7285, 146, 542], "actions": ["right", "right", "up"], "actionTimes": [8623, 9272, 10326], "queries": {"click": {"state": {"target": ["4", "11", "12", "8", "7"], "time": [2818, 3568, 4641, 6103, 7386]}, "edge": {"target": [], "time": []}}, "mouseover": {"state": {"target": ["4", "11", "10", "12", "12", "8", "8", "6", "7", "7", "1"], "time": [2587, 3272, 3866, 3933, 4357, 5062, 5798, 6412, 6663, 7094, 8008]}, "edge": {"target": [], "time": []}}, "mouseout": {"state": {"target": ["7", "0", "4", "11", "10", "12", "12", "8", "8", "6", "7", "7"], "time": [740, 1952, 3189, 3835, 3900, 4001, 4911, 5251, 6383, 6480, 6747, 7908]}, "edge": {"target": [], "time": []}}}, "displayed_time": "10.83", "trialTime": 11828, "trial_type": "mouselab-mdp", "trial_index": 83, "time_elapsed": 1461758, "internal_node_id": "0.0-4.0-5.0-12.0"}}, {"uniqueid": "w80375362:a65878574", "current_trial": 84, "dateTime": 1664556754929, "trialdata": {"revealed_states": [], "num_clicks_accrued": [0, 0, 0, 0, 0, 0, 0, 0, 0, 0, 0, 0, 0], "stateRewards": ["", -2, 8, 24, -48, -4, -8, -24, -48, -4, 8, -24, 48], "withholdReward": true, "trial_id": "mdp_464339499860", "block": "test3", "trialIndex": 75, "score": 55.75, "costs": -1.25, "simulationMode": [null, null, null], "rewards": [-4, 8, 48], "path": ["0", "0", "9", "10", "12"], "rt": [5916, 147, 58], "actions": ["left", "left", "down"], "actionTimes": [8362, 9014, 9575], "queries": {"click": {"state": {"target": ["11", "3", "7", "8", "12"], "time": [3420, 4446, 5268, 6112, 6939]}, "edge": {"target": [], "time": []}}, "mouseover": {"state": {"target": ["11", "4", "2", "3", "7", "6", "8", "12", "9", "0"], "time": [3109, 3901, 4017, 4152, 5011, 5605, 5721, 6659, 7364, 7598]}, "edge": {"target": [], "time": []}}, "mouseout": {"state": {"target": ["1", "0", "11", "4", "2", "3", "7", "6", "8", "12", "9", "0"], "time": [544, 2992, 3851, 3985, 4103, 4844, 5570, 5654, 6411, 7349, 7399, 7615]}, "edge": {"target": [], "time": []}}}, "displayed_time": "11.45", "trialTime": 12107, "trial_type": "mouselab-mdp", "trial_index": 84, "time_elapsed": 1473930, "internal_node_id": "0.0-4.0-5.0-13.0"}}, {"uniqueid": "w80375362:a65878574", "current_trial": 85, "dateTime": 1664556769632, "trialdata": {"revealed_states": [], "num_clicks_accrued": [0, 0, 0, 0, 0, 0, 0, 0, 0, 0, 0, 0, 0], "stateRewards": ["", -2, -4, -48, -48, 4, 8, 24, -48, 4, -8, 24, 24], "withholdReward": true, "trial_id": "mdp_749799219195", "block": "test3", "trialIndex": 76, "score": 39, "costs": -2, "simulationMode": [null, null, null], "rewards": [4, 8, 24], "path": ["0", "0", "5", "6", "7"], "rt": [10911, 8, 342], "actions": ["right", "right", "up"], "actionTimes": [12089, 12601, 13453], "queries": {"click": {"state": {"target": ["11", "4", "7", "3", "8", "12", "10", "6"]